timestamp,ax,ay,az,rms,tilt_now,jerk,tilt_crosses,freq
1755688790.9120657,9.774,-0.173,1.152,0.48869999999999997,83.27896230031651,0.4899248120300751,1,0.4
1755688791.0469801,9.752,-0.142,1.1,0.6903487886568644,83.56506487389805,0.4910275689223056,1,0.05
1755688791.0744133,9.605,-0.264,1.0,0.8409646321338371,84.05843831983974,0.49839598997493717,1,0.05
1755688791.099857,9.943,-0.175,1.105,0.9769235563748067,83.65951730957934,0.5153383458646614,1,0.05
1755688791.1257832,9.736,-0.216,0.936,1.0914915826519231,84.50991522705132,0.5257142857142855,1,0.05
1755688791.1514833,9.919,-0.435,0.677,1.198882929021846,86.0991931759755,0.5348872180451125,1,0.05
1755688791.1774738,9.724,-0.077,-0.511,1.2937197213848137,93.00805446248354,0.5446616541353381,1,0.05
1755688791.2030585,9.726,-0.911,0.349,1.3820992755587422,87.9538743231471,0.5447619047619046,1,0.05
1755688791.228744,9.991,-0.137,0.456,1.4696083185665494,87.38701776059159,0.5580451127819547,1,0.05
1755688791.254844,9.638,-0.238,1.119,1.5466015065297203,83.3794435898599,0.5757393483709271,1,0.05
1755688791.280283,9.786,-0.543,-0.297,1.6221561916165779,91.73569516273685,0.5831578947368419,1,0.05
1755688791.3056467,9.819,0.389,0.53,1.6948222952569394,86.91276200649506,0.5848120300751878,1,0.05
1755688791.331355,11.946,0.421,2.326,1.7969946862748372,78.98849387396824,0.6914285714285712,1,0.05
1755688791.357047,12.714,-1.567,1.407,1.9061228692033472,83.73208036871735,0.729924812030075,1,0.05
1755688791.3828475,9.6,-0.726,1.342,1.9656307874318615,82.06446707070205,0.8860150375939848,1,0.05
1755688791.4085052,12.034,-0.783,0.791,2.0556622491304353,86.24724607446517,1.0080200501253131,1,0.05
1755688791.434461,8.877,-1.516,1.811,2.1030335482345497,78.6295402768782,1.1662656641604008,1,0.05
1755688791.4606888,8.994,-1.495,0.34,2.1505767121867567,87.86435461503794,1.1721303258145361,1,0.05
1755688791.4865463,10.651,-1.615,2.626,2.215533727457111,76.30056254949683,1.2551879699248116,1,0.05
1755688791.5119889,11.488,-2.249,1.43,2.288782439966717,83.03532280751737,1.2971428571428567,1,0.05
1755688791.5385902,8.329,-2.828,2.195,2.3263610338896243,75.98830004436863,1.4554887218045107,1,0.05
1755688791.5652006,4.676,-4.189,2.512,2.3380800029083693,68.19214953320432,1.6385964912280695,1,0.05
1755688791.5914736,4.676,-4.189,2.512,2.3380800029083693,68.19214953320432,1.6385964912280695,1,0.05
1755688791.6169224,8.417,-4.323,2.293,2.3756541883237134,76.3780342568835,1.8261152882205505,1,0.05
1755688791.642542,7.828,-5.097,4.256,2.4076807891620517,65.50510503759915,1.8556390977443606,1,0.05
1755688791.6683097,7.828,-5.097,4.256,2.4076807891620517,65.50510503759915,1.8556390977443606,1,0.05
1755688791.6942973,6.271,-5.241,2.98,2.428011611380802,69.96676760867358,1.9336842105263155,1,0.05
1755688791.7200322,6.271,-5.241,2.98,2.428011611380802,69.96676760867358,1.9336842105263155,1,0.05
1755688791.7464232,4.858,-5.107,1.936,2.440131306917724,74.64145377234689,2.0045112781954884,1,0.05
1755688791.7722263,4.858,-5.107,1.936,2.440131306917724,74.64145377234689,2.0045112781954884,1,0.05
1755688791.7977655,2.411,-6.351,3.025,2.4431072627905634,65.99680242076579,2.1271679197994984,1,0.05
1755688791.8229177,2.411,-6.351,3.025,2.4431072627905634,65.99680242076579,2.1271679197994984,1,0.05
1755688791.8482792,2.411,-6.351,3.025,2.4431072627905634,65.99680242076579,2.1271679197994984,1,0.05
1755688791.8742836,5.644,-5.092,3.343,2.4593515278422484,66.26106170696414,2.2892230576441097,1,0.05
1755688791.9005597,5.644,-5.092,3.343,2.4593515278422484,66.26106170696414,2.2892230576441097,1,0.05
1755688791.9261656,19.198,-2.848,8.053,2.640041277612909,67.46497786433765,2.968621553884711,1,0.05
1755688791.9514818,19.198,-2.848,8.053,2.640041277612909,67.46497786433765,2.968621553884711,1,0.05
1755688791.9774985,8.443,-5.256,-4.059,2.673579729501254,112.20188642258289,3.5077192982456133,1,0.05
1755688792.0034306,8.443,-5.256,-4.059,2.673579729501254,112.20188642258289,3.5077192982456133,1,0.05
1755688792.0294845,7.816,-3.47,3.284,2.7019906013900195,68.99224398818373,3.5391478696741845,1,0.05
1755688792.05583,7.816,-3.47,3.284,2.7019906013900195,68.99224398818373,3.5391478696741845,1,0.05
1755688792.0816834,7.518,-3.211,3.593,2.7280128335475258,66.27403194106871,3.5540852130325806,1,0.05
1755688792.1072397,7.518,-3.211,3.593,2.7280128335475258,66.27403194106871,3.5540852130325806,1,0.05
1755688792.133027,7.356,-1.841,6.744,2.752695199254723,48.35099359317347,3.5622055137844604,1,0.05
1755688792.1592104,7.356,-1.841,6.744,2.752695199254723,48.35099359317347,3.5622055137844604,1,0.05
1755688792.1853395,6.097,-1.699,6.354,2.7695242159078517,44.88840970662355,3.6253132832080195,1,0.05
1755688792.2116485,6.097,-1.699,6.354,2.7695242159078517,44.88840970662355,3.6253132832080195,1,0.05
1755688792.23753,5.771,-0.971,9.481,2.7845153052192044,31.684829991168215,3.6416541353383454,1,0.05
1755688792.2634478,5.771,-0.971,9.481,2.7845153052192044,31.684829991168215,3.6416541353383454,1,0.05
1755688792.2894344,5.535,-1.163,8.673,2.798234451846378,33.10929948817154,3.653483709273183,1,0.05
1755688792.3152983,5.535,-1.163,8.673,2.798234451846378,33.10929948817154,3.653483709273183,1,0.05
1755688792.3414097,5.535,-1.163,8.673,2.798234451846378,33.10929948817154,3.653483709273183,1,0.05
1755688792.367438,3.897,-1.8,11.306,2.805010262013314,20.79059336518747,3.735588972431078,1,0.05
1755688792.3930101,3.897,-1.8,11.306,2.805010262013314,20.79059336518747,3.735588972431078,1,0.05
1755688792.4192731,5.845,-0.108,9.144,2.820193722512693,32.59184204127803,3.833233082706767,1,0.05
1755688792.4458416,5.845,-0.108,9.144,2.820193722512693,32.59184204127803,3.833233082706767,1,0.05
1755688792.471443,6.796,-0.358,0.568,2.840590901995569,85.22898868625794,3.8809022556390977,1,0.05
1755688792.4972272,6.796,-0.358,0.568,2.840590901995569,85.22898868625794,3.8809022556390977,1,0.05
1755688792.5229318,9.221,-0.976,-1.362,2.8777636760165,98.35618310355025,4.002456140350877,1,0.05
1755688792.5491045,9.221,-0.976,-1.362,2.8777636760165,98.35618310355025,4.002456140350877,1,0.05
1755688792.575225,9.137,-1.242,-4.422,2.913800902172281,115.62033330864126,4.006666666666666,1,0.05
1755688792.6015437,9.137,-1.242,-4.422,2.913800902172281,115.62033330864126,4.006666666666666,1,0.05
1755688792.6272647,10.599,-0.493,-5.475,2.9616013742568392,117.29374648503811,4.079949874686717,1,0.05
1755688792.6532812,10.599,-0.493,-5.475,2.9616013742568392,117.29374648503811,4.079949874686717,1,0.05
1755688792.6796656,8.629,-0.243,-4.168,2.9928634787607673,115.77268859430357,4.178696741854637,1,0.05
1755688792.7057104,8.629,-0.243,-4.168,2.9928634787607673,115.77268859430357,4.178696741854637,1,0.05
1755688792.7314992,9.407,-0.375,-2.92,3.0295974856406254,107.23184110995045,4.217694235588973,1,0.05
1755688792.757931,9.407,-0.375,-2.92,3.0295974856406254,107.23184110995045,4.217694235588973,1,0.05
1755688792.783579,10.866,-0.757,-2.916,3.0779271945580517,104.98727374739083,4.290827067669173,1,0.05
1755688792.8095326,10.866,-0.757,-2.916,3.0779271945580517,104.98727374739083,4.290827067669173,1,0.05
1755688792.8361976,9.638,-1.216,-1.186,3.115423474425267,96.96060679549548,4.352380952380953,1,0.05
1755688792.8631368,9.638,-1.216,-1.186,3.115423474425267,96.96060679549548,4.352380952380953,1,0.05
1755688792.8892841,7.905,-2.622,-1.483,3.1403958329325303,100.09645417096542,4.439248120300752,1,0.05
1755688792.9155724,7.905,-2.622,-1.483,3.1403958329325303,100.09645417096542,4.439248120300752,1,0.05
1755688792.9419894,8.868,-2.864,4.061,3.1715437167884035,66.45358476733706,4.4875187969924815,1,0.05
1755688792.968625,8.868,-2.864,4.061,3.1715437167884035,66.45358476733706,4.4875187969924815,1,0.05
1755688792.9949174,7.125,-4.004,3.745,3.1914892464177287,65.38194065864842,4.574887218045112,1,0.05
1755688793.0206132,7.125,-4.004,3.745,3.1914892464177287,65.38194065864842,4.574887218045112,1,0.05
1755688793.0469828,7.125,-4.004,3.745,3.1914892464177287,65.38194065864842,4.574887218045112,1,0.05
1755688793.0736709,8.455,-3.953,3.536,3.2193665793910458,69.25068051955444,4.6415538847117785,1,0.05
1755688793.0997736,8.455,-3.953,3.536,3.2193665793910458,69.25068051955444,4.6415538847117785,1,0.05
1755688793.1260238,6.012,-3.191,4.527,3.233369996226847,56.371621501247155,4.764010025062655,1,0.05
1755688793.1531384,7.456,-3.686,4.382,3.254790526669881,62.21751149611332,4.8363909774436085,1,0.05
1755688793.1791427,7.456,-3.686,4.382,3.254790526669881,62.21751149611332,4.8363909774436085,1,0.05
1755688793.205507,7.487,-3.91,1.25,3.2762477462792705,81.58187601442049,4.837944862155387,1,0.05
1755688793.2322593,7.487,-3.91,1.25,3.2762477462792705,81.58187601442049,4.837944862155387,1,0.05
1755688793.2586334,8.501,-2.208,5.197,3.3037050106660555,59.38691051325699,4.88877192982456,1,0.05
1755688793.2856262,8.501,-2.208,5.197,3.3037050106660555,59.38691051325699,4.88877192982456,1,0.05
1755688793.311593,8.501,-2.208,5.197,3.3037050106660555,59.38691051325699,4.88877192982456,1,0.05
1755688793.3375232,6.419,-1.175,3.764,3.3192583057062612,60.023640976180815,4.9931328320801995,1,0.05
1755688793.3636932,6.419,-1.175,3.764,3.3192583057062612,60.023640976180815,4.9931328320801995,1,0.05
1755688793.3896198,7.838,0.654,2.545,3.342313765941193,72.06967753868555,5.0642606516290725,1,0.05
1755688793.4161432,7.838,0.654,2.545,3.342313765941193,72.06967753868555,5.0642606516290725,1,0.05
1755688793.4423904,13.202,2.756,-0.193,3.40687442093189,90.81987542284153,5.3331328320802,1,0.05
1755688793.468957,13.202,2.756,-0.193,3.40687442093189,90.81987542284153,5.3331328320802,1,0.05
1755688793.4954524,9.833,2.297,1.219,3.4421669109007484,83.11654955173998,5.5020050125313285,1,0.05
1755688793.5222607,9.833,2.297,1.219,3.4421669109007484,83.11654955173998,5.5020050125313285,1,0.05
1755688793.5486917,10.367,3.098,0.546,3.480976840629653,87.11118330071491,5.528771929824561,1,0.05
1755688793.574713,10.367,3.098,0.546,3.480976840629653,87.11118330071491,5.528771929824561,1,0.05
1755688793.6008818,10.806,3.163,0.026,3.522658634469142,89.86769393269499,5.55077694235589,1,0.05
1755688793.6269422,10.806,3.163,0.026,3.522658634469142,89.86769393269499,5.55077694235589,1,0.05
1755688793.6529858,11.664,3.014,-0.587,3.570608644895153,92.78955011572826,5.5937844611528815,1,0.05
1755688793.6795733,11.664,3.014,-0.587,3.570608644895153,92.78955011572826,5.5937844611528815,1,0.05
1755688793.7056868,11.664,3.014,-0.587,3.570608644895153,92.78955011572826,5.5937844611528815,1,0.05
1755688793.7314389,11.664,3.014,-0.587,3.570608644895153,92.78955011572826,5.5937844611528815,1,0.05
1755688793.757515,10.227,2.502,1.007,3.6070382473020715,84.53661016802995,5.665814536340851,1,0.05
1755688793.7853608,8.143,0.868,2.678,3.629944357700267,71.89128166122967,5.770275689223055,1,0.05
1755688793.8116405,5.885,-1.259,2.091,3.6418510544090075,70.84031292412241,5.883458646616539,1,0.05
1755688793.8379364,5.885,-1.259,2.091,3.6418510544090075,70.84031292412241,5.883458646616539,1,0.05
1755688793.8639324,6.524,-2.747,1.756,3.6564307107478466,76.06805875570586,5.9154887218045085,1,0.05
1755688793.890184,6.524,-2.747,1.756,3.6564307107478466,76.06805875570586,5.9154887218045085,1,0.05
1755688793.916924,9.388,-2.427,1.238,3.686437562539206,82.72423477790508,6.059047619047618,1,0.05
1755688793.943042,9.388,-2.427,1.238,3.686437562539206,82.72423477790508,6.059047619047618,1,0.05
1755688793.9690976,7.626,-1.697,2.248,3.7061046386334,73.94721063851281,6.147368421052631,1,0.05
1755688793.9960604,7.626,-1.697,2.248,3.7061046386334,73.94721063851281,6.147368421052631,1,0.05
1755688794.022588,10.673,-0.42,1.269,3.7443282328075886,83.22466474777103,6.300100250626566,1,0.05
1755688794.05009,10.673,-0.42,1.269,3.7443282328075886,83.22466474777103,6.300100250626566,1,0.05
1755688794.0763361,10.549,2.346,1.428,3.781295732616004,82.47254312664651,6.306315789473683,1,0.05
1755688794.1020741,10.549,2.346,1.428,3.781295732616004,82.47254312664651,6.306315789473683,1,0.05
1755688794.1281497,10.429,2.694,1.395,3.817081020884938,82.62067551683084,6.312330827067669,1,0.05
1755688794.1546926,10.429,2.694,1.395,3.817081020884938,82.62067551683084,6.312330827067669,1,0.05
1755688794.181024,10.429,2.694,1.395,3.817081020884938,82.62067551683084,6.312330827067669,1,0.05
1755688794.2079577,10.32,2.6,0.297,3.851800036346643,88.40146004199464,6.317794486215539,1,0.05
1755688794.234123,8.083,1.473,0.701,3.872944712037599,85.12332964517263,6.429924812030074,1,0.05
1755688794.2605991,8.083,1.473,0.701,3.872944712037599,85.12332964517263,6.429924812030074,1,0.05
1755688794.287011,9.147,1.226,1.984,3.8998550953849556,77.86725472090843,6.483258145363408,1,0.05
1755688794.3132875,9.147,1.226,1.984,3.8998550953849556,77.86725472090843,6.483258145363408,1,0.05
1755688794.3396797,9.147,1.226,1.984,3.8998550953849556,77.86725472090843,6.483258145363408,1,0.05
1755688794.3666286,9.605,0.07,1.675,3.9293141675742853,80.1080197174325,6.506215538847116,1,0.05
1755688794.392783,9.605,0.07,1.675,3.9293141675742853,80.1080197174325,6.506215538847116,1,0.05
1755688794.4190323,8.88,0.219,1.666,3.954319894431911,79.37726821204339,6.542556390977443,1,0.05
1755688794.4451704,8.448,0.856,-0.138,3.976816262728265,90.9310896895942,6.564210526315788,1,0.05
1755688794.4709427,8.448,0.856,-0.138,3.976816262728265,90.9310896895942,6.564210526315788,1,0.05
1755688794.4979398,8.448,0.856,-0.138,3.976816262728265,90.9310896895942,6.564210526315788,1,0.05
1755688794.5239682,8.288,-0.005,-0.756,3.998349027723818,95.2118802270147,6.572230576441101,1,0.05
1755688794.5505433,8.288,-0.005,-0.756,3.998349027723818,95.2118802270147,6.572230576441101,1,0.05
1755688794.5769024,9.559,-0.154,0.613,4.026814019792819,86.33123264495207,6.635939849624059,1,0.05
1755688794.6033778,9.559,-0.154,0.613,4.026814019792819,86.33123264495207,6.635939849624059,1,0.05
1755688794.6301455,9.962,0.048,1.136,4.057503513245552,83.49454782923333,6.656140350877192,1,0.05
1755688794.656327,9.962,0.048,1.136,4.057503513245552,83.49454782923333,6.656140350877192,1,0.05
1755688794.6821404,9.376,-0.721,-0.169,4.084496076629283,91.02959090476762,6.6855137844611505,1,0.05
1755688794.7089503,9.376,-0.721,-0.169,4.084496076629283,91.02959090476762,6.6855137844611505,1,0.05
1755688794.7356818,10.096,0.37,0.603,4.1155717998839485,86.58426458836162,6.721604010025061,1,0.05
1755688794.7616234,10.096,0.37,0.603,4.1155717998839485,86.58426458836162,6.721604010025061,1,0.05
1755688794.7879744,9.585,-0.372,2.336,4.14338168679884,76.31313876946746,6.7472180451127794,1,0.05
1755688794.8142307,9.585,-0.372,2.336,4.14338168679884,76.31313876946746,6.7472180451127794,1,0.05
1755688794.8400705,9.752,-0.281,0.988,4.171973820926972,84.21734136488851,6.7555889724310765,1,0.05
1755688794.8664892,9.752,-0.281,0.988,4.171973820926972,84.21734136488851,6.7555889724310765,1,0.05
1755688794.8928025,9.752,-0.281,0.988,4.171973820926972,84.21734136488851,6.7555889724310765,1,0.05
1755688794.918879,9.752,-0.281,0.988,4.171973820926972,84.21734136488851,6.7555889724310765,1,0.05
1755688794.945211,9.752,-0.281,0.988,4.171973820926972,84.21734136488851,6.7555889724310765,1,0.05
1755688794.9718802,9.671,-0.293,1.535,4.199903113763459,80.98520460229764,6.759649122807017,1,0.05
1755688794.9984348,9.855,-0.149,0.862,4.228710054792123,85.00172679359528,6.768872180451126,1,0.05
1755688795.0241706,9.693,0.041,1.323,4.256392175305279,82.2277807488542,6.776992481203007,1,0.05
1755688795.0506911,9.545,-0.175,0.846,4.283064546851938,84.93579735931901,6.784411027568921,1,0.05
1755688795.0770237,9.545,-0.175,0.846,4.283064546851938,84.93579735931901,6.784411027568921,1,0.05
1755688795.1035569,9.545,-0.175,0.846,4.283064546851938,84.93579735931901,6.784411027568921,1,0.05
1755688795.1301014,9.638,-0.247,1.283,4.31008927082723,82.4198881181428,6.789072681704261,1,0.05
1755688795.1563709,9.655,-0.185,1.048,4.3370401295122925,83.80622283010968,6.789924812030074,1,0.05
1755688795.1831315,9.655,-0.185,1.048,4.3370401295122925,83.80622283010968,6.789924812030074,1,0.05
1755688795.2093601,9.655,-0.185,1.048,4.3370401295122925,83.80622283010968,6.789924812030074,1,0.05
1755688795.2353392,9.767,-0.183,0.962,4.364447594770729,84.37578056960389,6.795538847117795,1,0.05
1755688795.2617993,9.802,-0.101,1.05,4.391878962073067,83.88605688867014,6.797293233082705,1,0.05
1755688795.2883027,9.802,-0.101,1.05,4.391878962073067,83.88605688867014,6.797293233082705,1,0.05
1755688795.3145714,9.802,-0.101,1.05,4.391878962073067,83.88605688867014,6.797293233082705,1,0.05
1755688795.3405478,9.619,-0.243,1.069,4.418134642583904,83.66050684391928,6.806466165413533,1,0.05
1755688795.3664937,9.619,-0.243,1.069,4.418134642583904,83.66050684391928,6.806466165413533,1,0.05
1755688795.3932621,9.783,-0.178,1.083,4.4451300816174095,83.68398719753823,6.814686716791979,1,0.05
1755688795.419584,9.729,-0.221,1.0,4.4716680383275325,84.13293730332157,6.817393483709273,1,0.05
1755688795.4459262,9.729,-0.221,1.0,4.4716680383275325,84.13293730332157,6.817393483709273,1,0.05
1755688795.4726255,9.626,-0.154,1.076,4.4974953846557755,83.6227296182765,6.822556390977442,1,0.05
1755688795.4989865,9.626,-0.154,1.076,4.4974953846557755,83.6227296182765,6.822556390977442,1,0.05
1755688795.5251162,9.786,-0.154,0.96,4.5240335128069065,84.39793863648633,6.830576441102755,1,0.05
1755688795.5512867,9.786,-0.154,0.96,4.5240335128069065,84.39793863648633,6.830576441102755,1,0.05
1755688795.577923,9.786,-0.154,0.96,4.5240335128069065,84.39793863648633,6.830576441102755,1,0.05
1755688795.6040637,9.705,-0.183,1.012,4.5499831634303884,84.04798208070062,6.834636591478696,1,0.05
1755688795.6306536,9.705,-0.183,1.012,4.5499831634303884,84.04798208070062,6.834636591478696,1,0.05
1755688795.6571546,9.857,-0.151,1.012,4.576597853209303,84.13876970417817,6.842255639097743,1,0.05
1755688795.6834211,9.857,-0.151,1.012,4.576597853209303,84.13876970417817,6.842255639097743,1,0.05
1755688795.7101223,9.652,-0.243,0.948,4.601972476015041,84.39228115206454,6.852531328320801,1,0.05
1755688795.7362876,9.652,-0.243,0.948,4.601972476015041,84.39228115206454,6.852531328320801,1,0.05
1755688795.7626922,9.764,-0.127,1.0,4.62779536172463,84.15281593264123,6.85814536340852,1,0.05
1755688795.7894208,9.764,-0.127,1.0,4.62779536172463,84.15281593264123,6.85814536340852,1,0.05
1755688795.8158553,9.69,-0.216,1.0,4.653088239008584,84.10943359359528,6.8618546365914765,1,0.05
1755688795.8418984,9.69,-0.216,1.0,4.653088239008584,84.10943359359528,6.8618546365914765,1,0.05
1755688795.8683066,9.652,-0.125,0.95,4.678047981797536,84.37922525394747,6.8637593984962395,1,0.05
1755688795.8941655,9.652,-0.125,0.95,4.678047981797536,84.37922525394747,6.8637593984962395,1,0.05
1755688795.9202943,9.807,-0.118,1.038,4.703676864167011,83.95858497135814,6.8715288220551365,1,0.05
1755688795.946525,9.807,-0.118,1.038,4.703676864167011,83.95858497135814,6.8715288220551365,1,0.05
1755688795.9731138,9.6,-0.235,0.917,4.728104910267961,84.54523853561138,6.881904761904761,1,0.05
1755688795.9991977,9.6,-0.235,0.917,4.728104910267961,84.54523853561138,6.881904761904761,1,0.05
1755688796.0254614,9.85,-0.175,1.074,4.753686179429601,83.7782806141817,6.894436090225563,1,0.05
1755688796.051545,9.85,-0.175,1.074,4.753686179429601,83.7782806141817,6.894436090225563,1,0.05
1755688796.0780504,9.85,-0.175,1.074,4.753686179429601,83.7782806141817,6.894436090225563,1,0.05
1755688796.1046693,9.757,-0.202,0.972,4.778653567167221,84.31213079664904,6.899097744360902,1,0.05
1755688796.1308281,9.733,-0.166,0.927,4.803369456693916,84.56017654710338,6.900300751879699,1,0.05
1755688796.1569498,9.733,-0.166,0.927,4.803369456693916,84.56017654710338,6.900300751879699,1,0.05
1755688796.18392,9.802,-0.199,0.953,4.82830779336819,84.44800503312048,6.903759398496241,1,0.05
1755688796.2107408,9.802,-0.199,0.953,4.82830779336819,84.44800503312048,6.903759398496241,1,0.05
1755688796.2373717,9.802,-0.199,0.953,4.82830779336819,84.44800503312048,6.903759398496241,1,0.05
1755688796.263941,9.643,-0.173,1.043,4.852321585591787,83.82779457558831,6.91172932330827,1,0.05
1755688796.290993,9.843,-0.06,1.112,4.877216049397442,83.55453236379726,6.9217543859649115,1,0.05
1755688796.3169613,9.843,-0.06,1.112,4.877216049397442,83.55453236379726,6.9217543859649115,1,0.05
1755688796.343159,9.681,-0.139,1.067,4.901177490664871,83.71112328271658,6.929874686716792,1,0.05
1755688796.3694901,9.681,-0.139,1.067,4.901177490664871,83.71112328271658,6.929874686716792,1,0.05
1755688796.3958392,9.738,-0.175,1.057,4.925303280509739,83.80614066820854,6.932731829573934,1,0.05
1755688796.421946,9.738,-0.175,1.057,4.925303280509739,83.80614066820854,6.932731829573934,1,0.05
1755688796.4481351,9.767,-0.226,1.015,4.949454326236378,84.06861737204247,6.934185463659149,1,0.05
1755688796.4745767,9.767,-0.226,1.015,4.949454326236378,84.06861737204247,6.934185463659149,1,0.05
1755688796.5011015,9.624,-0.154,0.981,4.972791124459181,84.18053049196135,6.941353383458647,1,0.05
1755688796.5274816,9.624,-0.154,0.981,4.972791124459181,84.18053049196135,6.941353383458647,1,0.05
1755688796.5537512,9.821,-0.216,1.069,4.996977253300239,83.78939359539443,6.951228070175438,1,0.05
1755688796.5800219,9.821,-0.216,1.069,4.996977253300239,83.78939359539443,6.951228070175438,1,0.05
1755688796.6067154,9.714,-0.175,0.969,5.020526482352224,84.3043409989292,6.956591478696741,1,0.05
1755688796.632812,9.714,-0.175,0.969,5.020526482352224,84.3043409989292,6.956591478696741,1,0.05
1755688796.6589959,9.795,-0.115,1.062,5.0443573646699535,83.81243408412433,6.960651629072682,1,0.05
1755688796.6853774,9.795,-0.115,1.062,5.0443573646699535,83.81243408412433,6.960651629072682,1,0.05
1755688796.7114203,9.726,-0.154,1.064,5.067743966746939,83.75758852733222,6.9641102756892215,1,0.05
1755688796.7377758,9.726,-0.154,1.064,5.067743966746939,83.75758852733222,6.9641102756892215,1,0.05
1755688796.764019,9.726,-0.154,1.064,5.067743966746939,83.75758852733222,6.9641102756892215,1,0.05
1755688796.7914517,9.7,-0.125,0.979,5.090899126136756,84.23725227949079,6.965413533834586,1,0.05
1755688796.8184526,9.7,-0.125,0.979,5.090899126136756,84.23725227949079,6.965413533834586,1,0.05
1755688796.8446202,9.755,-0.178,1.01,5.114210982644341,84.08982606335063,6.9681704260651625,1,0.05
1755688796.8708615,9.755,-0.178,1.01,5.114210982644341,84.08982606335063,6.9681704260651625,1,0.05
1755688796.8975646,9.543,-0.161,1.029,5.136421526461783,83.84657338844289,6.978796992481203,1,0.05
1755688796.923756,9.543,-0.161,1.029,5.136421526461783,83.84657338844289,6.978796992481203,1,0.05
1755688796.9501312,9.833,-0.139,1.007,5.159897849764082,84.15328991462862,6.993333333333332,1,0.05
1755688796.976293,9.833,-0.139,1.007,5.159897849764082,84.15328991462862,6.993333333333332,1,0.05
1755688797.0029953,9.755,-0.25,0.993,5.182899370284937,84.18955160073182,6.997243107769425,1,0.05
1755688797.0291708,9.755,-0.25,0.993,5.182899370284937,84.18955160073182,6.997243107769425,1,0.05
1755688797.0560796,9.771,-0.147,1.091,5.205874276718561,83.62963253373384,6.998045112781956,1,0.05
1755688797.0824258,9.771,-0.147,1.091,5.205874276718561,83.62963253373384,6.998045112781956,1,0.05
1755688797.1090028,9.8,-0.195,0.986,5.228883913895967,84.25580666794878,6.999498746867167,1,0.05
1755688797.1352682,9.8,-0.195,0.986,5.228883913895967,84.25580666794878,6.999498746867167,1,0.05
1755688797.1619797,9.628,-0.211,1.007,5.250997328603396,84.03052208901472,7.00812030075188,1,0.05
1755688797.1882608,9.628,-0.211,1.007,5.250997328603396,84.03052208901472,7.00812030075188,1,0.05
1755688797.2145114,9.628,-0.211,1.007,5.250997328603396,84.03052208901472,7.00812030075188,1,0.05
1755688797.2409408,9.764,-0.135,1.005,5.273643160567465,84.12384822031154,7.014937343358396,1,0.05
1755688797.2679176,9.566,-0.187,1.036,5.295288762192294,83.82011606077292,7.024862155388472,1,0.05
1755688797.2948093,9.566,-0.187,1.036,5.295288762192294,83.82011606077292,7.024862155388472,1,0.05
1755688797.3209264,9.566,-0.187,1.036,5.295288762192294,83.82011606077292,7.024862155388472,1,0.05
1755688797.34713,9.841,-0.151,1.069,5.318100814905637,83.80115392990147,7.038646616541352,1,0.05
1755688797.373253,9.841,-0.151,1.069,5.318100814905637,83.80115392990147,7.038646616541352,1,0.05
1755688797.3999307,9.841,-0.151,1.069,5.318100814905637,83.80115392990147,7.038646616541352,1,0.05
1755688797.4264066,9.7,-0.228,0.967,5.340170528878268,84.30851400323165,7.045714285714285,1,0.05
1755688797.453225,9.695,-0.178,0.962,5.362126801932233,84.33424371170709,7.045964912280701,1,0.05
1755688797.48001,9.826,-0.231,0.974,5.384587220019748,84.3406151070665,7.052531328320801,1,0.05
1755688797.5060349,9.826,-0.231,0.974,5.384587220019748,84.3406151070665,7.052531328320801,1,0.05
1755688797.5321221,9.652,-0.171,1.114,5.406170760344146,83.41727676849608,7.061253132832079,1,0.05
1755688797.5585716,9.652,-0.171,1.114,5.406170760344146,83.41727676849608,7.061253132832079,1,0.05
1755688797.5849752,9.817,-0.168,1.062,5.428408239299988,83.82666798822385,7.06952380952381,1,0.05
1755688797.6116679,9.817,-0.168,1.062,5.428408239299988,83.82666798822385,7.06952380952381,1,0.05
1755688797.638421,9.678,-0.247,1.024,5.449933506245741,83.96212983567358,7.076491228070174,1,0.05
1755688797.6650908,9.678,-0.247,1.024,5.449933506245741,83.96212983567358,7.076491228070174,1,0.05
1755688797.6917827,9.667,-0.175,0.969,5.471325474233826,84.2768416480033,7.077042606516291,1,0.05
1755688797.7183788,9.667,-0.175,0.969,5.471325474233826,84.2768416480033,7.077042606516291,1,0.05
1755688797.7452965,9.667,-0.175,0.969,5.471325474233826,84.2768416480033,7.077042606516291,1,0.05
1755688797.7721038,9.805,-0.211,1.029,5.493245625993798,84.01031811446124,7.083959899749374,1,0.05
1755688797.7986772,9.578,-0.252,1.055,5.514081312195169,83.71646578490197,7.09533834586466,1,0.05
1755688797.825102,9.578,-0.252,1.055,5.514081312195169,83.71646578490197,7.09533834586466,1,0.05
1755688797.8513894,9.893,-0.161,1.01,5.5362235630436745,84.17150003056149,7.11112781954887,1,0.05
1755688797.877416,9.893,-0.161,1.01,5.5362235630436745,84.17150003056149,7.11112781954887,1,0.05
1755688797.9042845,9.562,-0.247,1.036,5.556829217278501,83.81842492344778,7.127719298245614,1,0.05
1755688797.931118,9.562,-0.247,1.036,5.556829217278501,83.81842492344778,7.127719298245614,1,0.05
1755688797.958124,9.802,-0.113,0.943,5.578400215115441,84.50514246177681,7.139749373433584,1,0.05
1755688797.984643,9.802,-0.113,0.943,5.578400215115441,84.50514246177681,7.139749373433584,1,0.05
1755688798.0117211,9.802,-0.113,0.943,5.578400215115441,84.50514246177681,7.139749373433584,1,0.05
1755688798.0385787,9.762,-0.18,0.965,5.599713436417974,84.3554524325918,7.141754385964912,1,0.05
1755688798.0647538,9.762,-0.18,0.965,5.599713436417974,84.3554524325918,7.141754385964912,1,0.05
1755688798.0913725,9.695,-0.197,0.972,5.620655934363889,84.27595268682963,7.145112781954887,1,0.05
1755688798.1173003,9.695,-0.197,0.972,5.620655934363889,84.27595268682963,7.145112781954887,1,0.05
1755688798.1438577,9.781,-0.192,1.017,5.641891795754328,84.06501722289529,7.149423558897243,1,0.05
1755688798.1704857,9.612,-0.291,1.067,5.662324557547015,83.66857379836819,7.157894736842105,1,0.05
1755688798.1966057,9.612,-0.291,1.067,5.662324557547015,83.66857379836819,7.157894736842105,1,0.05
1755688798.2226548,9.612,-0.291,1.067,5.662324557547015,83.66857379836819,7.157894736842105,1,0.05
1755688798.2492425,9.807,-0.151,0.862,5.68351673856073,84.9774089488224,7.1676691729323325,1,0.05
1755688798.2758203,9.807,-0.151,0.862,5.68351673856073,84.9774089488224,7.1676691729323325,1,0.05
1755688798.3030424,9.709,-0.221,0.955,5.7042110953224725,84.38376905969199,7.172581453634084,1,0.05
1755688798.329229,9.709,-0.221,0.955,5.7042110953224725,84.38376905969199,7.172581453634084,1,0.05
1755688798.3557343,9.705,-0.151,1.036,5.724813689763188,83.90753387570491,7.172781954887218,1,0.05
1755688798.3823967,9.705,-0.151,1.036,5.724813689763188,83.90753387570491,7.172781954887218,1,0.05
1755688798.4090602,9.833,-0.171,1.131,5.74588648556513,83.43960797644833,7.179197994987469,1,0.05
1755688798.4354277,9.833,-0.171,1.131,5.74588648556513,83.43960797644833,7.179197994987469,1,0.05
1755688798.4618516,9.659,-0.233,1.038,5.7661470851427294,83.86804535066396,7.187919799498748,1,0.05
1755688798.4880476,9.659,-0.233,1.038,5.7661470851427294,83.86804535066396,7.187919799498748,1,0.05
1755688798.513925,9.783,-0.171,1.026,5.786857517686088,84.01385314673726,7.194135338345864,1,0.05
1755688798.5408592,9.783,-0.171,1.026,5.786857517686088,84.01385314673726,7.194135338345864,1,0.05
1755688798.5673285,9.585,-0.221,0.95,5.806668622583865,84.3412124202548,7.20406015037594,1,0.05
1755688798.5943167,9.585,-0.221,0.95,5.806668622583865,84.3412124202548,7.20406015037594,1,0.05
1755688798.6216085,9.585,-0.221,0.95,5.806668622583865,84.3412124202548,7.20406015037594,1,0.05
1755688798.648206,9.762,-0.221,0.984,5.827146995099746,84.24554798388544,7.212932330827067,1,0.05
1755688798.6742845,9.767,-0.223,1.0,5.847574524963321,84.15562106604882,7.2131829573934825,1,0.05
1755688798.701105,9.767,-0.223,1.0,5.847574524963321,84.15562106604882,7.2131829573934825,1,0.05
1755688798.7278686,9.75,-0.185,1.069,5.867860263758843,83.74414122923466,7.214035087719298,1,0.05
1755688798.7545047,9.75,-0.185,1.069,5.867860263758843,83.74414122923466,7.214035087719298,1,0.05
1755688798.7826002,9.807,-0.202,1.012,5.888312763220038,84.10965071407722,7.216892230576441,1,0.05
1755688798.8092408,9.807,-0.202,1.012,5.888312763220038,84.10965071407722,7.216892230576441,1,0.05
1755688798.835836,9.655,-0.216,1.076,5.9080686150382515,83.64249819866076,7.2245112781954886,1,0.05
1755688798.8622277,9.655,-0.216,1.076,5.9080686150382515,83.64249819866076,7.2245112781954886,1,0.05
1755688798.8883808,9.655,-0.216,1.076,5.9080686150382515,83.64249819866076,7.2245112781954886,1,0.05
1755688798.915222,9.826,-0.12,1.129,5.928461052414868,83.44598552302531,7.2330827067669174,1,0.05
1755688798.9421031,9.621,-0.202,1.043,5.947945826291629,83.81415507462619,7.243358395989974,1,0.05
1755688798.968601,9.621,-0.202,1.043,5.947945826291629,83.81415507462619,7.243358395989974,1,0.05
1755688798.995559,9.817,-0.183,1.126,5.968164983895804,83.45795228666648,7.2531829573934825,1,0.05
1755688799.0219395,9.817,-0.183,1.126,5.968164983895804,83.45795228666648,7.2531829573934825,1,0.05
1755688799.0482647,9.817,-0.183,1.126,5.968164983895804,83.45795228666648,7.2531829573934825,1,0.05
1755688799.0744135,9.781,-0.127,1.036,5.9881685996220915,83.95430097059248,7.254987468671678,1,0.05
1755688799.1008923,9.616,-0.247,1.091,6.007439705689937,83.52920327002057,7.263258145363409,1,0.05
1755688799.1272194,9.616,-0.247,1.091,6.007439705689937,83.52920327002057,7.263258145363409,1,0.05
1755688799.1534562,9.616,-0.247,1.091,6.007439705689937,83.52920327002057,7.263258145363409,1,0.05
1755688799.1800709,9.814,-0.108,0.95,6.027447080439612,84.47129989414431,7.273182957393484,1,0.05
1755688799.2070165,9.624,-0.243,1.057,6.046624822783369,83.73432965248702,7.282706766917293,1,0.05
1755688799.2333412,9.624,-0.243,1.057,6.046624822783369,83.73432965248702,7.282706766917293,1,0.05
1755688799.2598064,9.814,-0.163,1.015,6.066502966083508,84.0960616923044,7.292230576441103,1,0.05
1755688799.286677,9.814,-0.163,1.015,6.066502966083508,84.0960616923044,7.292230576441103,1,0.05
1755688799.3136082,9.814,-0.163,1.015,6.066502966083508,84.0960616923044,7.292230576441103,1,0.05
1755688799.3406515,9.719,-0.24,0.941,6.085935067021337,84.47149710470728,7.296992481203008,1,0.05
1755688799.36663,9.688,-0.202,1.015,6.105182143065021,84.02030074306104,7.2985463659147864,1,0.05
1755688799.3935137,9.688,-0.202,1.015,6.105182143065021,84.02030074306104,7.2985463659147864,1,0.05
1755688799.419691,9.81,-0.156,0.972,6.124854222755021,84.34216675029923,7.304661654135338,1,0.05
1755688799.4464839,9.81,-0.156,0.972,6.124854222755021,84.34216675029923,7.304661654135338,1,0.05
1755688799.4733322,9.686,-0.209,1.074,6.143971495702108,83.67425391780371,7.310877192982456,1,0.05
1755688799.499575,9.686,-0.209,1.074,6.143971495702108,83.67425391780371,7.310877192982456,1,0.05
1755688799.5259757,9.874,-0.142,1.034,6.163775257908095,84.02241932333334,7.3203007518796985,1,0.05
1755688799.5536268,9.874,-0.142,1.034,6.163775257908095,84.02241932333334,7.3203007518796985,1,0.05
1755688799.580367,9.645,-0.214,1.072,6.182611947429662,83.65940006309523,7.331779448621554,1,0.05
1755688799.606976,9.645,-0.214,1.072,6.182611947429662,83.65940006309523,7.331779448621554,1,0.05
1755688799.6336071,9.659,-0.137,1.11,6.201445895515012,83.44505294683192,7.332481203007519,1,0.05
1755688799.6607392,9.659,-0.137,1.11,6.201445895515012,83.44505294683192,7.332481203007519,1,0.05
1755688799.6869087,9.659,-0.137,1.11,6.201445895515012,83.44505294683192,7.332481203007519,1,0.05
1755688799.7135963,9.743,-0.197,1.034,6.220550322720651,83.94324815024984,7.336691729323308,1,0.05
1755688799.7402024,9.748,-0.279,1.064,6.239615779637397,83.77332123639897,7.3369423558897235,1,0.05
1755688799.7666025,9.748,-0.279,1.064,6.239615779637397,83.77332123639897,7.3369423558897235,1,0.05
1755688799.794518,9.748,-0.279,1.064,6.239615779637397,83.77332123639897,7.3369423558897235,1,0.05
1755688799.8215353,9.748,-0.279,1.064,6.239615779637397,83.77332123639897,7.3369423558897235,1,0.05
1755688799.8476777,9.774,-0.19,1.029,6.258724532003306,83.99120550816767,7.338245614035088,1,0.05
1755688799.8744433,9.688,-0.259,0.986,6.277441845807892,84.19077072808187,7.342556390977442,1,0.05
1755688799.9010816,9.688,-0.259,0.986,6.277441845807892,84.19077072808187,7.342556390977442,1,0.05
1755688799.9275982,9.688,-0.259,0.986,6.277441845807892,84.19077072808187,7.342556390977442,1,0.05
1755688799.9539018,9.688,-0.259,0.986,6.277441845807892,84.19077072808187,7.342556390977442,1,0.05
1755688799.9802148,9.688,-0.259,0.986,6.277441845807892,84.19077072808187,7.342556390977442,1,0.05
1755688800.006793,9.74,-0.19,0.974,6.296304084738919,84.29048590225096,7.34516290726817,1,0.05
1755688800.0330033,9.764,-0.264,1.114,6.315202638672808,83.49347880181377,7.346365914786967,1,0.05
1755688800.0597582,9.729,-0.231,1.045,6.333910164345561,83.8710314128596,7.348120300751879,1,0.05
1755688800.086005,9.802,-0.204,1.041,6.352843141460364,83.93905355980205,7.351779448621553,1,0.05
1755688800.1125607,9.802,-0.204,1.041,6.352843141460364,83.93905355980205,7.351779448621553,1,0.05
1755688800.1391513,9.657,-0.238,0.993,6.371166306297459,84.13085241380861,7.359047619047619,1,0.05
1755688800.1652822,9.657,-0.238,0.993,6.371166306297459,84.13085241380861,7.359047619047619,1,0.05
1755688800.1919806,9.814,-0.139,0.953,6.390034944544514,84.45416856515136,7.366917293233082,1,0.05
1755688800.2185574,9.814,-0.139,0.953,6.390034944544514,84.45416856515136,7.366917293233082,1,0.05
1755688800.2451825,9.75,-0.226,0.922,6.408603813819356,84.59938228488488,7.370125313283207,1,0.05
1755688800.2721496,9.75,-0.226,0.922,6.408603813819356,84.59938228488488,7.370125313283207,1,0.05
1755688800.2990844,9.652,-0.183,1.057,6.426749225113736,83.75150076477343,7.375037593984961,1,0.05
1755688800.3255916,9.652,-0.183,1.057,6.426749225113736,83.75150076477343,7.375037593984961,1,0.05
1755688800.3521638,9.812,-0.199,1.012,6.445447537797511,84.11259345802357,7.383057644110275,1,0.05
1755688800.3783417,9.812,-0.199,1.012,6.445447537797511,84.11259345802357,7.383057644110275,1,0.05
1755688800.4042146,9.64,-0.195,1.114,6.463444744290771,83.40946574573611,7.3916791979949865,1,0.05
1755688800.430944,9.64,-0.195,1.114,6.463444744290771,83.40946574573611,7.3916791979949865,1,0.05
1755688800.4573097,9.793,-0.175,1.01,6.4819653720920165,84.11255824490473,7.399348370927317,1,0.05
1755688800.48438,9.793,-0.175,1.01,6.4819653720920165,84.11255824490473,7.399348370927317,1,0.05
1755688800.5110157,9.624,-0.214,0.996,6.4998021912208985,84.09287135392111,7.40781954887218,1,0.05
1755688800.5378788,9.624,-0.214,0.996,6.4998021912208985,84.09287135392111,7.40781954887218,1,0.05
1755688800.5645998,9.79,-0.135,0.95,6.518208248821144,84.45802079015795,7.416140350877192,1,0.05
1755688800.5906951,9.79,-0.135,0.95,6.518208248821144,84.45802079015795,7.416140350877192,1,0.05
1755688800.6173286,9.709,-0.18,1.072,6.536260435256538,83.70039506802684,7.420200501253134,1,0.05
1755688800.6442277,9.709,-0.18,1.072,6.536260435256538,83.70039506802684,7.420200501253134,1,0.05
1755688800.6710062,9.645,-0.202,1.048,6.554026666103823,83.80007085761575,7.423408521303257,1,0.05
1755688800.69805,9.645,-0.202,1.048,6.554026666103823,83.80007085761575,7.423408521303257,1,0.05
1755688800.724267,9.769,-0.185,1.017,6.5722027466063455,84.05770022011971,7.429624060150376,1,0.05
1755688800.750652,9.769,-0.185,1.017,6.5722027466063455,84.05770022011971,7.429624060150376,1,0.05
1755688800.7772236,9.771,-0.142,1.01,6.590336110169193,84.09907904373053,7.429724310776941,1,0.05
1755688800.804161,9.771,-0.142,1.01,6.590336110169193,84.09907904373053,7.429724310776941,1,0.05
1755688800.831147,9.852,-0.183,1.043,6.608720360629583,83.95782198624828,7.433784461152882,1,0.05
1755688800.8579204,9.852,-0.183,1.043,6.608720360629583,83.95782198624828,7.433784461152882,1,0.05
1755688800.884529,9.757,-0.231,1.017,6.626702228673022,84.05104023362894,7.438546365914786,1,0.05
1755688800.9110034,9.757,-0.231,1.017,6.626702228673022,84.05104023362894,7.438546365914786,1,0.05
1755688800.937332,9.686,-0.166,1.064,6.644375735725667,83.73214785378731,7.4421052631578934,1,0.05
1755688800.9635093,9.686,-0.166,1.064,6.644375735725667,83.73214785378731,7.4421052631578934,1,0.05
1755688800.990219,9.674,-0.168,1.064,6.661958766571585,83.72445944521567,7.442706766917292,1,0.05
1755688801.0167286,9.674,-0.168,1.064,6.661958766571585,83.72445944521567,7.442706766917292,1,0.05
1755688801.0441668,9.645,-0.192,1.022,6.67939066607127,83.95260475085618,7.444160401002506,1,0.05
1755688801.0713468,9.645,-0.192,1.022,6.67939066607127,83.95260475085618,7.444160401002506,1,0.05
1755688801.0988657,9.872,-0.18,1.119,6.697604096242178,83.53414027239405,7.4555388471177935,1,0.05
1755688801.1251028,9.872,-0.18,1.119,6.697604096242178,83.53414027239405,7.4555388471177935,1,0.05
1755688801.1517866,9.671,-0.25,0.998,6.715036949451582,84.11016423868202,7.465614035087719,1,0.05
1755688801.1779377,9.671,-0.25,0.998,6.715036949451582,84.11016423868202,7.465614035087719,1,0.05
1755688801.204469,9.671,-0.25,0.998,6.715036949451582,84.11016423868202,7.465614035087719,1,0.05
1755688801.2311409,9.671,-0.25,0.998,6.715036949451582,84.11016423868202,7.465614035087719,1,0.05
1755688801.257605,9.671,-0.25,0.998,6.715036949451582,84.11016423868202,7.465614035087719,1,0.05
1755688801.2845473,9.671,-0.25,0.998,6.715036949451582,84.11016423868202,7.465614035087719,1,0.05
1755688801.311295,9.671,-0.25,0.998,6.715036949451582,84.11016423868202,7.465614035087719,1,0.05
1755688801.337225,9.671,-0.25,0.998,6.715036949451582,84.11016423868202,7.465614035087719,1,0.05
1755688801.363796,9.671,-0.25,0.998,6.715036949451582,84.11016423868202,7.465614035087719,1,0.05
1755688801.3906372,9.671,-0.25,0.998,6.715036949451582,84.11016423868202,7.465614035087719,1,0.05
1755688801.4173627,9.903,-0.204,1.053,6.733267762015706,83.93174274122539,7.477243107769424,1,0.05
1755688801.443659,9.726,-0.161,0.969,6.750806058908817,84.31117948368403,7.486115288220551,1,0.05
1755688801.4698818,9.643,-0.214,0.984,6.768001999667258,84.17496232392672,7.490275689223058,1,0.05
1755688801.4968684,9.779,-0.163,1.079,6.785640954987229,83.70440805512258,7.497092731829574,1,0.05
1755688801.5235863,9.657,-0.25,1.131,6.802798489776101,83.3223309885011,7.503208020050125,1,0.05
1755688801.5501807,9.817,-0.171,1.086,6.820483928212132,83.68830433254804,7.511228070175438,1,0.05
1755688801.5767896,9.662,-0.19,1.045,6.837571690666212,83.82831576016719,7.518997493734335,1,0.05
1755688801.6030283,9.752,-0.125,1.029,6.854935476355704,83.97711121221822,7.523508771929824,1,0.05
1755688801.6292143,9.674,-0.144,1.091,6.871979778419025,83.56627539944573,7.527418546365913,1,0.05
1755688801.6563241,9.674,-0.144,1.091,6.871979778419025,83.56627539944573,7.527418546365913,1,0.05
1755688801.6831634,9.676,-0.24,0.991,6.888988932709937,84.15403588794359,7.5275187969924815,1,0.05
1755688801.7099745,9.676,-0.24,0.991,6.888988932709937,84.15403588794359,7.5275187969924815,1,0.05
1755688801.7358172,9.833,-0.178,1.081,6.906510568840099,83.72734806303016,7.535388471177943,1,0.05
1755688801.7627187,9.833,-0.178,1.081,6.906510568840099,83.72734806303016,7.535388471177943,1,0.05
1755688801.7891963,9.659,-0.233,1.124,6.923375545209143,83.3643625064504,7.5441102756892215,1,0.05
1755688801.8153856,9.659,-0.233,1.124,6.923375545209143,83.3643625064504,7.5441102756892215,1,0.05
1755688801.8425057,9.805,-0.199,1.083,6.940711347009037,83.69829728409057,7.55142857142857,1,0.05
1755688801.8688476,9.805,-0.199,1.083,6.940711347009037,83.69829728409057,7.55142857142857,1,0.05
1755688801.8954785,9.769,-0.221,1.105,6.95787736346366,83.54817430467916,7.553233082706766,1,0.05
1755688801.9221566,9.769,-0.221,1.105,6.95787736346366,83.54817430467916,7.553233082706766,1,0.05
1755688801.9483209,9.769,-0.221,1.105,6.95787736346366,83.54817430467916,7.553233082706766,1,0.05
1755688801.9747798,9.688,-0.173,1.081,6.974718687158645,83.63420273017002,7.557293233082706,1,0.05
1755688802.0012572,9.688,-0.173,1.081,6.974718687158645,83.63420273017002,7.557293233082706,1,0.05
1755688802.027643,9.838,-0.154,0.929,6.992043075882756,84.6062261222717,7.5648120300751875,1,0.05
1755688802.0538442,9.838,-0.154,0.929,6.992043075882756,84.6062261222717,7.5648120300751875,1,0.05
1755688802.079998,9.65,-0.216,1.01,7.0086712453217554,84.02647920872944,7.57423558897243,1,0.05
1755688802.1063309,9.65,-0.216,1.01,7.0086712453217554,84.02647920872944,7.57423558897243,1,0.05
1755688802.133149,9.876,-0.199,1.1,7.026045193777222,83.64580593397365,7.585563909774435,1,0.05
1755688802.1598184,9.876,-0.199,1.1,7.026045193777222,83.64580593397365,7.585563909774435,1,0.05
1755688802.186459,9.705,-0.168,1.091,7.042782023284549,83.58690294357653,7.594135338345866,1,0.05
1755688802.2132921,9.705,-0.168,1.091,7.042782023284549,83.58690294357653,7.594135338345866,1,0.05
1755688802.2396588,9.667,-0.219,0.974,7.059348826202031,84.24803768233103,7.596040100250626,1,0.05
1755688802.2658584,9.667,-0.219,0.974,7.059348826202031,84.24803768233103,7.596040100250626,1,0.05
1755688802.2927673,9.74,-0.216,1.095,7.076127108100872,83.587133653371,7.5996992481203005,1,0.05
1755688802.3195798,9.74,-0.216,1.095,7.076127108100872,83.587133653371,7.5996992481203005,1,0.05
1755688802.3466136,9.688,-0.231,1.055,7.092687657721859,83.78686851548296,7.602305764411027,1,0.05
1755688802.3730636,9.688,-0.231,1.055,7.092687657721859,83.78686851548296,7.602305764411027,1,0.05
1755688802.4001415,9.752,-0.125,1.133,7.109428385601757,83.37355222202973,7.605513784461151,1,0.05
1755688802.4264503,9.752,-0.125,1.133,7.109428385601757,83.37355222202973,7.605513784461151,1,0.05
1755688802.4526458,9.752,-0.125,1.133,7.109428385601757,83.37355222202973,7.605513784461151,1,0.05
1755688802.4793935,9.752,-0.125,1.133,7.109428385601757,83.37355222202973,7.605513784461151,1,0.05
1755688802.5059214,9.752,-0.125,1.133,7.109428385601757,83.37355222202973,7.605513784461151,1,0.05
1755688802.5326228,9.752,-0.125,1.133,7.109428385601757,83.37355222202973,7.605513784461151,1,0.05
1755688802.559459,9.652,-0.226,1.017,7.125789411005632,83.98675908995037,7.610526315789472,1,0.05
1755688802.5861444,9.8,-0.257,0.996,7.142616798484992,84.19878482608384,7.6179448621553885,1,0.05
1755688802.6124554,9.769,-0.24,1.036,7.159298717926219,83.94823571557836,7.619498746867166,1,0.05
1755688802.6388404,9.674,-0.207,1.133,7.175620100207368,83.32157618994376,7.624260651629072,1,0.05
1755688802.665191,9.802,-0.159,1.112,7.192337716799733,83.52852533005895,7.630676691729322,1,0.05
1755688802.6916425,9.802,-0.159,1.112,7.192337716799733,83.52852533005895,7.630676691729322,1,0.05
1755688802.718373,9.631,-0.19,1.019,7.208440346912776,83.96150380558524,7.639248120300753,1,0.05
1755688802.7455785,9.631,-0.19,1.019,7.208440346912776,83.96150380558524,7.639248120300753,1,0.05
1755688802.7722018,9.867,-0.168,1.057,7.225303208689583,83.8864009875767,7.651077694235588,1,0.05
1755688802.7986357,9.867,-0.168,1.057,7.225303208689583,83.8864009875767,7.651077694235588,1,0.05
1755688802.8258846,9.674,-0.178,1.022,7.241475826618495,83.97042677345462,7.660751879699249,1,0.05
1755688802.8527732,9.674,-0.178,1.022,7.241475826618495,83.97042677345462,7.660751879699249,1,0.05
1755688802.8798707,9.674,-0.178,1.022,7.241475826618495,83.97042677345462,7.660751879699249,1,0.05
1755688802.9065955,9.698,-0.195,1.083,7.257692481601849,83.62931382236901,7.6619548872180445,1,0.05
1755688802.9327645,9.771,-0.195,1.079,7.274117215167762,83.69967124496931,7.665614035087719,1,0.05
1755688802.9594889,9.771,-0.195,1.079,7.274117215167762,83.69967124496931,7.665614035087719,1,0.05
1755688802.9870465,9.771,-0.195,1.079,7.274117215167762,83.69967124496931,7.665614035087719,1,0.05
1755688803.0137143,9.645,-0.207,1.045,7.290085481151781,83.81774851156364,7.671929824561404,1,0.05
1755688803.0410533,9.869,-0.125,0.988,7.306766673775754,84.28353944493709,7.6831578947368415,1,0.05
1755688803.0676286,9.869,-0.125,0.988,7.306766673775754,84.28353944493709,7.6831578947368415,1,0.05
1755688803.0938456,9.669,-0.204,1.081,7.32274286913722,83.6221958362128,7.693182957393484,1,0.05
1755688803.1203833,9.669,-0.204,1.081,7.32274286913722,83.6221958362128,7.693182957393484,1,0.05
1755688803.1472607,9.669,-0.204,1.081,7.32274286913722,83.6221958362128,7.693182957393484,1,0.05
1755688803.173632,9.807,-0.151,1.107,7.3391420649828,83.56055243282658,7.700100250626566,1,0.05
1755688803.200082,9.807,-0.151,1.107,7.3391420649828,83.56055243282658,7.700100250626566,1,0.05
1755688803.2267656,9.736,-0.243,1.0,7.35526889311329,84.13743736182498,7.703659147869675,1,0.05
1755688803.2533243,9.695,-0.132,1.093,7.3712253426753955,83.56830907105471,7.7057142857142855,1,0.05
1755688803.279769,9.695,-0.132,1.093,7.3712253426753955,83.56830907105471,7.7057142857142855,1,0.05
1755688803.3066704,9.74,-0.178,1.005,7.387295313746432,84.1098882296331,7.707969924812029,1,0.05
1755688803.333813,9.74,-0.178,1.005,7.387295313746432,84.1098882296331,7.707969924812029,1,0.05
1755688803.360536,9.74,-0.178,1.005,7.387295313746432,84.1098882296331,7.707969924812029,1,0.05
1755688803.3878298,9.614,-0.231,1.057,7.40291865026896,83.72767711840936,7.7142857142857135,1,0.05
1755688803.4148657,9.874,-0.132,1.174,7.419362791540794,83.22007192119301,7.727318295739348,1,0.05
1755688803.4419167,9.874,-0.132,1.174,7.419362791540794,83.22007192119301,7.727318295739348,1,0.05
1755688803.4683533,9.874,-0.132,1.174,7.419362791540794,83.22007192119301,7.727318295739348,1,0.05
1755688803.4953072,9.676,-0.209,1.034,7.435119815611581,83.90179863272766,7.737243107769423,1,0.05
1755688803.522884,9.755,-0.12,1.093,7.451101041792414,83.6074320360263,7.741203007518797,1,0.05
1755688803.5495043,9.755,-0.12,1.093,7.451101041792414,83.6074320360263,7.741203007518797,1,0.05
1755688803.5759995,9.752,-0.25,1.102,7.467038267948009,83.55488543458563,7.7413533834586445,1,0.05
1755688803.6027832,9.752,-0.25,1.102,7.467038267948009,83.55488543458563,7.7413533834586445,1,0.05
1755688803.6293387,9.752,-0.25,1.102,7.467038267948009,83.55488543458563,7.7413533834586445,1,0.05
1755688803.656514,9.671,-0.197,1.003,7.482678738092396,84.08012104431195,7.745413533834586,1,0.05
1755688803.683538,9.869,-0.125,0.991,7.498931523890588,84.26629725060684,7.755338345864662,1,0.05
1755688803.7105925,9.869,-0.125,0.991,7.498931523890588,84.26629725060684,7.755338345864662,1,0.05
1755688803.737281,9.869,-0.125,0.991,7.498931523890588,84.26629725060684,7.755338345864662,1,0.05
1755688803.7635827,9.869,-0.125,0.991,7.498931523890588,84.26629725060684,7.755338345864662,1,0.05
1755688803.7900395,9.688,-0.223,1.017,7.514560357066807,84.00888635680143,7.764411027568922,1,0.05
1755688803.8168268,9.576,-0.223,1.19,7.529798589603841,82.91812637687899,7.770025062656641,1,0.05
1755688803.8437872,9.638,-0.207,1.072,7.545203404150215,83.65473495056847,7.7731328320802,1,0.05
1755688803.8703117,9.638,-0.207,1.072,7.545203404150215,83.65473495056847,7.7731328320802,1,0.05
1755688803.8968804,9.738,-0.209,1.003,7.560897170309883,84.12069837209717,7.7781453634085205,1,0.05
1755688803.9233918,9.738,-0.209,1.003,7.560897170309883,84.12069837209717,7.7781453634085205,1,0.05
1755688803.950427,9.738,-0.209,1.003,7.560897170309883,84.12069837209717,7.7781453634085205,1,0.05
1755688803.9772325,9.755,-0.187,1.05,7.576613101016839,83.85762059734849,7.778997493734335,1,0.05
1755688804.004286,9.755,-0.187,1.05,7.576613101016839,83.85762059734849,7.778997493734335,1,0.05
1755688804.0306945,9.569,-0.238,1.133,7.591704715345559,83.24950438790992,7.788320802005012,1,0.05
1755688804.0569625,9.569,-0.238,1.133,7.591704715345559,83.24950438790992,7.788320802005012,1,0.05
1755688804.0832832,10.57,0.817,0.264,7.610078365890853,88.57351121531697,7.838496240601503,1,0.05
1755688804.1099036,8.973,-0.574,3.792,7.62329191081517,67.13294449914268,7.9185463659147866,1,0.05
1755688804.1360786,8.973,-0.574,3.792,7.62329191081517,67.13294449914268,7.9185463659147866,1,0.05
1755688804.163012,8.973,-0.574,3.792,7.62329191081517,67.13294449914268,7.9185463659147866,1,0.05
1755688804.1898186,8.973,-0.574,3.792,7.62329191081517,67.13294449914268,7.9185463659147866,1,0.05
1755688804.2161646,9.543,0.454,1.533,7.638209978784297,80.88403645117776,7.947117794486215,1,0.05
1755688804.2429233,9.395,-0.973,2.402,7.652641161226626,75.73169776877454,7.95453634085213,1,0.05
1755688804.2700331,9.395,-0.973,2.402,7.652641161226626,75.73169776877454,7.95453634085213,1,0.05
1755688804.2974076,9.371,0.022,1.238,7.666971751937005,82.47427254974914,7.955739348370928,1,0.05
1755688804.3241796,9.371,0.022,1.238,7.666971751937005,82.47427254974914,7.955739348370928,1,0.05
1755688804.3508906,10.036,-0.187,0.575,7.683375500715814,86.72146303180836,7.989072681704259,1,0.05
1755688804.377389,10.036,-0.187,0.575,7.683375500715814,86.72146303180836,7.989072681704259,1,0.05
1755688804.404251,9.984,-0.281,1.418,7.699575295105568,81.91965925665677,7.991679197994987,1,0.05
1755688804.430832,9.984,-0.281,1.418,7.699575295105568,81.91965925665677,7.991679197994987,1,0.05
1755688804.4571657,9.597,0.582,-3.65,7.71451331890094,110.78825152643613,8.011077694235588,1,0.05
1755688804.4840808,9.597,0.582,-3.65,7.71451331890094,110.78825152643613,8.011077694235588,1,0.05
1755688804.5108473,9.729,-0.255,0.23,7.729835014410075,88.646206859366,8.017694235588971,1,0.05
1755688804.5375886,9.729,-0.255,0.23,7.729835014410075,88.646206859366,8.017694235588971,1,0.05
1755688804.5648942,9.645,0.565,-0.801,7.7448637439596055,94.73933009977816,8.02190476190476,1,0.05
1755688804.5915282,9.645,0.565,-0.801,7.7448637439596055,94.73933009977816,8.02190476190476,1,0.05
1755688804.6185458,9.45,-0.175,-1.124,7.759263538667828,96.78184424641974,8.031679197994988,1,0.05
1755688804.6452017,9.45,-0.175,-1.124,7.759263538667828,96.78184424641974,8.031679197994988,1,0.05
1755688804.673022,10.089,0.147,0.775,7.775644054674828,85.60783896842169,8.063709273182956,1,0.05
1755688804.6994047,10.089,0.147,0.775,7.775644054674828,85.60783896842169,8.063709273182956,1,0.05
1755688804.7265015,10.003,-0.024,0.679,7.7917129366718845,86.11675139570353,8.068020050125313,1,0.05
1755688804.7541008,10.003,-0.024,0.679,7.7917129366718845,86.11675139570353,8.068020050125313,1,0.05
1755688804.7814205,10.744,0.058,1.404,7.810209621226565,82.55502074774975,8.10516290726817,1,0.05
1755688804.8087838,10.744,0.058,1.404,7.810209621226565,82.55502074774975,8.10516290726817,1,0.05
1755688804.835382,9.667,0.127,1.226,7.825151854756557,82.77276860480747,8.159147869674186,1,0.05
1755688804.861808,9.667,0.127,1.226,7.825151854756557,82.77276860480747,8.159147869674186,1,0.05
1755688804.888487,10.0,-0.675,0.542,7.841109714192245,86.90463415399822,8.175839598997493,1,0.05
1755688804.9154382,10.0,-0.675,0.542,7.841109714192245,86.90463415399822,8.175839598997493,1,0.05
1755688804.9422786,9.831,-0.805,0.435,7.85650195395508,87.4748813880465,8.184310776942354,1,0.05
1755688804.9693565,9.831,-0.805,0.435,7.85650195395508,87.4748813880465,8.184310776942354,1,0.05
1755688804.995831,9.831,-0.805,0.435,7.85650195395508,87.4748813880465,8.184310776942354,1,0.05
1755688805.0227368,9.745,-0.243,1.012,7.871596757647079,84.07302187439495,8.188621553884712,1,0.05
1755688805.0503109,9.681,0.027,0.285,7.886465616326492,88.31375696326057,8.191829573934838,1,0.05
1755688805.0770051,9.681,0.027,0.285,7.886465616326492,88.31375696326057,8.191829573934838,1,0.05
1755688805.1034787,9.888,0.32,2.286,7.901947309208028,76.98911255868032,8.202205513784461,1,0.05
1755688805.130736,9.888,0.32,2.286,7.901947309208028,76.98911255868032,8.202205513784461,1,0.05
1755688805.1577656,9.74,-0.413,1.338,7.916940082980292,82.18507578176079,8.209624060150375,1,0.05
1755688805.184638,9.74,-0.413,1.338,7.916940082980292,82.18507578176079,8.209624060150375,1,0.05
1755688805.2118096,9.74,-0.413,1.338,7.916940082980292,82.18507578176079,8.209624060150375,1,0.05
1755688805.2386525,9.838,-0.122,0.846,7.932206873720578,85.08542625398061,8.21453634085213,1,0.05
1755688805.2656593,10.325,-0.298,0.511,7.948988611766908,87.16783375406193,8.238947368421051,1,0.05
1755688805.2927694,10.325,-0.298,0.511,7.948988611766908,87.16783375406193,8.238947368421051,1,0.05
1755688805.3200293,7.788,-0.178,-3.134,7.958520736292644,111.91536212909067,8.366115288220552,1,0.05
1755688805.3468704,7.788,-0.178,-3.134,7.958520736292644,111.91536212909067,8.366115288220552,1,0.05
1755688805.373559,9.867,-0.183,-1.818,7.97379749758545,100.43793667081965,8.470325814536341,1,0.05
1755688805.4008389,9.867,-0.183,-1.818,7.97379749758545,100.43793667081965,8.470325814536341,1,0.05
1755688805.42737,9.221,-0.221,-2.74,7.987115476503391,106.54471058827619,8.502706766917292,1,0.05
1755688805.4538975,9.221,-0.221,-2.74,7.987115476503391,106.54471058827619,8.502706766917292,1,0.05
1755688805.4808385,10.47,-0.149,-2.421,8.00425298731868,103.01852000493713,8.565313283208019,1,0.05
1755688805.5078895,10.47,-0.149,-2.421,8.00425298731868,103.01852000493713,8.565313283208019,1,0.05
1755688805.5349603,13.076,-0.269,-1.78,8.03091030487827,97.75024937155183,8.69593984962406,1,0.05
1755688805.562001,13.076,-0.269,-1.78,8.03091030487827,97.75024937155183,8.69593984962406,1,0.05
1755688805.5897374,8.234,-1.262,-1.02,8.04145616259891,96.9809328914997,8.938646616541352,1,0.05
1755688805.6160784,8.234,-1.262,-1.02,8.04145616259891,96.9809328914997,8.938646616541352,1,0.05
1755688805.643226,8.861,-0.875,-3.709,8.053651998782913,112.61415989899598,8.970075187969925,1,0.05
1755688805.6697936,8.861,-0.875,-3.709,8.053651998782913,112.61415989899598,8.970075187969925,1,0.05
1755688805.6970212,11.405,-1.197,-2.2,8.073815428903487,100.85991202082899,9.097593984962405,1,0.05
1755688805.7239141,11.405,-1.197,-2.2,8.073815428903487,100.85991202082899,9.097593984962405,1,0.05
1755688805.7509596,11.211,-2.059,-2.906,8.09325100824755,104.30262684570391,9.107318295739347,1,0.05
1755688805.778217,11.211,-2.059,-2.906,8.09325100824755,104.30262684570391,9.107318295739347,1,0.05
1755688805.804852,8.558,-3.722,-1.637,8.104554910203275,99.94911759276432,9.2403007518797,1,0.05
1755688805.8314493,8.558,-3.722,-1.637,8.104554910203275,99.94911759276432,9.2403007518797,1,0.05
1755688805.858093,5.928,-4.576,-2.362,8.109973073475645,107.50567125034425,9.372130325814535,1,0.05
1755688805.8850694,5.928,-4.576,-2.362,8.109973073475645,107.50567125034425,9.372130325814535,1,0.05
1755688805.9121451,5.189,-3.583,-1.39,8.114122106241686,102.43094939239997,9.409172932330828,1,0.05
1755688805.9400973,5.189,-3.583,-1.39,8.114122106241686,102.43094939239997,9.409172932330828,1,0.05
1755688805.9670367,6.293,-3.114,0.836,8.120220574436386,83.20998480446752,9.464511278195486,1,0.05
1755688805.9943492,6.293,-3.114,0.836,8.120220574436386,83.20998480446752,9.464511278195486,1,0.05
1755688806.0210521,6.848,-1.793,5.579,8.127436246289477,51.75751941253037,9.492330827067669,1,0.05
1755688806.0484278,6.848,-1.793,5.579,8.127436246289477,51.75751941253037,9.492330827067669,1,0.05
1755688806.0753691,8.234,-1.288,9.046,8.137857016899474,42.6545375318308,9.561804511278194,1,0.05
1755688806.1023035,8.234,-1.288,9.046,8.137857016899474,42.6545375318308,9.561804511278194,1,0.05
1755688806.1292782,8.663,-2.273,7.86,8.149376402523078,48.7297737373934,9.58330827067669,1,0.05
1755688806.1564372,8.663,-2.273,7.86,8.149376402523078,48.7297737373934,9.58330827067669,1,0.05
1755688806.1835935,7.506,-2.076,6.518,8.158013596458392,50.07234528093785,9.641303258145362,1,0.05
1755688806.211019,7.506,-2.076,6.518,8.158013596458392,50.07234528093785,9.641303258145362,1,0.05
1755688806.2384899,6.665,-1.785,3.74,8.164817291434021,61.54063289272326,9.683458646616542,1,0.05
1755688806.2653093,6.665,-1.785,3.74,8.164817291434021,61.54063289272326,9.683458646616542,1,0.05
1755688806.2924652,12.43,-2.192,-1.892,8.18843719231576,98.52512918843534,9.972431077694235,1,0.05
1755688806.3195622,12.43,-2.192,-1.892,8.18843719231576,98.52512918843534,9.972431077694235,1,0.05
1755688806.3466365,11.188,-1.324,-1.395,8.207522891378373,97.05861456946268,10.03468671679198,1,0.05
1755688806.3733563,11.188,-1.324,-1.395,8.207522891378373,97.05861456946268,10.03468671679198,1,0.05
1755688806.400799,11.037,-1.884,-3.301,8.226054366158785,106.42659741138608,10.042255639097743,1,0.05
1755688806.4277449,11.037,-1.884,-3.301,8.226054366158785,106.42659741138608,10.042255639097743,1,0.05
1755688806.4550614,9.564,-2.331,-2.16,8.23994209172613,102.37592322190416,10.116090225563909,1,0.05
1755688806.482285,9.564,-2.331,-2.16,8.23994209172613,102.37592322190416,10.116090225563909,1,0.05
1755688806.5100327,7.843,-3.653,-0.204,8.249268288612027,91.35069086108741,10.202355889724311,1,0.05
1755688806.53697,7.843,-3.653,-0.204,8.249268288612027,91.35069086108741,10.202355889724311,1,0.05
1755688806.5640504,7.95,-4.33,-0.794,8.25883972162555,95.01250702058113,10.207719298245614,1,0.05
1755688806.5911152,7.95,-4.33,-0.794,8.25883972162555,95.01250702058113,10.207719298245614,1,0.05
1755688806.6180403,8.217,-4.977,-0.627,8.269052622277838,93.73420559276289,10.22110275689223,1,0.05
1755688806.6453567,8.217,-4.977,-0.627,8.269052622277838,93.73420559276289,10.22110275689223,1,0.05
1755688806.672742,9.471,-6.277,0.777,8.282601093406587,86.08795395715563,10.283959899749371,1,0.05
1755688806.6997304,9.471,-6.277,0.777,8.282601093406587,86.08795395715563,10.283959899749371,1,0.05
1755688806.7272081,8.489,-3.557,0.986,8.293469640325453,83.88543846289468,10.333182957393483,1,0.05
1755688806.7542489,8.489,-3.557,0.986,8.293469640325453,83.88543846289468,10.333182957393483,1,0.05
1755688806.781013,8.529,-3.857,0.252,8.304426426761815,88.45788790744159,10.335187969924812,1,0.05
1755688806.8082614,8.529,-3.857,0.252,8.304426426761815,88.45788790744159,10.335187969924812,1,0.05
1755688806.8347888,9.299,-4.21,-5.653,8.31743210251818,118.97777068038147,10.37378446115288,1,0.05
1755688806.8611536,9.299,-4.21,-5.653,8.31743210251818,118.97777068038147,10.37378446115288,1,0.05
1755688806.8883278,8.167,-1.48,-3.26,8.327450180127167,111.44342377226579,10.430526315789473,1,0.05
1755688806.9155233,8.167,-1.48,-3.26,8.327450180127167,111.44342377226579,10.430526315789473,1,0.05
1755688806.942507,16.626,1.98,-6.87,8.368840193987456,112.3087770150071,10.854536340852128,1,0.05
1755688806.9693384,16.626,1.98,-6.87,8.368840193987456,112.3087770150071,10.854536340852128,1,0.05
1755688806.9959555,7.378,2.257,-5.696,8.376966837853663,126.43675386141194,11.318095238095239,1,0.05
1755688807.0230072,7.378,2.257,-5.696,8.376966837853663,126.43675386141194,11.318095238095239,1,0.05
1755688807.0501099,9.829,0.945,8.659,8.391370359184489,48.75180191894767,11.44095238095238,1,0.05
1755688807.0767462,9.829,0.945,8.659,8.391370359184489,48.75180191894767,11.44095238095238,1,0.05
1755688807.103897,5.389,-1.636,4.462,8.395695314117825,51.610968199662885,11.663508771929823,1,0.05
1755688807.1313376,5.389,-1.636,4.462,8.395695314117825,51.610968199662885,11.663508771929823,1,0.05
1755688807.15988,6.538,-3.91,7.547,8.402057094396586,45.268153533121335,11.72110275689223,1,0.05
1755688807.1869583,6.538,-3.91,7.547,8.402057094396586,45.268153533121335,11.72110275689223,1,0.05
1755688807.2137716,13.46,0.798,2.148,8.42896745856217,80.94859707744223,12.068070175438596,1,0.05
1755688807.2413235,13.46,0.798,2.148,8.42896745856217,80.94859707744223,12.068070175438596,1,0.05
1755688807.2681763,10.673,0.774,1.079,8.445843636961317,84.2422448669642,12.207769423558897,1,0.05
1755688807.2955656,10.673,0.774,1.079,8.445843636961317,84.2422448669642,12.207769423558897,1,0.05
1755688807.3231127,10.47,2.68,4.581,8.462052173675131,67.0293666075286,12.217944862155386,1,0.05
1755688807.350499,10.47,2.68,4.581,8.462052173675131,67.0293666075286,12.217944862155386,1,0.05
1755688807.3775618,9.521,3.427,-1.008,8.475432177328775,95.68873916233197,12.265513784461154,1,0.05
1755688807.4045482,9.521,3.427,-1.008,8.475432177328775,95.68873916233197,12.265513784461154,1,0.05
1755688807.4323523,5.358,2.511,-1.925,8.479665146838052,108.02088053268564,12.474185463659145,1,0.05
1755688807.4595175,9.774,2.692,-1.355,8.493735850172174,97.61282237955449,12.695538847117794,1,0.05
1755688807.4866524,9.774,2.692,-1.355,8.493735850172174,97.61282237955449,12.695538847117794,1,0.05
1755688807.513515,9.774,2.692,-1.355,8.493735850172174,97.61282237955449,12.695538847117794,1,0.05
1755688807.541411,9.774,2.692,-1.355,8.493735850172174,97.61282237955449,12.695538847117794,1,0.05
1755688807.5686212,11.755,1.002,1.635,8.514047143104154,82.10979753821465,12.794837092731829,1,0.05
1755688807.5956304,6.233,-0.988,-4.082,8.519749085360436,122.89582853142741,13.071629072681704,1,0.05
1755688807.6226583,0.526,-1.028,-12.851,8.519789678595359,174.86534939502783,13.357694235588971,1,0.05
1755688807.6496608,0.526,-1.028,-12.851,8.519789678595359,174.86534939502783,13.357694235588971,1,0.05
1755688807.67665,19.198,11.405,-19.454,8.57369373009673,131.06229471201695,14.293634085213032,1,0.05
1755688807.7040734,19.198,11.405,-19.454,8.57369373009673,131.06229471201695,14.293634085213032,1,0.05
1755688807.7313879,8.994,-0.183,-0.708,8.585479268363532,94.50006546258845,14.805112781954886,1,0.05
1755688807.7592452,8.994,-0.183,-0.708,8.585479268363532,94.50006546258845,14.805112781954886,1,0.05
1755688807.7865732,9.721,-0.115,0.463,8.599226643716284,87.27331944621787,14.841553884711779,1,0.05
1755688807.8136752,9.721,-0.115,0.463,8.599226643716284,87.27331944621787,14.841553884711779,1,0.05
1755688807.8411353,9.838,-0.048,0.463,8.613284186650294,87.3055426374294,14.847418546365912,1,0.05
1755688807.8685064,9.838,-0.048,0.463,8.613284186650294,87.3055426374294,14.847418546365912,1,0.05
1755688807.8964355,9.64,-0.149,0.63,8.626760022163593,86.26132874511603,14.85734335839599,1,0.05
1755688807.923836,9.64,-0.149,0.63,8.626760022163593,86.26132874511603,14.85734335839599,1,0.05
1755688807.95181,9.938,-0.01,0.589,8.641058852362944,86.60819417038412,14.872280701754384,1,0.05
1755688807.979088,9.938,-0.01,0.589,8.641058852362944,86.60819417038412,14.872280701754384,1,0.05
1755688808.0071275,9.938,-0.01,0.589,8.641058852362944,86.60819417038412,14.872280701754384,1,0.05
1755688808.035161,9.795,-0.072,0.542,8.654926524962532,86.83289032691684,14.879448621553886,1,0.05
1755688808.0620062,9.814,-0.06,0.63,8.668825736078675,86.32706248884753,14.880401002506268,1,0.05
1755688808.0892718,9.814,-0.06,0.63,8.668825736078675,86.32706248884753,14.880401002506268,1,0.05
1755688808.116432,9.745,-0.077,0.523,8.682508405121185,86.92806163055569,14.883859649122806,1,0.05
1755688808.143745,9.745,-0.077,0.523,8.682508405121185,86.92806163055569,14.883859649122806,1,0.05
1755688808.1708822,9.745,-0.077,0.523,8.682508405121185,86.92806163055569,14.883859649122806,1,0.05
1755688808.1983373,9.597,-0.098,0.577,8.695758059393098,86.55952909415676,14.891278195488724,1,0.05
1755688808.2255936,9.597,-0.098,0.577,8.695758059393098,86.55952909415676,14.891278195488724,1,0.05
1755688808.2528837,9.833,-0.101,0.615,8.709645684527011,86.42131457626036,14.90310776942356,1,0.05
1755688808.2804172,9.776,-0.149,0.575,8.723351041314341,86.6342729129511,14.905964912280703,1,0.05
1755688808.3077655,9.776,-0.149,0.575,8.723351041314341,86.6342729129511,14.905964912280703,1,0.05
1755688808.3347285,9.795,-0.086,0.644,8.737088099160957,86.23848540137747,14.906917293233084,1,0.05
1755688808.362088,9.795,-0.086,0.644,8.737088099160957,86.23848540137747,14.906917293233084,1,0.05
1755688808.3892539,9.748,-0.12,0.663,8.75067238630838,86.1093737882855,14.909273182957394,1,0.05
1755688808.417322,9.748,-0.12,0.663,8.75067238630838,86.1093737882855,14.909273182957394,1,0.05
1755688808.4448783,9.647,-0.048,0.622,8.763956226214278,86.31094908608434,14.914335839598996,1,0.05
1755688808.4726574,9.647,-0.048,0.622,8.763956226214278,86.31094908608434,14.914335839598996,1,0.05
1755688808.500193,9.945,-0.079,0.677,8.778051395241429,86.10575439198152,14.929273182957395,1,0.05
1755688808.5281975,9.945,-0.079,0.677,8.778051395241429,86.10575439198152,14.929273182957395,1,0.05
1755688808.5552473,9.719,-0.072,0.71,8.791492120226236,85.82192013563758,14.940601503759396,1,0.05
1755688808.5828416,9.719,-0.072,0.71,8.791492120226236,85.82192013563758,14.940601503759396,1,0.05
1755688808.6111572,9.74,-0.072,0.556,8.80497034066555,86.7329516582873,14.941654135338345,1,0.05
1755688808.6386843,9.74,-0.072,0.556,8.80497034066555,86.7329516582873,14.941654135338345,1,0.05
1755688808.6670969,9.755,-0.036,0.775,8.818469411553231,85.45762601141898,14.942406015037594,1,0.05
1755688808.694142,9.755,-0.036,0.775,8.818469411553231,85.45762601141898,14.942406015037594,1,0.05
1755688808.7215188,9.564,-0.108,0.734,8.831425592875705,85.61165207326391,14.951979949874687,1,0.05
1755688808.7486398,9.564,-0.108,0.734,8.831425592875705,85.61165207326391,14.951979949874687,1,0.05
1755688808.7759953,9.876,-0.142,0.618,8.845219977055404,86.41970054360362,14.967619047619047,1,0.05
1755688808.803444,9.876,-0.142,0.618,8.845219977055404,86.41970054360362,14.967619047619047,1,0.05
1755688808.831244,9.876,-0.142,0.618,8.845219977055404,86.41970054360362,14.967619047619047,1,0.05
1755688808.8586752,9.876,-0.142,0.618,8.845219977055404,86.41970054360362,14.967619047619047,1,0.05
1755688808.8859503,9.683,-0.135,0.656,8.85846023104467,86.12464627410138,14.977293233082708,1,0.05
1755688808.9135253,9.726,-0.031,0.734,8.871798315730583,85.68421536203806,14.979448621553885,1,0.05
1755688808.940913,9.69,-0.103,0.632,8.885018041906275,86.26855720806769,14.981253132832082,1,0.05
1755688808.9685497,9.69,-0.103,0.632,8.885018041906275,86.26855720806769,14.981253132832082,1,0.05
1755688808.9959397,9.781,-0.082,0.589,8.89846703132062,86.55399974340708,14.985814536340852,1,0.05
1755688809.023299,9.781,-0.082,0.589,8.89846703132062,86.55399974340708,14.985814536340852,1,0.05
1755688809.0504422,9.888,-0.084,0.698,8.91219091287322,85.96229892526864,14.991177944862157,1,0.05
1755688809.0774822,9.888,-0.084,0.698,8.91219091287322,85.96229892526864,14.991177944862157,1,0.05
1755688809.1056433,9.652,-0.159,0.715,8.925247874849191,85.76395917595796,15.003007518796991,1,0.05
1755688809.1330376,9.652,-0.159,0.715,8.925247874849191,85.76395917595796,15.003007518796991,1,0.05
1755688809.1603923,9.652,-0.159,0.715,8.925247874849191,85.76395917595796,15.003007518796991,1,0.05
1755688809.187924,9.876,-0.012,0.71,8.938897474940632,85.88800052090237,15.014235588972431,1,0.05
1755688809.214807,9.74,-0.11,0.618,8.952153766971387,86.3696981167614,15.021052631578947,1,0.05
1755688809.2426364,9.74,-0.11,0.618,8.952153766971387,86.3696981167614,15.021052631578947,1,0.05
1755688809.2699203,9.736,-0.086,0.639,8.965379596397467,86.24505486275328,15.02125313283208,1,0.05
1755688809.297713,9.736,-0.12,0.582,8.97858594364948,86.57929488114429,15.02125313283208,1,0.05
1755688809.324881,9.736,-0.12,0.582,8.97858594364948,86.57929488114429,15.02125313283208,1,0.05
1755688809.352546,9.607,-0.096,0.494,8.991426008704071,87.05654221502571,15.027719298245612,1,0.05
1755688809.3806224,9.607,-0.096,0.494,8.991426008704071,87.05654221502571,15.027719298245612,1,0.05
1755688809.4076936,9.898,-0.086,0.71,9.00503568454895,85.89726020924365,15.042305764411026,1,0.05
1755688809.4353085,9.898,-0.086,0.71,9.00503568454895,85.89726020924365,15.042305764411026,1,0.05
1755688809.4625466,9.647,-0.125,0.608,9.017944843615979,86.39401813350203,15.054887218045112,1,0.05
1755688809.490035,9.647,-0.125,0.608,9.017944843615979,86.39401813350203,15.054887218045112,1,0.05
1755688809.5178967,9.647,-0.125,0.608,9.017944843615979,86.39401813350203,15.054887218045112,1,0.05
1755688809.545984,9.667,-0.084,0.665,9.03088901631506,86.06492906723895,15.055889724310775,1,0.05
1755688809.5735047,9.7,-0.091,0.67,9.043902997323666,86.04890559354828,15.05754385964912,1,0.05
1755688809.601187,9.7,-0.091,0.67,9.043902997323666,86.04890559354828,15.05754385964912,1,0.05
1755688809.6281812,9.767,-0.118,0.644,9.057078289796328,86.22786251049328,15.060902255639096,1,0.05
1755688809.6552553,9.767,-0.118,0.644,9.057078289796328,86.22786251049328,15.060902255639096,1,0.05
1755688809.6825316,9.812,-0.082,0.551,9.07035586443553,86.78600149888639,15.063157894736843,1,0.05
1755688809.7102416,9.812,-0.082,0.551,9.07035586443553,86.78600149888639,15.063157894736843,1,0.05
1755688809.737561,9.812,-0.082,0.551,9.07035586443553,86.78600149888639,15.063157894736843,1,0.05
1755688809.7650058,9.671,-0.13,0.677,9.083235993301066,85.99601074670362,15.070225563909773,1,0.05
1755688809.793231,9.905,-0.034,0.808,9.096727360567645,85.33645256246436,15.081954887218046,1,0.05
1755688809.820559,9.905,-0.034,0.808,9.096727360567645,85.33645256246436,15.081954887218046,1,0.05
1755688809.8482606,9.769,-0.084,0.549,9.109831616171618,86.78358358702297,15.088771929824562,1,0.05
1755688809.876074,9.769,-0.084,0.549,9.109831616171618,86.78358358702297,15.088771929824562,1,0.05
1755688809.90313,9.769,-0.084,0.549,9.109831616171618,86.78358358702297,15.088771929824562,1,0.05
1755688809.9303334,9.783,-0.13,0.606,9.122954554172678,86.45570055220128,15.089473684210523,1,0.05
1755688809.9577572,9.836,-0.096,0.767,9.136200908337118,85.54137533034718,15.092130325814537,1,0.05
1755688809.9853382,9.836,-0.096,0.767,9.136200908337118,85.54137533034718,15.092130325814537,1,0.05
1755688810.012893,9.712,-0.108,0.622,9.149096917045966,86.33575218800969,15.098345864661654,1,0.05
1755688810.0403662,9.712,-0.108,0.622,9.149096917045966,86.33575218800969,15.098345864661654,1,0.05
1755688810.0682638,9.829,-0.01,0.715,9.162286696016448,85.83941099331325,15.10421052631579,1,0.05
1755688810.0962803,9.829,-0.01,0.715,9.162286696016448,85.83941099331325,15.10421052631579,1,0.05
1755688810.1241088,9.633,-0.147,0.634,9.17493783207821,86.23492167798203,15.114035087719298,1,0.05
1755688810.151764,9.633,-0.147,0.634,9.17493783207821,86.23492167798203,15.114035087719298,1,0.05
1755688810.179464,9.8,-0.072,0.611,9.1880130726126,86.43249737924985,15.122406015037594,1,0.05
1755688810.2071521,9.8,-0.072,0.611,9.1880130726126,86.43249737924985,15.122406015037594,1,0.05
1755688810.23492,9.79,-0.084,0.722,9.201043118717573,85.78229984114952,15.122907268170426,1,0.05
1755688810.2625225,9.79,-0.084,0.722,9.201043118717573,85.78229984114952,15.122907268170426,1,0.05
1755688810.2903996,9.738,-0.171,0.694,9.213916978272596,85.92420848749208,15.125513784461154,1,0.05
1755688810.3173664,9.738,-0.171,0.694,9.213916978272596,85.92420848749208,15.125513784461154,1,0.05
1755688810.3451633,9.857,-0.06,0.656,9.227088771925846,86.19255412149032,15.131478696741855,1,0.05
1755688810.3723722,9.857,-0.06,0.656,9.227088771925846,86.19255412149032,15.131478696741855,1,0.05
1755688810.400131,9.507,-0.125,0.698,9.239324911891561,85.80126340298061,15.14902255639098,1,0.05
1755688810.427105,9.864,-0.086,0.634,9.2524791849266,86.3225617647596,15.166917293233084,1,0.05
1755688810.4547508,9.864,-0.086,0.634,9.2524791849266,86.3225617647596,15.166917293233084,1,0.05
1755688810.4827223,9.75,-0.06,0.756,9.265313125712483,85.56632837872648,15.17263157894737,1,0.05
1755688810.5103972,9.75,-0.06,0.756,9.265313125712483,85.56632837872648,15.17263157894737,1,0.05
1755688810.5380225,9.75,-0.06,0.756,9.265313125712483,85.56632837872648,15.17263157894737,1,0.05
1755688810.5654392,9.628,-0.079,0.596,9.277810801988796,86.45787065946908,15.178746867167918,1,0.05
1755688810.5929325,9.869,-0.07,0.824,9.290923860413452,85.22734907383413,15.190827067669176,1,0.05
1755688810.6207316,9.869,-0.07,0.824,9.290923860413452,85.22734907383413,15.190827067669176,1,0.05
1755688810.6490448,9.678,-0.091,0.77,9.303516829135098,85.45122189786069,15.200401002506268,1,0.05
1755688810.6770706,9.678,-0.091,0.77,9.303516829135098,85.45122189786069,15.200401002506268,1,0.05
1755688810.7041757,9.845,-0.055,0.736,9.316530226028357,85.72465806171007,15.208771929824564,1,0.05
1755688810.731904,9.845,-0.055,0.736,9.316530226028357,85.72465806171007,15.208771929824564,1,0.05
1755688810.7599118,9.717,-0.106,0.644,9.329189979574862,86.20845803211857,15.215187969924813,1,0.05
1755688810.7887816,9.717,-0.106,0.644,9.329189979574862,86.20845803211857,15.215187969924813,1,0.05
1755688810.8164332,9.8,-0.036,0.632,9.342049329510095,86.31014136569188,15.21934837092732,1,0.05
1755688810.844387,9.8,-0.036,0.632,9.342049329510095,86.31014136569188,15.21934837092732,1,0.05
1755688810.8720179,9.807,-0.082,0.741,9.354909342024646,85.67919059860284,15.2196992481203,1,0.05
1755688810.8992836,9.807,-0.082,0.741,9.354909342024646,85.67919059860284,15.2196992481203,1,0.05
1755688810.9267213,9.714,-0.07,0.684,9.367509449554882,85.97233654759127,15.22436090225564,1,0.05
1755688810.953766,9.714,-0.07,0.684,9.367509449554882,85.97233654759127,15.22436090225564,1,0.05
1755688810.9813845,9.819,-0.065,0.687,9.380365941156027,85.99783069421949,15.229624060150377,1,0.05
1755688811.0088203,9.819,-0.065,0.687,9.380365941156027,85.99783069421949,15.229624060150377,1,0.05
1755688811.0368738,9.74,-0.142,0.696,9.392999211646938,85.91314386744416,15.233583959899747,1,0.05
1755688811.0644474,9.74,-0.142,0.696,9.392999211646938,85.91314386744416,15.233583959899747,1,0.05
1755688811.0920308,9.69,-0.01,0.777,9.405486401032112,85.415505831544,15.23609022556391,1,0.05
1755688811.1190443,9.69,-0.01,0.777,9.405486401032112,85.415505831544,15.23609022556391,1,0.05
1755688811.146638,9.69,-0.01,0.777,9.405486401032112,85.415505831544,15.23609022556391,1,0.05
1755688811.1736724,9.829,-0.106,0.815,9.418317129004523,85.26027212784199,15.243057644110275,1,0.05
1755688811.2014549,9.764,-0.11,0.615,9.430961604338128,86.3961297106797,15.246315789473686,1,0.05
1755688811.2285175,9.764,-0.11,0.615,9.430961604338128,86.3961297106797,15.246315789473686,1,0.05
1755688811.2558918,9.774,-0.091,0.687,9.443615010815508,85.97955066541581,15.246817042606516,1,0.05
1755688811.283213,9.774,-0.091,0.687,9.443615010815508,85.97955066541581,15.246817042606516,1,0.05
1755688811.3108456,9.667,-0.154,0.651,9.455976506686127,86.14786282686327,15.252180451127817,1,0.05
1755688811.3381948,9.667,-0.154,0.651,9.455976506686127,86.14786282686327,15.252180451127817,1,0.05
1755688811.3675523,9.667,-0.154,0.651,9.455976506686127,86.14786282686327,15.252180451127817,1,0.05
1755688811.3950052,9.843,-0.12,0.66,9.46877517514805,86.16418812801217,15.261002506265664,1,0.05
1755688811.422875,9.659,-0.072,0.637,9.481083483442173,86.22697717129478,15.270225563909774,1,0.05
1755688811.4506516,9.659,-0.072,0.637,9.481083483442173,86.22697717129478,15.270225563909774,1,0.05
1755688811.4784846,9.659,-0.072,0.637,9.481083483442173,86.22697717129478,15.270225563909774,1,0.05
1755688811.506436,9.843,-0.007,0.763,9.49384830521849,85.56746721046495,15.279448621553884,1,0.05
1755688811.5341423,9.843,-0.007,0.763,9.49384830521849,85.56746721046495,15.279448621553884,1,0.05
1755688811.5615494,9.774,-0.219,0.736,9.506418007456857,85.69472723230513,15.282907268170424,1,0.05
1755688811.5895677,9.657,-0.098,0.53,9.518672567905675,86.8587791023398,15.28877192982456,1,0.05
1755688811.6170995,9.969,-0.065,0.668,9.531714423832682,86.16655217167343,15.30441102756892,1,1.5
1755688811.6448278,9.969,-0.065,0.668,9.531714423832682,86.16655217167343,15.30441102756892,1,1.5
1755688811.673029,9.726,-0.135,0.682,9.544111668851114,85.98929472217313,15.316591478696742,1,1.5
1755688811.700616,9.726,-0.135,0.682,9.544111668851114,85.98929472217313,15.316591478696742,1,1.5
1755688811.7285044,9.798,-0.048,0.715,9.556676700480141,85.82634145923697,15.320200501253133,1,1.5
1755688811.7562108,9.798,-0.048,0.715,9.556676700480141,85.82634145923697,15.320200501253133,1,1.5
1755688811.783371,9.817,-0.209,0.72,9.569273916029367,85.80626099829671,15.321152882205515,1,1.5
1755688811.8107276,9.817,-0.209,0.72,9.569273916029367,85.80626099829671,15.321152882205515,1,1.5
1755688811.838441,9.817,-0.209,0.72,9.569273916029367,85.80626099829671,15.321152882205515,1,1.5
1755688811.8657963,9.667,-0.084,0.67,9.581473294984441,86.03543606692521,15.328671679197994,1,1.5
1755688811.8932126,9.798,-0.086,0.675,9.593989395058763,86.05917961081214,15.335238095238095,1,0.15000000000000002
1755688811.9213989,9.798,-0.086,0.675,9.593989395058763,86.05917961081214,15.335238095238095,1,0.15000000000000002
1755688811.9494019,9.643,-0.195,0.765,9.606097081281243,85.465025214621,14.853082706766918,1,0.15000000000000002
1755688811.9770699,9.643,-0.195,0.765,9.606097081281243,85.465025214621,14.853082706766918,1,0.15000000000000002
1755688812.0049918,9.833,-0.01,0.632,9.606247611190334,86.32246781363193,14.861503759398495,1,0.15000000000000002
1755688812.0330405,9.833,-0.01,0.632,9.606247611190334,86.32246781363193,14.861503759398495,1,0.15000000000000002
1755688812.0604706,9.833,-0.01,0.632,9.606247611190334,86.32246781363193,14.861503759398495,1,0.15000000000000002
1755688812.088028,9.776,-0.139,0.775,9.606308596307949,85.46776832443626,14.856992481203006,1,0.15000000000000002
1755688812.1159155,9.724,-0.091,0.627,9.606607893788526,86.31085722700743,14.842656641604009,1,0.15000000000000002
1755688812.143474,9.724,-0.091,0.627,9.606607893788526,86.31085722700743,14.842656641604009,1,0.15000000000000002
1755688812.171379,9.821,-0.031,0.779,9.606294145246647,85.46482666201763,14.837142857142855,1,0.15000000000000002
1755688812.1988747,9.821,-0.031,0.779,9.606294145246647,85.46482666201763,14.837142857142855,1,0.15000000000000002
1755688812.226818,9.655,-0.127,0.713,9.606089762619336,85.77686623252832,14.836290726817044,1,0.15000000000000002
1755688812.2550356,9.655,-0.127,0.713,9.606089762619336,85.77686623252832,14.836290726817044,1,0.15000000000000002
1755688812.2825365,9.953,-0.022,0.815,9.606177681445415,85.31879863878845,14.841453634085212,1,0.15000000000000002
1755688812.3103514,9.953,-0.022,0.815,9.606177681445415,85.31879863878845,14.841453634085212,1,0.15000000000000002
1755688812.3374152,9.657,-0.086,0.66,9.606008709656681,86.09039980579325,14.856190476190479,1,0.15000000000000002
1755688812.3648894,9.657,-0.086,0.66,9.606008709656681,86.09039980579325,14.856190476190479,1,0.15000000000000002
1755688812.392819,9.69,-0.019,0.632,9.605917753655817,86.26835416132283,14.84456140350877,1,0.15000000000000002
1755688812.4205275,9.69,-0.019,0.632,9.605917753655817,86.26835416132283,14.84456140350877,1,0.15000000000000002
1755688812.4485674,9.767,-0.11,0.677,9.605341816406119,86.03513349001322,14.830726817042606,1,0.15000000000000002
1755688812.4757974,9.767,-0.11,0.677,9.605341816406119,86.03513349001322,14.830726817042606,1,0.15000000000000002
1755688812.503365,9.676,-0.082,0.694,9.605437326847747,85.89769788052756,14.827869674185465,1,0.15000000000000002
1755688812.5308273,9.676,-0.082,0.694,9.605437326847747,85.89769788052756,14.827869674185465,1,0.15000000000000002
1755688812.558453,9.931,-0.048,0.71,9.605809369985437,85.91074077523372,14.838997493734336,1,0.15000000000000002
1755688812.586876,9.621,-0.147,0.741,9.60530847253226,85.59634180233861,14.747919799498748,1,0.15000000000000002
1755688812.614025,9.621,-0.147,0.741,9.60530847253226,85.59634180233861,14.747919799498748,1,0.15000000000000002
1755688812.64132,9.621,-0.147,0.741,9.60530847253226,85.59634180233861,14.747919799498748,1,0.15000000000000002
1755688812.6690156,9.8,-0.086,0.803,9.599233488279156,85.3158981992941,14.718395989974935,1,0.15000000000000002
1755688812.697757,9.8,-0.086,0.803,9.599233488279156,85.3158981992941,14.718395989974935,1,0.15000000000000002
1755688812.7251384,9.79,-0.166,0.725,9.590661047211501,85.76528957993047,14.562807017543859,1,0.15000000000000002
1755688812.752544,9.79,-0.166,0.725,9.590661047211501,85.76528957993047,14.562807017543859,1,0.15000000000000002
1755688812.7798836,9.676,-0.055,0.713,9.590851983139975,85.7857033300838,14.446516290726816,1,0.15000000000000002
1755688812.8072717,9.883,-0.079,0.663,9.584705686404774,86.16219148315824,14.298646616541351,1,0.15000000000000002
1755688812.8347368,9.883,-0.079,0.663,9.584705686404774,86.16219148315824,14.298646616541351,1,0.15000000000000002
1755688812.8617232,9.667,-0.132,0.644,9.586616060685856,86.18903305924337,14.30360902255639,1,0.15000000000000002
1755688812.8890078,9.667,-0.132,0.644,9.586616060685856,86.18903305924337,14.30360902255639,1,0.15000000000000002
1755688812.9167192,9.85,-0.115,0.708,9.588719083120539,85.88903376413549,14.229724310776941,1,0.15000000000000002
1755688812.9453948,9.85,-0.115,0.708,9.588719083120539,85.88903376413549,14.229724310776941,1,0.15000000000000002
1755688812.9730592,9.693,-0.144,0.698,9.586178058799034,85.88165159529014,14.19563909774436,1,0.15000000000000002
1755688813.000362,9.693,-0.144,0.698,9.586178058799034,85.88165159529014,14.19563909774436,1,0.15000000000000002
1755688813.0277183,9.788,-0.082,0.682,9.581460576290025,86.01437430294192,14.042055137844612,1,0.15000000000000002
1755688813.0551434,9.788,-0.082,0.682,9.581460576290025,86.01437430294192,14.042055137844612,1,0.15000000000000002
1755688813.0825067,9.826,-0.197,0.739,9.58500557446369,85.6998210043833,13.860852130325814,1,0.15000000000000002
1755688813.1100469,9.826,-0.197,0.739,9.58500557446369,85.6998210043833,13.860852130325814,1,0.15000000000000002
1755688813.1370387,9.743,-0.113,0.694,9.594528886037084,85.92594026143156,13.677493734335838,1,0.15000000000000002
1755688813.1644983,9.743,-0.113,0.694,9.594528886037084,85.92594026143156,13.677493734335838,1,0.15000000000000002
1755688813.1926475,9.848,-0.038,0.739,9.59793350583864,85.70856431933784,13.653233082706768,1,0.15000000000000002
1755688813.219816,9.848,-0.038,0.739,9.59793350583864,85.70856431933784,13.653233082706768,1,0.15000000000000002
1755688813.2480145,9.631,-0.094,0.741,9.60203228618817,85.60059350099462,13.586065162907268,1,0.15000000000000002
1755688813.2751606,9.631,-0.094,0.741,9.60203228618817,85.60059350099462,13.586065162907268,1,0.15000000000000002
1755688813.3025615,9.802,-0.072,0.689,9.609417694766941,85.97929942544154,13.523809523809524,1,0.15000000000000002
1755688813.3303313,9.802,-0.072,0.689,9.609417694766941,85.97929942544154,13.523809523809524,1,0.15000000000000002
1755688813.3582535,9.671,-0.108,0.644,9.618509688356092,86.19048742937738,13.407719298245615,1,0.15000000000000002
1755688813.3855941,9.671,-0.108,0.644,9.618509688356092,86.19048742937738,13.407719298245615,1,0.15000000000000002
1755688813.4128616,9.731,-0.074,0.713,9.630053334483668,85.80949088638894,13.248671679197994,1,1.35
1755688813.4403708,9.731,-0.074,0.713,9.630053334483668,85.80949088638894,13.248671679197994,1,1.35
1755688813.4672935,9.8,-0.13,0.698,9.63838110810109,85.92637424150651,12.572731829573936,1,1.35
1755688813.4949136,9.8,-0.13,0.698,9.63838110810109,85.92637424150651,12.572731829573936,1,1.35
1755688813.5223596,9.7,-0.074,0.739,9.60271874913558,85.64343093153408,12.038646616541353,1,0.15000000000000002
1755688813.5499074,9.7,-0.074,0.739,9.60271874913558,85.64343093153408,12.038646616541353,1,0.15000000000000002
1755688813.5770612,9.893,-0.065,0.679,9.60617902055755,86.07378117976218,12.01689223057644,1,0.15000000000000002
1755688813.604594,9.893,-0.065,0.679,9.60617902055755,86.07378117976218,12.01689223057644,1,0.15000000000000002
1755688813.6321492,9.712,-0.11,0.651,9.610502489204194,86.16541827485537,12.011027568922305,1,0.15000000000000002
1755688813.6597757,9.712,-0.11,0.651,9.610502489204194,86.16541827485537,12.011027568922305,1,0.15000000000000002
1755688813.6866755,9.762,-0.074,0.708,9.61554464890055,85.8519411011333,12.005413533834586,1,0.15000000000000002
1755688813.7150562,9.762,-0.074,0.708,9.61554464890055,85.8519411011333,12.005413533834586,1,0.15000000000000002
1755688813.742776,9.819,-0.06,0.62,9.62104224902375,86.38704302936142,11.94516290726817,1,0.15000000000000002
1755688813.7703512,9.819,-0.06,0.62,9.62104224902375,86.38704302936142,11.94516290726817,1,0.15000000000000002
1755688813.7976825,9.712,-0.156,0.603,9.628464456755292,86.44762940333588,11.934185463659148,1,1.35
1755688813.8247633,9.712,-0.156,0.603,9.628464456755292,86.44762940333588,11.934185463659148,1,1.35
1755688813.8523934,9.712,-0.156,0.603,9.628464456755292,86.44762940333588,11.934185463659148,1,1.35
1755688813.8798633,9.905,-0.077,0.656,9.636873935825871,86.21099543169936,11.93203007518797,1,1.35
1755688813.907179,9.905,-0.077,0.656,9.636873935825871,86.21099543169936,11.93203007518797,1,1.35
1755688813.9351578,9.607,-0.168,0.715,9.644868315067862,85.7442629188214,11.86486215538847,1,1.35
1755688813.962889,9.802,-0.139,0.779,9.655346513849205,85.4565049098647,11.776992481203008,1,1.6
1755688813.9904628,9.802,-0.139,0.779,9.655346513849205,85.4565049098647,11.776992481203008,1,1.6
1755688814.0185575,9.771,-0.065,0.739,9.66328036137315,85.67493690913095,11.730877192982458,1,1.6
1755688814.0458326,9.721,-0.086,0.672,9.66952780155267,86.04566324630224,11.611829573934838,1,1.6
1755688814.0732229,9.721,-0.086,0.672,9.66952780155267,86.04566324630224,11.611829573934838,1,1.6
1755688814.100605,9.721,-0.086,0.672,9.66952780155267,86.04566324630224,11.611829573934838,1,1.6
1755688814.1280663,9.85,-0.072,0.729,9.671078381054514,85.76736034520194,11.614085213032583,1,1.35
1755688814.1548986,9.85,-0.072,0.729,9.671078381054514,85.76736034520194,11.614085213032583,1,1.35
1755688814.1821606,9.619,-0.135,0.765,9.672246793403279,85.45327789179484,11.552380952380952,1,1.35
1755688814.2099779,9.619,-0.135,0.765,9.672246793403279,85.45327789179484,11.552380952380952,1,1.35
1755688814.2379289,9.845,-0.07,0.592,9.670254448177669,86.55891788794246,11.464962406015038,1,0.1
1755688814.2650375,9.845,-0.07,0.592,9.670254448177669,86.55891788794246,11.464962406015038,1,0.1
1755688814.2920592,9.688,-0.137,0.72,9.672761516237232,85.75008670730266,11.433834586466165,1,1.35
1755688814.319301,9.81,-0.077,0.698,9.673762271086675,85.93028091737709,11.366817042606518,1,1.35
1755688814.346438,9.81,-0.077,0.698,9.673762271086675,85.93028091737709,11.366817042606518,1,1.35
1755688814.3741658,9.953,-0.067,0.713,9.671305863739395,85.90261198871771,11.312431077694235,1,1.35
1755688814.4014375,9.953,-0.067,0.713,9.671305863739395,85.90261198871771,11.312431077694235,1,1.35
1755688814.4293227,9.821,-0.062,0.746,9.671766105655163,85.6562588771557,11.232180451127817,1,1.35
1755688814.4563148,9.821,-0.062,0.746,9.671766105655163,85.6562588771557,11.232180451127817,1,1.35
1755688814.4830935,9.938,-0.127,0.644,9.676453206108114,86.2926179409636,11.189774436090227,1,1.6
1755688814.5106065,9.938,-0.127,0.644,9.676453206108114,86.2926179409636,11.189774436090227,1,1.6
1755688814.5380127,9.938,-0.127,0.644,9.676453206108114,86.2926179409636,11.189774436090227,1,1.6
1755688814.5652487,9.569,-0.108,0.641,9.678122622311623,86.16788803023171,11.120902255639097,1,1.6
1755688814.5927129,9.69,-0.065,0.637,9.683691634908662,86.23899321487947,11.060300751879698,1,1.6
1755688814.6195776,9.69,-0.065,0.637,9.683691634908662,86.23899321487947,11.060300751879698,1,1.6
1755688814.6476204,9.693,-0.18,0.677,9.686591337513935,86.00539579163942,10.93799498746867,1,1.6
1755688814.67498,9.693,-0.18,0.677,9.686591337513935,86.00539579163942,10.93799498746867,1,1.6
1755688814.7025814,9.745,-0.022,0.696,9.694178868914065,85.91481142816303,10.868220551378446,1,7.050000000000001
1755688814.7301602,9.745,-0.022,0.696,9.694178868914065,85.91481142816303,10.868220551378446,1,7.050000000000001
1755688814.7581306,9.872,-0.118,0.729,9.699575509397306,85.77694688726487,10.873032581453634,1,7.050000000000001
1755688814.7853575,9.872,-0.118,0.729,9.699575509397306,85.77694688726487,10.873032581453634,1,7.050000000000001
1755688814.8128622,9.678,-0.168,0.67,9.704420969331451,86.04037345624602,10.831929824561403,1,7.050000000000001
1755688814.840046,9.678,-0.168,0.67,9.704420969331451,86.04037345624602,10.831929824561403,1,7.050000000000001
1755688814.867186,9.945,-0.06,0.746,9.707851276672917,85.71020832250245,10.740952380952379,1,7.050000000000001
1755688814.894136,9.945,-0.06,0.746,9.707851276672917,85.71020832250245,10.740952380952379,1,7.050000000000001
1755688814.92111,9.945,-0.06,0.746,9.707851276672917,85.71020832250245,10.740952380952379,1,7.050000000000001
1755688814.9486146,9.748,-0.106,0.727,9.714778755458099,85.73506239316607,10.6796992481203,1,7.050000000000001
1755688814.975769,9.748,-0.106,0.727,9.714778755458099,85.73506239316607,10.6796992481203,1,7.050000000000001
1755688815.0031145,9.748,-0.106,0.727,9.714778755458099,85.73506239316607,10.6796992481203,1,7.050000000000001
1755688815.0304425,9.771,-0.098,0.786,9.719157461426377,85.4011391545334,10.411979949874684,1,7.050000000000001
1755688815.0576694,9.776,-0.101,0.677,9.709027510003253,86.0387323210533,10.243358395989976,1,8.3
1755688815.0850196,9.681,-0.094,0.756,9.70864562490567,85.53498075206731,10.221353383458647,1,8.3
1755688815.112426,9.681,-0.094,0.756,9.70864562490567,85.53498075206731,10.221353383458647,1,8.3
1755688815.1396573,9.852,-0.094,0.632,9.707304873521796,86.32970539248728,10.207919799498745,1,8.3
1755688815.166893,9.852,-0.094,0.632,9.707304873521796,86.32970539248728,10.207919799498745,1,8.3
1755688815.1943321,9.74,-0.209,0.653,9.7044841602993,86.1653319737815,10.170526315789473,1,8.3
1755688815.2218518,9.74,-0.209,0.653,9.7044841602993,86.1653319737815,10.170526315789473,1,8.3
1755688815.248688,9.852,-0.11,0.703,9.699461084900541,85.91876971126291,10.104110275689225,1,8.3
1755688815.2756917,9.852,-0.11,0.703,9.699461084900541,85.91876971126291,10.104110275689225,1,8.3
1755688815.302733,9.743,-0.062,0.727,9.698215384157026,85.73271649546386,10.005112781954887,1,8.3
1755688815.3297668,9.743,-0.062,0.727,9.698215384157026,85.73271649546386,10.005112781954887,1,8.3
1755688815.357677,9.786,-0.058,0.824,9.70201138965524,85.18702281251795,9.89408521303258,1,7.050000000000001
1755688815.385316,9.786,-0.058,0.824,9.70201138965524,85.18702281251795,9.89408521303258,1,7.050000000000001
1755688815.412676,9.838,-0.091,0.67,9.71001583688204,86.10415191049772,9.86466165413534,1,8.3
1755688815.4401968,9.838,-0.091,0.67,9.71001583688204,86.10415191049772,9.86466165413534,1,8.3
1755688815.4673717,9.602,-0.082,0.72,9.716403507599919,85.711892504789,9.732932330827067,1,3.8000000000000003
1755688815.4942546,9.602,-0.082,0.72,9.716403507599919,85.711892504789,9.732932330827067,1,3.8000000000000003
1755688815.521564,9.922,-0.024,0.672,9.717729980427528,86.12538389972623,9.660651629072683,1,3.8000000000000003
1755688815.5489464,9.922,-0.024,0.672,9.717729980427528,86.12538389972623,9.660651629072683,1,3.8000000000000003
1755688815.576429,7.073,-0.632,2.307,9.716684342150876,72.0022853886212,9.650726817042607,1,3.8000000000000003
1755688815.604391,7.073,-0.632,2.307,9.716684342150876,72.0022853886212,9.650726817042607,1,3.8000000000000003
1755688815.6314175,7.073,-0.632,2.307,9.716684342150876,72.0022853886212,9.650726817042607,1,3.8000000000000003
1755688815.6589196,10.396,0.027,-1.397,9.715933528102177,97.6534534540199,9.811077694235589,1,3.8000000000000003
1755688815.6859474,11.13,0.115,0.093,9.71755386246971,89.52128489685508,9.84185463659148,1,3.8000000000000003
1755688815.7127686,11.13,0.115,0.093,9.71755386246971,89.52128489685508,9.84185463659148,1,3.8000000000000003
1755688815.740065,9.757,0.49,1.525,9.715808797521698,81.1276569735812,9.905213032581454,1,3.8000000000000003
1755688815.7672033,9.757,0.49,1.525,9.715808797521698,81.1276569735812,9.905213032581454,1,3.8000000000000003
1755688815.7940187,14.268,-0.586,-0.756,9.728289888258882,93.03047076413486,10.019197994987469,1,8.3
1755688815.820922,14.268,-0.586,-0.756,9.728289888258882,93.03047076413486,10.019197994987469,1,8.3
1755688815.8485365,14.268,-0.586,-0.756,9.728289888258882,93.03047076413486,10.019197994987469,1,8.3
1755688815.8755476,3.904,0.445,12.77,9.721851159501465,17.102930585192716,10.485363408521303,1,8.3
1755688815.9032226,7.242,-0.046,7.119,9.717836042813234,45.49129632771717,10.629724310776943,1,3.8000000000000003
1755688815.9308357,7.242,-0.046,7.119,9.717836042813234,45.49129632771717,10.629724310776943,1,3.8000000000000003
1755688815.9585629,7.242,-0.046,7.119,9.717836042813234,45.49129632771717,10.629724310776943,1,3.8000000000000003
1755688815.9861245,7.242,-0.046,7.119,9.717836042813234,45.49129632771717,10.629724310776943,1,3.8000000000000003
1755688816.0127823,9.774,-1.262,4.032,9.71825730172339,67.74921754029234,10.720300751879698,1,3.8000000000000003
1755688816.0404654,12.022,-0.185,4.108,9.726700889433168,71.1364251485371,10.811328320802005,1,3.8000000000000003
1755688816.0677576,8.029,-0.074,10.724,9.725813618150411,36.823163964208355,11.003458646616542,1,3.8000000000000003
1755688816.0949764,8.029,-0.074,10.724,9.725813618150411,36.823163964208355,11.003458646616542,1,3.8000000000000003
1755688816.122442,-1.315,-2.093,2.561,9.717203622313367,43.98479578337873,11.40812030075188,1,3.8000000000000003
1755688816.1497388,-1.315,-2.093,2.561,9.717203622313367,43.98479578337873,11.40812030075188,1,3.8000000000000003
1755688816.1763113,-2.753,-3.218,5.237,9.70641836917717,38.960856724204625,11.459999999999999,1,3.8000000000000003
1755688816.2035594,-2.753,-3.218,5.237,9.70641836917717,38.960856724204625,11.459999999999999,1,3.8000000000000003
1755688816.231256,-3.056,-4.974,8.661,9.694833767914744,33.98123334114378,11.445814536340855,1,3.8000000000000003
1755688816.2581654,-3.056,-4.974,8.661,9.694833767914744,33.98123334114378,11.445814536340855,1,3.8000000000000003
1755688816.2856598,-2.257,-3.864,6.012,9.684150116040126,36.66121611591502,11.449774436090225,1,0.1
1755688816.313104,-0.071,-2.434,1.083,9.67098511179187,66.02253897547799,11.533734335839599,1,0.1
1755688816.3416445,-0.071,-2.434,1.083,9.67098511179187,66.02253897547799,11.533734335839599,1,0.1
1755688816.369426,-0.071,-2.434,1.083,9.67098511179187,66.02253897547799,11.533734335839599,1,0.1
1755688816.3971562,13.276,0.981,13.582,9.681885297296184,44.425222936230526,12.194385964912282,1,0.1
1755688816.4246085,6.355,0.005,4.6,9.674818562252215,54.10150401227958,12.537243107769426,1,0.1
1755688816.4523292,6.355,0.005,4.6,9.674818562252215,54.10150401227958,12.537243107769426,1,0.1
1755688816.479555,6.355,0.005,4.6,9.674818562252215,54.10150401227958,12.537243107769426,1,0.1
1755688816.5069292,9.948,1.291,4.624,9.675520676945505,65.25258100292399,12.70812030075188,1,0.1
1755688816.534749,13.527,2.636,-0.414,9.686606584867583,91.72067017276053,12.879398496240599,1,0.1
1755688816.561444,13.527,2.636,-0.414,9.686606584867583,91.72067017276053,12.879398496240599,1,0.1
1755688816.5884109,10.887,4.708,-1.863,9.689777006206077,98.92621004448976,13.00431077694236,1,0.1
1755688816.6157484,10.887,4.708,-1.863,9.689777006206077,98.92621004448976,13.00431077694236,1,0.1
1755688816.6434908,9.264,1.615,-1.062,9.68909516453936,96.44334389104998,13.081002506265666,1,0.1
1755688816.6709108,9.264,1.615,-1.062,9.68909516453936,96.44334389104998,13.081002506265666,1,0.1
1755688816.69812,10.322,1.108,-1.611,9.69085634541654,98.82096662701706,13.133182957393485,1,0.1
1755688816.7251463,10.322,1.108,-1.611,9.69085634541654,98.82096662701706,13.133182957393485,1,0.1
1755688816.7522805,4.729,0.817,2.718,9.681712542081593,60.47445484963706,13.407919799498748,1,0.1
1755688816.7796583,4.729,0.817,2.718,9.681712542081593,60.47445484963706,13.407919799498748,1,0.1
1755688816.8070967,19.198,2.999,12.366,9.716917208405143,57.52686525003673,14.13142857142857,1,0.1
1755688816.834118,19.198,2.999,12.366,9.716917208405143,57.52686525003673,14.13142857142857,1,0.1
1755688816.8614016,8.257,0.87,2.763,9.713327295396773,71.59343354867569,14.670676691729325,1,0.1
1755688816.8885322,8.257,0.87,2.763,9.713327295396773,71.59343354867569,14.670676691729325,1,0.1
1755688816.9155607,8.055,0.822,1.86,9.709769400325634,77.0625037179815,14.672581453634086,1,0.1
1755688816.942605,8.055,0.822,1.86,9.709769400325634,77.0625037179815,14.672581453634086,1,0.1
1755688816.9696283,8.055,0.822,1.86,9.709769400325634,77.0625037179815,14.672581453634086,1,0.1
1755688816.997949,10.787,0.755,0.981,9.712427734994995,84.8162677170683,14.806817042606516,1,0.1
1755688817.0250306,10.787,0.755,0.981,9.712427734994995,84.8162677170683,14.806817042606516,1,0.1
1755688817.0523777,10.139,0.192,0.131,9.713476062023316,89.25988911175367,14.834135338345867,1,0.1
1755688817.0794408,10.139,0.192,0.131,9.713476062023316,89.25988911175367,14.834135338345867,1,0.1
1755688817.107083,10.046,-0.257,0.955,9.71453924833803,84.5713920386028,14.830776942355891,1,0.1
1755688817.1345162,11.903,0.197,-0.017,9.720445557689214,90.08181922334641,14.919799498746867,1,0.1
1755688817.1621034,11.903,0.197,-0.017,9.720445557689214,90.08181922334641,14.919799498746867,1,0.1
1755688817.189342,8.596,-0.271,1.844,9.717835269107004,77.89833310250943,15.077944862155388,1,0.1
1755688817.2163272,8.596,-0.271,1.844,9.717835269107004,77.89833310250943,15.077944862155388,1,0.1
1755688817.2444592,10.62,-0.048,0.211,9.71984476187763,88.86179890025585,15.169122807017542,1,0.1
1755688817.2726738,10.62,-0.048,0.211,9.71984476187763,88.86179890025585,15.169122807017542,1,0.1
1755688817.299743,9.442,-0.214,1.105,9.719329084098346,83.32671979879416,15.222556390977443,1,0.1
1755688817.3274732,9.442,-0.214,1.105,9.719329084098346,83.32671979879416,15.222556390977443,1,0.1
1755688817.3550656,9.442,-0.214,1.105,9.719329084098346,83.32671979879416,15.222556390977443,1,0.1
1755688817.3823955,9.442,-0.214,1.105,9.719329084098346,83.32671979879416,15.222556390977443,1,0.1
1755688817.4102457,9.998,-0.122,0.886,9.71992379676919,84.93618236761465,15.246716791979951,1,0.1
1755688817.4381564,9.614,-0.166,0.991,9.719735122676955,84.11567341103161,15.264060150375936,1,0.1
1755688817.4650767,9.864,-0.065,0.808,9.720267194629992,85.31722817576723,15.268822055137845,1,0.1
1755688817.4924376,9.864,-0.065,0.808,9.720267194629992,85.31722817576723,15.268822055137845,1,0.1
1755688817.519988,9.745,-0.108,0.879,9.720111304661074,84.84617752326439,15.26441102756892,1,0.1
1755688817.54707,9.745,-0.108,0.879,9.720111304661074,84.84617752326439,15.26441102756892,1,0.1
1755688817.5744698,9.79,-0.05,0.791,9.720585065982396,85.38078255856426,15.254135338345863,1,0.1
1755688817.6015854,9.79,-0.05,0.791,9.720585065982396,85.38078255856426,15.254135338345863,1,0.1
1755688817.6290708,9.805,-0.175,0.794,9.7204713279501,85.37107599650767,15.250225563909774,1,0.1
1755688817.6566153,9.805,-0.175,0.794,9.7204713279501,85.37107599650767,15.250225563909774,1,0.1
1755688817.6845021,9.793,-0.135,0.9,9.720561832399401,84.74962748886897,15.249624060150374,1,0.1
1755688817.7126777,9.793,-0.135,0.9,9.720561832399401,84.74962748886897,15.249624060150374,1,0.1
1755688817.7400675,9.8,-0.11,0.87,9.720730122526806,84.92715528371194,15.246516290726817,1,0.1
1755688817.7672853,9.8,-0.11,0.87,9.720730122526806,84.92715528371194,15.246516290726817,1,0.1
1755688817.7945964,9.743,-0.183,0.848,9.720581835852215,85.02656435777534,15.24140350877193,1,0.1
1755688817.821771,9.743,-0.183,0.848,9.720581835852215,85.02656435777534,15.24140350877193,1,0.1
1755688817.8495257,9.821,-0.11,0.874,9.721027348356756,84.91479258337924,15.235288220551377,1,0.1
1755688817.8770654,9.821,-0.11,0.874,9.721027348356756,84.91479258337924,15.235288220551377,1,0.1
1755688817.904533,9.821,-0.11,0.874,9.721027348356756,84.91479258337924,15.235288220551377,1,0.1
1755688817.9324808,9.719,-0.122,0.815,9.72071543084664,85.20697467925378,15.232280701754387,1,0.1
1755688817.960667,9.721,-0.127,0.77,9.720815227515644,85.47144462285118,15.22952380952381,1,0.1
1755688817.9879918,9.721,-0.127,0.77,9.720815227515644,85.47144462285118,15.22952380952381,1,0.1
1755688818.0148487,9.881,-0.142,0.908,9.721175982359336,84.75017308226964,15.236090225563908,1,0.1
1755688818.044933,9.881,-0.142,0.908,9.721175982359336,84.75017308226964,15.236090225563908,1,0.1
1755688818.0727227,9.609,-0.11,0.824,9.720782322426524,85.09902853698401,15.242556390977441,1,0.1
1755688818.1000245,9.829,-0.13,0.865,9.721295110349237,84.97108634681683,15.243709273182956,1,0.1
1755688818.1270978,9.829,-0.13,0.865,9.721295110349237,84.97108634681683,15.243709273182956,1,0.1
1755688818.1793807,9.593,-0.219,1.036,9.720725931868463,83.83780053458811,15.250175438596491,1,0.1
1755688818.2083163,9.705,-0.084,0.813,9.720703457826497,85.21161988983877,15.251729323308268,1,0.1
1755688818.239046,9.705,-0.084,0.813,9.720703457826497,85.21161988983877,15.251729323308268,1,0.1
1755688818.266793,9.771,-0.154,0.839,9.720643073120215,85.09286564533203,15.251578947368419,1,0.1
1755688818.2943149,9.771,-0.154,0.839,9.720643073120215,85.09286564533203,15.251578947368419,1,0.1
