timestamp,ax,ay,az,rms,tilt_now,jerk,tilt_crosses,freq
1755690482.2010221,-1.284,-0.339,-9.481,0.06420000000000001,172.02649341017218,0.06436090225563909,1,2.5
1755690482.227926,-1.165,-0.332,-9.664,0.08668738374181102,172.85523544541095,0.07032581453634085,1,0.05
1755690482.255623,-1.47,-0.425,-9.678,0.11365277163360338,171.01524970318602,0.0856140350877193,1,0.05
1755690482.2833683,-1.255,-0.399,-9.55,0.1298249398228245,172.14869572289348,0.09639097744360903,1,0.05
1755690482.310824,-1.167,-0.432,-9.614,0.14233494827343002,172.62489771716744,0.10080200501253132,1,0.05
1755690482.3381724,-1.153,-0.517,-9.871,0.15356679328552772,172.70513460564945,0.10150375939849623,1,0.05
1755690482.365495,-1.172,-0.469,-9.914,0.16436763671720783,172.74353470188345,0.10245614035087718,1,0.05
1755690482.3934307,-1.384,-0.69,-9.424,0.17834057306176854,170.68089716551225,0.11308270676691728,1,0.05
1755690482.4213738,-0.917,-0.425,-9.45,0.18414011648741838,173.89528772575,0.1364912280701754,1,0.05
1755690482.4492104,-1.11,-0.497,-9.545,0.19232221010585335,172.73872431758426,0.14616541353383458,1,0.05
1755690482.4767077,-1.034,-0.334,-9.607,0.19915,173.54694959171053,0.1499749373433584,1,0.05
1755690482.5021126,-1.222,-0.654,-9.671,0.20831210358498134,171.84417861578737,0.15939849624060148,1,0.05
1755690482.5284033,-1.012,-0.776,-9.538,0.21436952325365657,172.38446873637952,0.16992481203007517,1,0.05
1755690482.5557196,-0.791,-0.43,-9.598,0.2179873734875486,174.64115572306912,0.18100250626566416,1,0.05
1755690482.5835958,-0.791,-0.43,-9.598,0.2179873734875486,174.64115572306912,0.18100250626566416,1,0.05
1755690482.6107304,-1.103,-0.007,-9.648,0.22485554807475844,173.47789071802134,0.19664160401002503,1,0.05
1755690482.6382306,-1.115,0.132,-9.781,0.23166372180382494,173.4515328082474,0.19724310776942353,1,0.05
1755690482.665324,-0.967,-0.243,-10.237,0.236655451025325,174.43704454209652,0.2046616541353383,1,0.05
1755690482.692961,-0.848,-0.682,-10.201,0.24042371451252476,173.91082910118297,0.21062656641604005,1,0.05
1755690482.7200673,-0.848,-0.682,-10.201,0.24042371451252476,173.91082910118297,0.21062656641604005,1,0.05
1755690482.7472248,-0.848,-0.682,-10.201,0.24042371451252476,173.91082910118297,0.21062656641604005,1,0.05
1755690482.7744138,-0.848,-0.682,-10.201,0.24042371451252476,173.91082910118297,0.21062656641604005,1,0.05
1755690482.8015575,-0.848,-0.682,-10.201,0.24042371451252476,173.91082910118297,0.21062656641604005,1,0.05
1755690482.8283527,-0.757,-0.197,-9.99,0.24338484956956544,175.52289494396214,0.21518796992481196,1,0.05
1755690482.855929,-0.476,-0.526,-9.543,0.24454575236548273,175.74859583878577,0.22927318295739338,1,0.05
1755690482.883808,-0.7,-0.932,-9.065,0.2470376995521129,172.67296985711437,0.24050125313283202,1,0.05
1755690482.9112809,-0.7,-0.932,-9.065,0.2470376995521129,172.67296985711437,0.24050125313283202,1,0.05
1755690482.9378862,-0.7,-0.932,-9.065,0.2470376995521129,172.67296985711437,0.24050125313283202,1,0.05
1755690482.964969,-0.7,-0.932,-9.065,0.2470376995521129,172.67296985711437,0.24050125313283202,1,0.05
1755690482.9916527,-0.7,-0.932,-9.065,0.2470376995521129,172.67296985711437,0.24050125313283202,1,0.05
1755690483.018944,-0.7,-0.932,-9.065,0.2470376995521129,172.67296985711437,0.24050125313283202,1,0.05
1755690483.0467548,-1.992,-1.612,-8.324,0.26636025416717113,162.88904307346775,0.3052631578947368,1,0.05
1755690483.0748322,-0.972,-0.089,-12.375,0.27075772380488056,175.49018769279434,0.356390977443609,1,0.05
1755690483.1016488,-0.645,-1.028,-10.111,0.272671611100239,173.15569917843877,0.372781954887218,1,0.05
1755690483.1289918,-0.414,-0.151,-11.323,0.2734562076457581,177.77124025307492,0.38436090225563907,1,0.05
1755690483.1562648,0.375,0.613,-7.172,0.2740982670503409,174.27828922528505,0.4239097744360902,1,0.05
1755690483.1840305,0.375,0.613,-7.172,0.2740982670503409,174.27828922528505,0.4239097744360902,1,0.05
1755690483.2110426,0.995,-0.613,-9.182,0.2785766007761599,172.7464755545244,0.45498746867167916,1,0.05
1755690483.2383254,0.356,-0.846,-10.092,0.279144698140588,174.80333401040093,0.4870175438596491,1,0.05
1755690483.2662313,0.356,-0.846,-10.092,0.279144698140588,174.80333401040093,0.4870175438596491,1,0.05
1755690483.2934878,-0.054,-0.094,-10.596,0.27915775557917066,179.4138329227588,0.5075689223057643,1,0.05
1755690483.3210962,-0.054,-0.094,-10.596,0.27915775557917066,179.4138329227588,0.5075689223057643,1,0.05
1755690483.3482242,-0.054,-0.094,-10.596,0.27915775557917066,179.4138329227588,0.5075689223057643,1,0.05
1755690483.3752277,-0.054,-0.094,-10.596,0.27915775557917066,179.4138329227588,0.5075689223057643,1,0.05
1755690483.4023337,-2.331,-1.853,-9.139,0.30251108244161895,161.95272886512274,0.621704260651629,1,0.05
1755690483.4303896,-0.29,-0.108,-8.716,0.3028583910014712,177.96659370894315,0.7240100250626567,1,0.05
1755690483.457995,1.274,-0.305,-10.802,0.30948488654536915,173.08528599160468,0.8024060150375939,1,0.05
1755690483.4859998,1.274,-0.305,-10.802,0.30948488654536915,173.08528599160468,0.8024060150375939,1,0.05
1755690483.5129123,1.274,-0.305,-10.802,0.30948488654536915,173.08528599160468,0.8024060150375939,1,0.05
1755690483.5396795,1.274,-0.305,-10.802,0.30948488654536915,173.08528599160468,0.8024060150375939,1,0.05
1755690483.5673318,1.274,-0.305,-10.802,0.30948488654536915,173.08528599160468,0.8024060150375939,1,0.05
1755690483.5954275,1.639,0.154,-10.168,0.3201510541916112,170.80350124819873,0.8207017543859648,1,0.05
1755690483.6238005,0.628,-0.944,-10.313,0.3216872044393435,173.7261172616786,0.8713784461152883,1,0.05
1755690483.6513164,-0.464,0.176,-9.493,0.32252270850282777,177.00751815421518,0.9261152882205513,1,0.05
1755690483.6793096,-0.555,-0.642,-9.866,0.3237143184970353,175.0837145790298,0.9306766917293232,1,0.05
1755690483.706409,-0.555,-0.642,-9.866,0.3237143184970353,175.0837145790298,0.9306766917293232,1,0.05
1755690483.73345,-0.555,-0.642,-9.866,0.3237143184970353,175.0837145790298,0.9306766917293232,1,0.05
1755690483.7606936,-0.555,-0.642,-9.866,0.3237143184970353,175.0837145790298,0.9306766917293232,1,0.05
1755690483.7876482,-0.555,-0.642,-9.866,0.3237143184970353,175.0837145790298,0.9306766917293232,1,0.05
1755690483.8152156,-0.495,-0.132,-9.664,0.32465908658160175,176.96553694350158,0.9336842105263157,1,0.05
1755690483.842475,0.123,-0.13,-9.792,0.3247173309202944,178.95293277206204,0.9646616541353383,1,0.05
1755690483.8705738,0.571,-0.464,-9.764,0.32597001012363086,175.69068018124472,0.9871177944862154,1,0.05
1755690483.8982148,0.168,-0.93,-9.255,0.3260782229772482,174.16958584917563,1.0073182957393483,1,0.05
1755690483.92594,0.168,-0.93,-9.255,0.3260782229772482,174.16958584917563,1.0073182957393483,1,0.05
1755690483.952931,0.168,-0.93,-9.255,0.3260782229772482,174.16958584917563,1.0073182957393483,1,0.05
1755690483.9797683,0.168,-0.93,-9.255,0.3260782229772482,174.16958584917563,1.0073182957393483,1,0.05
1755690484.0066433,0.7,0.228,-9.137,0.32795122731894144,175.39345774678125,1.0339849624060147,1,0.1
1755690484.034316,0.597,0.014,-10.089,0.329306893338114,176.6126363562728,1.0391478696741854,1,0.2
1755690484.0622604,-0.199,0.029,-10.408,0.3294571785528432,178.89307645742485,1.079047619047619,1,0.15000000000000002
1755690484.090566,-0.199,0.029,-10.408,0.3294571785528432,178.89307645742485,1.079047619047619,1,0.15000000000000002
1755690484.1182618,-0.199,0.029,-10.408,0.3294571785528432,178.89307645742485,1.079047619047619,1,0.15000000000000002
1755690484.146142,-0.199,0.029,-10.408,0.3294571785528432,178.89307645742485,1.079047619047619,1,0.15000000000000002
1755690484.1734736,-0.199,0.029,-10.408,0.3294571785528432,178.89307645742485,1.079047619047619,1,0.15000000000000002
1755690484.1984344,-0.199,0.029,-10.408,0.3294571785528432,178.89307645742485,1.079047619047619,1,0.15000000000000002
1755690484.2253892,-0.402,-0.476,-10.394,0.33006975399148586,176.5696601125823,1.0892230576441102,1,0.1
1755690484.252502,0.504,-0.046,-9.144,0.33103033471269666,176.83207082965993,1.1346365914786967,1,0.2
1755690484.2802465,0.123,-0.211,-9.759,0.3310874582342255,178.56638712329823,1.153734335839599,1,0.2
1755690484.3081152,0.516,-0.332,-9.301,0.3320911697109696,176.22571126850335,1.1734335839598997,1,0.2
1755690484.3353374,0.471,-0.283,-9.933,0.3329251379814988,176.83369379527977,1.1756892230576441,1,0.2
1755690484.3626854,0.471,-0.283,-9.933,0.3329251379814988,176.83369379527977,1.1756892230576441,1,0.2
1755690484.3899832,0.471,-0.283,-9.933,0.3329251379814988,176.83369379527977,1.1756892230576441,1,0.2
1755690484.416968,0.43,-0.276,-9.949,0.3336186408161271,177.06001387116197,1.1777443609022558,1,0.25
1755690484.444464,0.499,-0.048,-9.55,0.3345502951724897,176.99515961799057,1.181203007518797,1,0.25
1755690484.4713755,0.499,-0.048,-9.55,0.3345502951724897,176.99515961799057,1.181203007518797,1,0.25
1755690484.498978,-0.233,-0.19,-9.662,0.33475307690893596,178.21773088085226,1.2178947368421051,1,0.25
1755690484.5262818,-0.233,-0.19,-9.662,0.33475307690893596,178.21773088085226,1.2178947368421051,1,0.25
1755690484.5532663,-0.233,-0.19,-9.662,0.33475307690893596,178.21773088085226,1.2178947368421051,1,0.25
1755690484.580121,-0.233,-0.19,-9.662,0.33475307690893596,178.21773088085226,1.2178947368421051,1,0.25
1755690484.607318,0.056,-0.132,-9.716,0.3347647868280056,179.1544969952297,1.2323809523809521,1,0.25
1755690484.6352322,0.065,-0.175,-9.431,0.3347805624584558,178.8660091075925,1.2328320802005008,1,0.25
1755690484.6623,-0.118,-0.339,-10.593,0.33483254770108595,178.05924236172908,1.242005012531328,1,0.25
1755690484.689544,0.247,-0.541,-9.484,0.33506022966028065,176.41182021085325,1.260300751879699,1,0.25
1755690484.7170467,0.247,-0.541,-9.484,0.33506022966028065,176.41182021085325,1.260300751879699,1,0.25
1755690484.7439764,0.247,-0.541,-9.484,0.33506022966028065,176.41182021085325,1.260300751879699,1,0.25
1755690484.7711554,0.247,-0.541,-9.484,0.33506022966028065,176.41182021085325,1.260300751879699,1,0.25
1755690484.7982206,0.363,-0.401,-9.365,0.3355514565606891,176.69442115167564,1.266115288220551,1,0.25
1755690484.8262205,0.616,-0.245,-9.358,0.3369620453404211,175.94785743848314,1.2787969924812028,1,0.2
1755690484.8542335,0.182,-0.481,-9.752,0.3370849002847799,176.9812486335558,1.3005513784461151,1,0.2
1755690484.8818927,0.182,-0.481,-9.752,0.3370849002847799,176.9812486335558,1.3005513784461151,1,0.2
1755690484.9090831,0.182,-0.481,-9.752,0.3370849002847799,176.9812486335558,1.3005513784461151,1,0.2
1755690484.9359798,0.182,-0.481,-9.752,0.3370849002847799,176.9812486335558,1.3005513784461151,1,0.2
1755690484.9631925,0.182,-0.481,-9.752,0.3370849002847799,176.9812486335558,1.3005513784461151,1,0.2
1755690484.9900353,0.182,-0.481,-9.752,0.3370849002847799,176.9812486335558,1.3005513784461151,1,0.2
1755690485.0168972,-0.28,-0.425,-10.092,0.33737550296368585,177.11298882266533,1.3237092731829574,1,0.2
1755690485.0442958,-0.292,-0.211,-9.431,0.3376912643229019,177.8124094747478,1.3243107769423559,1,0.25
1755690485.0711744,-0.159,-0.488,-9.731,0.3377848316606298,176.98080323766146,1.3309774436090225,1,0.25
1755690485.0988774,0.056,-0.026,-9.529,0.33779643648209196,179.62876777006596,1.3417543859649117,1,0.25
1755690485.1265604,0.056,-0.026,-9.529,0.33779643648209196,179.62876777006596,1.3417543859649117,1,0.25
1755690485.153392,0.056,-0.026,-9.529,0.33779643648209196,179.62876777006596,1.3417543859649117,1,0.25
1755690485.1807702,-0.013,-0.029,-9.885,0.3377970618581517,179.81579341582398,1.3452130325814533,1,0.25
1755690485.2076514,-0.032,0.26,-9.56,0.3378008510942505,178.43038156251848,1.3461654135338343,1,0.25
1755690485.2346673,-0.266,0.262,-9.842,0.3380625755684885,177.82748664475284,1.3578947368421046,1,0.25
1755690485.2621844,-0.266,0.262,-9.842,0.3380625755684885,177.82748664475284,1.3578947368421046,1,0.25
1755690485.2897348,-0.423,0.106,-9.766,0.3387235266408284,177.44328209437825,1.3657644110275682,1,0.25
1755690485.317301,-0.423,0.106,-9.766,0.3387235266408284,177.44328209437825,1.3657644110275682,1,0.25
1755690485.3444598,-0.423,0.106,-9.766,0.3387235266408284,177.44328209437825,1.3657644110275682,1,0.25
1755690485.3717384,-0.586,0.207,-9.907,0.33998840789062207,176.41042377652937,1.3739348370927313,1,0.25
1755690485.3989117,-0.481,0.279,-9.726,0.3408379673686604,176.7278214613053,1.3791979949874682,1,0.30000000000000004
1755690485.4264538,-0.481,0.279,-9.726,0.3408379673686604,176.7278214613053,1.3791979949874682,1,0.30000000000000004
1755690485.4538574,0.101,-0.074,-9.804,0.34087537678747054,179.26830986552127,1.4083709273182954,1,0.30000000000000004
1755690485.481846,0.101,-0.074,-9.804,0.34087537678747054,179.26830986552127,1.4083709273182954,1,0.30000000000000004
1755690485.5090253,0.101,-0.074,-9.804,0.34087537678747054,179.26830986552127,1.4083709273182954,1,0.30000000000000004
1755690485.5362055,0.101,-0.074,-9.804,0.34087537678747054,179.26830986552127,1.4083709273182954,1,0.30000000000000004
1755690485.5636532,-0.018,0.031,-9.752,0.3408765649028986,179.78939021363428,1.4143358395989973,1,0.30000000000000004
1755690485.5909512,-0.087,0.329,-9.631,0.34090431942115373,177.97631164298156,1.4177944862155385,1,0.30000000000000004
1755690485.6195085,-0.953,0.031,-9.709,0.3442183572966439,174.39106710802045,1.461203007518797,1,0.30000000000000004
1755690485.647466,-0.953,0.031,-9.709,0.3442183572966439,174.39106710802045,1.461203007518797,1,0.30000000000000004
1755690485.674839,-0.953,0.031,-9.709,0.3442183572966439,174.39106710802045,1.461203007518797,1,0.30000000000000004
1755690485.7020798,-0.953,0.031,-9.709,0.3442183572966439,174.39106710802045,1.461203007518797,1,0.30000000000000004
1755690485.7295797,-0.953,0.031,-9.709,0.3442183572966439,174.39106710802045,1.461203007518797,1,0.30000000000000004
1755690485.7566488,-0.833,-0.281,-9.897,0.3467290008061051,174.92392148768914,1.4672180451127819,1,0.30000000000000004
1755690485.7843375,-0.59,0.106,-9.574,0.3479816805522958,176.41727873790254,1.4793984962406017,1,0.30000000000000004
1755690485.8121128,-0.33,-0.406,-10.004,0.348372645309588,177.00622319238056,1.4924310776942356,1,0.30000000000000004
1755690485.839598,-0.316,-0.019,-9.557,0.3487307557414459,178.10280059250064,1.4931328320802004,1,0.30000000000000004
1755690485.867021,-0.316,-0.019,-9.557,0.3487307557414459,178.10280059250064,1.4931328320802004,1,0.30000000000000004
1755690485.8941576,-0.316,-0.019,-9.557,0.3487307557414459,178.10280059250064,1.4931328320802004,1,0.30000000000000004
1755690485.9212344,-0.316,-0.019,-9.557,0.3487307557414459,178.10280059250064,1.4931328320802004,1,0.30000000000000004
1755690485.948223,-0.624,-0.428,-9.669,0.350123663867497,175.52526488322613,1.5085714285714285,1,0.30000000000000004
1755690485.9753237,-0.528,-0.365,-9.892,0.3511175586609135,176.28735481128305,1.5133834586466166,1,0.30000000000000004
1755690486.0025275,-0.848,-0.572,-9.64,0.35366834746694537,173.94311649099274,1.529423558897243,1,0.30000000000000004
1755690486.0297327,-0.848,-0.572,-9.64,0.35366834746694537,173.94311649099274,1.529423558897243,1,0.30000000000000004
1755690486.0575635,-0.848,-0.572,-9.64,0.35366834746694537,173.94311649099274,1.529423558897243,1,0.30000000000000004
1755690486.085182,-0.848,-0.572,-9.64,0.35366834746694537,173.94311649099274,1.529423558897243,1,0.30000000000000004
1755690486.1125863,-0.848,-0.572,-9.64,0.35366834746694537,173.94311649099274,1.529423558897243,1,0.30000000000000004
1755690486.1402936,-0.566,-0.389,-9.588,0.3547988021400298,175.90290685353804,1.5435588972431076,1,0.30000000000000004
1755690486.1679938,-0.507,-0.56,-9.94,0.3557032646743631,175.65402962755041,1.5465162907268166,1,0.30000000000000004
1755690486.1962037,-0.376,-0.44,-9.845,0.3561997368050684,176.63554914620624,1.5530827067669168,1,0.30000000000000004
1755690486.2231796,-0.626,-0.61,-9.526,0.3575722898939458,174.75751052844421,1.5656140350877188,1,0.30000000000000004
1755690486.2505786,-0.626,-0.61,-9.526,0.3575722898939458,174.75751052844421,1.5656140350877188,1,0.30000000000000004
1755690486.2777853,-0.626,-0.61,-9.526,0.3575722898939458,174.75751052844421,1.5656140350877188,1,0.30000000000000004
1755690486.3049612,-0.814,-0.781,-9.904,0.3598811366270814,173.50195077992643,1.575037593984962,1,0.30000000000000004
1755690486.3325624,-0.841,-0.843,-9.41,0.36232945643433406,172.7879587889013,1.5763909774436087,1,0.30000000000000004
1755690486.3598914,-0.841,-0.843,-9.41,0.36232945643433406,172.7879587889013,1.5763909774436087,1,0.30000000000000004
1755690486.3873618,-0.855,-1.007,-9.987,0.36484270240748956,172.46504484688253,1.5770927318295735,1,0.30000000000000004
1755690486.4147935,-0.855,-1.007,-9.987,0.36484270240748956,172.46504484688253,1.5770927318295735,1,0.30000000000000004
1755690486.4425058,-0.855,-1.007,-9.987,0.36484270240748956,172.46504484688253,1.5770927318295735,1,0.30000000000000004
1755690486.4700823,-0.855,-1.007,-9.987,0.36484270240748956,172.46504484688253,1.5770927318295735,1,0.30000000000000004
1755690486.4974096,-0.829,-0.74,-9.633,0.36718973297193375,173.41961670185302,1.5783959899749367,1,0.30000000000000004
1755690486.5249372,-0.679,-0.995,-9.952,0.3687558846988072,173.09842441824313,1.5859147869674182,1,0.30000000000000004
1755690486.5521348,-0.626,-0.819,-9.743,0.37008187269846116,173.96037945654152,1.5885714285714283,1,0.30000000000000004
1755690486.579439,-0.667,-0.788,-9.911,0.3715815051909877,174.05315953811555,1.5906265664160397,1,0.30000000000000004
1755690486.606602,-0.667,-0.788,-9.911,0.3715815051909877,174.05315953811555,1.5906265664160397,1,0.30000000000000004
1755690486.6336532,-0.667,-0.788,-9.911,0.3715815051909877,174.05315953811555,1.5906265664160397,1,0.30000000000000004
1755690486.6608324,-0.667,-0.788,-9.911,0.3715815051909877,174.05315953811555,1.5906265664160397,1,0.30000000000000004
1755690486.687829,-0.869,-0.644,-9.583,0.3741132415459255,173.56037079881992,1.6007518796992477,1,0.30000000000000004
1755690486.7160082,-0.721,-0.812,-9.628,0.37584613873232753,173.56503644536673,1.6081704260651628,1,0.25
1755690486.74348,-0.934,-0.711,-9.481,0.37873633308675314,172.9422012004787,1.618847117794486,1,0.25
1755690486.771375,-0.934,-0.711,-9.481,0.37873633308675314,172.9422012004787,1.618847117794486,1,0.25
1755690486.7990222,-0.934,-0.711,-9.481,0.37873633308675314,172.9422012004787,1.618847117794486,1,0.25
1755690486.825973,-0.934,-0.711,-9.481,0.37873633308675314,172.9422012004787,1.618847117794486,1,0.25
1755690486.8528936,-0.934,-0.711,-9.481,0.37873633308675314,172.9422012004787,1.618847117794486,1,0.25
1755690486.8800821,-0.736,-0.572,-9.614,0.38051997319457487,174.4621260913714,1.6287719298245613,1,0.25
1755690486.9084606,-0.602,-0.466,-9.707,0.3817086061382426,175.51565769679624,1.635488721804511,1,0.25
1755690486.936269,-0.738,-0.493,-9.643,0.38348803110397073,174.74143629279519,1.6423057644110275,1,0.25
1755690486.9642198,-0.679,-0.127,-9.498,0.3849878861730587,175.84028995396892,1.6452631578947365,1,0.25
1755690486.9918032,-0.679,-0.127,-9.498,0.3849878861730587,175.84028995396892,1.6452631578947365,1,0.25
1755690487.0188076,-0.679,-0.127,-9.498,0.3849878861730587,175.84028995396892,1.6452631578947365,1,0.25
1755690487.0459204,-0.783,-0.399,-10.156,0.38697337763727363,175.054505484311,1.6504761904761907,1,0.25
1755690487.0738187,-1.127,-0.173,-9.472,0.3910546221437614,173.13599379039562,1.667719298245614,1,0.25
1755690487.1021445,-1.127,-0.173,-9.472,0.3910546221437614,173.13599379039562,1.667719298245614,1,0.25
1755690487.1297405,-0.776,-0.274,-10.106,0.3929747542781851,175.3445542482581,1.6853132832080202,1,0.25
1755690487.1576266,-0.776,-0.274,-10.106,0.3929747542781851,175.3445542482581,1.6853132832080202,1,0.25
1755690487.1845996,-0.776,-0.274,-10.106,0.3929747542781851,175.3445542482581,1.6853132832080202,1,0.25
1755690487.212041,-0.776,-0.274,-10.106,0.3929747542781851,175.3445542482581,1.6853132832080202,1,0.25
1755690487.2396414,-0.85,0.142,-9.636,0.3952662488753625,174.88944407229152,1.6890225563909773,1,0.25
1755690487.2671793,-0.812,0.007,-9.712,0.3973459040936499,175.22055844340488,1.6909273182957396,1,0.25
1755690487.2945778,-1.065,0.063,-9.655,0.400898154148906,173.69448997672998,1.7036090225563907,1,0.25
1755690487.3220592,-1.065,0.063,-9.655,0.400898154148906,173.69448997672998,1.7036090225563907,1,0.25
1755690487.3495815,-1.065,0.063,-9.655,0.400898154148906,173.69448997672998,1.7036090225563907,1,0.25
1755690487.3770487,-1.065,0.063,-9.655,0.400898154148906,173.69448997672998,1.7036090225563907,1,0.25
1755690487.403761,-1.065,0.063,-9.655,0.400898154148906,173.69448997672998,1.7036090225563907,1,0.25
1755690487.4309924,-0.884,0.471,-9.41,0.4033273732342004,173.92403167064893,1.7126817042606517,1,0.25
1755690487.4583626,-0.998,0.594,-9.776,0.4064024852286216,173.22497515084487,1.718395989974937,1,0.25
1755690487.4858112,-0.869,0.663,-9.301,0.4087185859488164,173.29744390322455,1.7248621553884713,1,0.25
1755690487.5111465,-0.907,0.346,-9.918,0.41122682913448144,174.4098049439155,1.726766917293233,1,0.25
1755690487.538343,-0.907,0.346,-9.918,0.41122682913448144,174.4098049439155,1.726766917293233,1,0.25
1755690487.5657322,-0.907,0.346,-9.918,0.41122682913448144,174.4098049439155,1.726766917293233,1,0.25
1755690487.5936494,-0.907,0.346,-9.918,0.41122682913448144,174.4098049439155,1.726766917293233,1,0.25
1755690487.621245,-0.943,0.339,-9.574,0.41392104017553877,174.02477338057113,1.7285714285714286,1,0.25
1755690487.6485484,-0.936,0.238,-9.614,0.41655836025699927,174.26353587913107,1.7289223057644107,1,0.25
1755690487.676001,-1.136,0.334,-9.935,0.42041302013615134,173.20337910492603,1.7389473684210528,1,0.25
1755690487.7040987,-1.136,0.334,-9.935,0.42041302013615134,173.20337910492603,1.7389473684210528,1,0.25
1755690487.731137,-1.136,0.334,-9.935,0.42041302013615134,173.20337910492603,1.7389473684210528,1,0.25
1755690487.7585878,-1.136,0.334,-9.935,0.42041302013615134,173.20337910492603,1.7389473684210528,1,0.25
1755690487.7854724,-1.129,0.572,-9.676,0.4241859380036071,172.547950953929,1.739298245614035,1,0.25
1755690487.8123624,-0.924,0.579,-9.785,0.42669444571027637,173.64130952694381,1.749573934837093,1,0.25
1755690487.839974,-1.079,0.591,-9.671,0.43009156292584955,172.75031351066514,1.7573433583959899,1,0.25
1755690487.8674836,-1.079,0.591,-9.671,0.43009156292584955,172.75031351066514,1.7573433583959899,1,0.25
1755690487.8945649,-0.788,0.704,-9.743,0.43189247793866475,173.81019745666913,1.7719298245614035,1,0.2
1755690487.921977,-0.788,0.704,-9.743,0.43189247793866475,173.81019745666913,1.7719298245614035,1,0.2
1755690487.9491167,-0.788,0.704,-9.743,0.43189247793866475,173.81019745666913,1.7719298245614035,1,0.2
1755690487.976256,-1.024,0.433,-10.002,0.43491671903940415,173.65725473305918,1.783759398496241,1,0.2
1755690488.0040777,-1.034,0.574,-9.462,0.437978815126942,172.87565302896635,1.784260651629073,1,0.2
1755690488.0316927,-1.034,0.574,-9.462,0.437978815126942,172.87565302896635,1.784260651629073,1,0.2
1755690488.059382,-1.034,0.574,-9.462,0.437978815126942,172.87565302896635,1.784260651629073,1,0.2
1755690488.0867856,-1.034,0.574,-9.462,0.437978815126942,172.87565302896635,1.784260651629073,1,0.2
1755690488.114137,-1.034,0.574,-9.462,0.437978815126942,172.87565302896635,1.784260651629073,1,0.2
1755690488.1413376,-1.034,0.574,-9.462,0.437978815126942,172.87565302896635,1.784260651629073,1,0.2
1755690488.1684954,-1.07,0.387,-9.659,0.4412342830062052,173.28149069007253,1.7860651629072688,1,0.2
1755690488.1955838,-1.024,0.373,-9.671,0.44419492624297274,173.57049961310102,1.7883709273182962,1,0.2
1755690488.2212534,-0.65,0.337,-9.724,0.4453822880402857,175.6940466500759,1.807117794486216,1,0.2
1755690488.249574,-0.831,0.262,-9.557,0.4473162024787387,174.79067354246845,1.8161904761904766,1,0.2
1755690488.2769556,-0.831,0.262,-9.557,0.4473162024787387,174.79067354246845,1.8161904761904766,1,0.2
1755690488.304317,-0.831,0.262,-9.557,0.4473162024787387,174.79067354246845,1.8161904761904766,1,0.2
1755690488.3313785,-0.831,0.262,-9.557,0.4473162024787387,174.79067354246845,1.8161904761904766,1,0.2
1755690488.358888,-0.533,0.091,-9.888,0.448109370020311,176.86997182365525,1.8311278195488725,1,0.2
1755690488.3870637,-0.915,0.084,-9.971,0.45043875277333767,174.73494899548936,1.8502756892230579,1,0.2
1755690488.4150064,-0.745,0.245,-9.476,0.451976362766904,175.26887794139404,1.858796992481203,1,0.2
1755690488.443209,-0.628,-0.195,-9.835,0.4530657706117292,176.17483895267034,1.864661654135338,1,0.05
1755690488.4710643,-0.628,-0.195,-9.835,0.4530657706117292,176.17483895267034,1.864661654135338,1,0.05
1755690488.4983478,-0.628,-0.195,-9.835,0.4530657706117292,176.17483895267034,1.864661654135338,1,0.05
1755690488.525548,-0.628,-0.195,-9.835,0.4530657706117292,176.17483895267034,1.864661654135338,1,0.05
1755690488.5530303,-0.869,0.067,-9.384,0.4551444770619545,174.69363370189822,1.8767418546365917,1,0.05
1755690488.5808592,-0.836,-0.024,-9.624,0.45705988119720153,175.03336219800954,1.8783959899749374,1,0.05
1755690488.6083875,-0.979,-0.226,-10.092,0.45967362062663547,174.31443756508085,1.8855639097744366,1,0.05
1755690488.6362398,-0.457,-0.041,-9.769,0.46024119763445775,177.31087824828776,1.9117293233082708,1,0.05
1755690488.6639926,-0.457,-0.041,-9.769,0.46024119763445775,177.31087824828776,1.9117293233082708,1,0.05
1755690488.6915712,-0.457,-0.041,-9.769,0.46024119763445775,177.31087824828776,1.9117293233082708,1,0.05
1755690488.7189326,-0.457,-0.041,-9.769,0.46024119763445775,177.31087824828776,1.9117293233082708,1,0.05
1755690488.7468853,-0.454,-0.721,-9.973,0.46080066189188573,175.1168624185859,1.9118796992481204,1,0.05
1755690488.7744443,-0.314,-0.639,-9.695,0.4610680427008577,175.79985455706858,1.9188972431077693,1,0.05
1755690488.8016558,-0.4,-0.615,-9.379,0.4615016142983684,175.5273530947631,1.9232080200501254,1,0.05
1755690488.8290248,-0.4,-0.615,-9.379,0.4615016142983684,175.5273530947631,1.9232080200501254,1,0.05
1755690488.8563502,-0.4,-0.615,-9.379,0.4615016142983684,175.5273530947631,1.9232080200501254,1,0.05
1755690488.883833,-0.4,-0.615,-9.379,0.4615016142983684,175.5273530947631,1.9232080200501254,1,0.05
1755690488.9111722,-0.4,-0.615,-9.379,0.4615016142983684,175.5273530947631,1.9232080200501254,1,0.05
1755690488.939043,-0.4,-0.615,-9.379,0.4615016142983684,175.5273530947631,1.9232080200501254,1,0.05
1755690488.9668882,-0.4,-0.615,-9.379,0.4615016142983684,175.5273530947631,1.9232080200501254,1,0.05
1755690488.994278,-0.178,-0.577,-9.64,0.461587424005464,176.4157801077303,1.9343358395989974,1,0.05
1755690489.0223398,-0.14,-0.485,-9.638,0.46164049865669277,177.00180366111988,1.9362406015037597,1,0.05
1755690489.0497437,-0.221,-0.668,-9.396,0.4617727281899614,175.7174650070449,1.9403007518796993,1,0.05
1755690489.077208,-0.023,0.012,-9.852,0.4617741601692325,179.84912935133002,1.9502255639097743,1,0.05
1755690489.104797,0.087,0.103,-10.068,0.46179464862642144,179.23276833961984,1.9557393483709278,1,0.05
1755690489.1322303,0.194,0.339,-9.453,0.46189651167767004,177.63396001481928,1.961102756892231,1,0.05
1755690489.1595728,0.194,0.339,-9.453,0.46189651167767004,177.63396001481928,1.961102756892231,1,0.05
1755690489.1869311,0.125,0.147,-10.158,0.4619387946470831,178.91174156677357,1.9645614035087722,1,0.05
1755690489.2141397,0.125,0.147,-10.158,0.4619387946470831,178.91174156677357,1.9645614035087722,1,0.05
1755690489.2420182,-0.102,0.113,-9.274,0.46196694686957857,179.05961071498956,1.9759398496240603,1,0.05
1755690489.2702656,-0.102,0.113,-9.274,0.46196694686957857,179.05961071498956,1.9759398496240603,1,0.05
1755690489.298147,-0.051,0.312,-10.322,0.46197398465714495,178.24570118485093,1.9784962406015036,1,0.05
1755690489.3253777,-0.051,0.312,-10.322,0.46197398465714495,178.24570118485093,1.9784962406015036,1,0.05
1755690489.3528483,-0.378,-0.091,-9.992,0.46236043569924967,177.7716839386815,1.9948872180451125,1,0.05
1755690489.3801873,-0.378,-0.091,-9.992,0.46236043569924967,177.7716839386815,1.9948872180451125,1,0.05
1755690489.4070601,-0.202,0.44,-9.778,0.46247073691207746,177.16534266425305,2.0037092731829573,1,0.05
1755690489.4344018,-0.202,0.44,-9.778,0.46247073691207746,177.16534266425305,2.0037092731829573,1,0.05
1755690489.4621508,-0.571,-0.053,-9.56,0.46335114654007276,176.56723886390668,2.022205513784461,1,0.05
1755690489.490363,-0.504,-0.036,-9.493,0.4640359091708313,176.95319168208647,2.025563909774436,1,0.05
1755690489.5178633,-0.504,-0.036,-9.493,0.4640359091708313,176.95319168208647,2.025563909774436,1,0.05
1755690489.5448208,-0.504,-0.036,-9.493,0.4640359091708313,176.95319168208647,2.025563909774436,1,0.05
1755690489.5721936,-0.659,-0.151,-9.293,0.46520428577131573,175.8389848136158,2.033333333333333,1,0.05
1755690489.600137,-0.659,-0.151,-9.293,0.46520428577131573,175.8389848136158,2.033333333333333,1,0.05
1755690489.6278045,-0.69,-0.043,-9.56,0.46648180832697006,175.86381294128606,2.0348872180451125,1,0.05
1755690489.655531,-0.6,-0.233,-9.315,0.46744548077824005,176.04722854178686,2.0393984962406013,1,0.05
1755690489.6836264,-0.6,-0.233,-9.315,0.46744548077824005,176.04722854178686,2.0393984962406013,1,0.05
1755690489.7114356,-1.079,-0.322,-9.529,0.47054848846851055,173.2607313258199,2.0634085213032582,1,0.05
1755690489.7388556,-1.079,-0.322,-9.529,0.47054848846851055,173.2607313258199,2.0634085213032582,1,0.05
1755690489.7665951,-0.91,-0.175,-9.643,0.47274319667235826,174.51083914553575,2.07187969924812,1,0.05
1755690489.7943165,-0.91,-0.175,-9.643,0.47274319667235826,174.51083914553575,2.07187969924812,1,0.05
1755690489.8215263,-1.389,-0.137,-9.626,0.4778173631210988,171.74978796807594,2.095889724310777,1,0.05
1755690489.8497531,-1.389,-0.137,-9.626,0.4778173631210988,171.74978796807594,2.095889724310777,1,0.05
1755690489.8772538,-1.079,-0.233,-9.99,0.48085344440900074,173.69453668380157,2.1114285714285708,1,0.05
1755690489.9050827,-1.079,-0.233,-9.99,0.48085344440900074,173.69453668380157,2.1114285714285708,1,0.05
1755690489.9325824,-1.029,-0.351,-9.583,0.48359811569111805,173.52731359587878,2.1139348370927316,1,0.05
1755690489.9605417,-1.029,-0.351,-9.583,0.48359811569111805,173.52731359587878,2.1139348370927316,1,0.05
1755690489.9879966,-0.886,-0.199,-9.916,0.48562292728000395,174.76764330899013,2.1211027568922303,1,0.05
1755690490.0153575,-0.886,-0.199,-9.916,0.48562292728000395,174.76764330899013,2.1211027568922303,1,0.05
1755690490.0432734,-0.857,-0.24,-9.709,0.4875097434923737,174.7626428415832,2.122556390977443,1,0.05
1755690490.0710201,-0.857,-0.24,-9.709,0.4875097434923737,174.7626428415832,2.122556390977443,1,0.05
1755690490.0989666,-0.919,-0.454,-9.973,0.4896704529579051,174.13174302235396,2.1256641604010023,1,0.05
1755690490.1266153,-0.919,-0.454,-9.973,0.4896704529579051,174.13174302235396,2.1256641604010023,1,0.05
1755690490.153888,-0.411,-0.147,-9.821,0.4901014741867239,177.45514593218567,2.151127819548872,1,0.05
1755690490.1819146,-0.411,-0.147,-9.821,0.4901014741867239,177.45514593218567,2.151127819548872,1,0.05
1755690490.2090163,-0.557,-0.202,-9.538,0.49089212409652694,176.44537357871798,2.15844611528822,1,0.05
1755690490.236676,-0.557,-0.202,-9.538,0.49089212409652694,176.44537357871798,2.15844611528822,1,0.05
1755690490.2643166,-0.645,-0.183,-9.446,0.4919503430225453,175.94006965561306,2.162857142857143,1,0.05
1755690490.2921712,-0.645,-0.183,-9.446,0.4919503430225453,175.94006965561306,2.162857142857143,1,0.05
1755690490.3196168,-0.409,-0.18,-9.64,0.49237520500122667,177.34598606927446,2.1746867167919794,1,0.05
1755690490.3472545,-0.409,-0.18,-9.64,0.49237520500122667,177.34598606927446,2.1746867167919794,1,0.05
1755690490.3751316,-0.144,-0.243,-9.455,0.492427844968174,178.2888322986755,2.18796992481203,1,0.05
1755690490.4029877,-0.144,-0.243,-9.455,0.492427844968174,178.2888322986755,2.18796992481203,1,0.05
1755690490.430643,-0.211,-0.014,-9.764,0.4925408460219315,178.75930993758413,2.191328320802005,1,0.05
1755690490.4591198,-0.211,-0.014,-9.764,0.4925408460219315,178.75930993758413,2.191328320802005,1,0.05
1755690490.487033,-0.283,-0.235,-9.424,0.4927440588175569,177.76468721382798,2.194937343358396,1,0.05
1755690490.514523,-0.283,-0.235,-9.424,0.4927440588175569,177.76468721382798,2.194937343358396,1,0.05
1755690490.5422792,0.18,-0.147,-9.612,0.4928262447354037,178.61497588770595,2.218145363408521,1,0.05
1755690490.570075,0.18,-0.147,-9.612,0.4928262447354037,178.61497588770595,2.218145363408521,1,0.05
1755690490.5975952,0.28,0.377,-9.536,0.49302505767962745,177.1807178581527,2.2231578947368416,1,0.05
1755690490.6251214,0.28,0.377,-9.536,0.49302505767962745,177.1807178581527,2.2231578947368416,1,0.05
1755690490.6522639,0.332,0.051,-9.899,0.49330443693524595,178.056576806313,2.2257644110275687,1,0.05
1755690490.68013,0.537,-0.324,-9.764,0.4940346040511737,176.32476207414703,2.236040100250626,1,0.05
1755690490.707959,0.537,-0.324,-9.764,0.4940346040511737,176.32476207414703,2.236040100250626,1,0.05
1755690490.7359085,0.647,0.055,-9.655,0.4950926302218606,176.15244649184268,2.241553884711779,1,0.05
1755690490.7633147,0.647,0.055,-9.655,0.4950926302218606,176.15244649184268,2.241553884711779,1,0.05
1755690490.7905414,0.647,0.055,-9.655,0.4950926302218606,176.15244649184268,2.241553884711779,1,0.05
1755690490.8180852,0.824,0.101,-9.852,0.496803937685683,175.1834188729557,2.2504260651629067,1,0.05
1755690490.8457236,0.824,0.101,-9.852,0.496803937685683,175.1834188729557,2.2504260651629067,1,0.05
1755690490.8730147,0.378,0.149,-10.049,0.49716331572230865,177.6846475999914,2.2727819548872175,1,0.05
1755690490.9011884,0.089,-0.118,-9.773,0.4971832308113378,179.13356168033374,2.287268170426065,1,0.05
1755690490.9285383,0.089,-0.118,-9.773,0.4971832308113378,179.13356168033374,2.287268170426065,1,0.05
1755690490.9555733,-0.471,0.411,-9.878,0.49774066289584984,176.3789791072168,2.3153383458646615,1,0.05
1755690490.9835165,-0.471,0.411,-9.878,0.49774066289584984,176.3789791072168,2.3153383458646615,1,0.05
1755690491.0111096,-0.595,-0.183,-9.548,0.49862895022250764,176.26973490613605,2.321553884711779,1,0.05
1755690491.0386252,-0.595,-0.183,-9.548,0.49862895022250764,176.26973490613605,2.321553884711779,1,0.05
1755690491.0662622,-0.65,0.058,-9.954,0.49968698201974404,176.24906616148994,2.3243107769423554,1,0.05
1755690491.0935626,-0.65,0.058,-9.954,0.49968698201974404,176.24906616148994,2.3243107769423554,1,0.05
1755690491.120971,-0.6,-0.086,-10.016,0.5005867357411701,176.53689064508217,2.3268170426065167,1,0.05
1755690491.1486473,-0.6,-0.086,-10.016,0.5005867357411701,176.53689064508217,2.3268170426065167,1,0.05
1755690491.1760774,-0.905,-0.041,-10.009,0.5026277374956539,174.82817312522707,2.3421052631578942,1,0.05
1755690491.2033656,-0.905,-0.041,-10.009,0.5026277374956539,174.82817312522707,2.3421052631578942,1,0.05
1755690491.2305615,-1.506,-0.185,-9.752,0.5082368862056355,171.15622037697173,2.372230576441103,1,0.05
1755690491.2584028,-1.506,-0.185,-9.752,0.5082368862056355,171.15622037697173,2.372230576441103,1,0.05
1755690491.2854073,-1.315,-0.173,-9.172,0.5124722382724746,171.77169433259309,2.381804511278195,1,0.05
1755690491.312683,-1.315,-0.173,-9.172,0.5124722382724746,171.77169433259309,2.381804511278195,1,0.05
1755690491.3403683,-1.224,-0.019,-9.491,0.5161135873041902,172.6505760144788,2.3863659147869676,1,0.05
1755690491.367931,-1.224,-0.019,-9.491,0.5161135873041902,172.6505760144788,2.3863659147869676,1,0.05
1755690491.3954048,-0.841,-0.084,-9.738,0.5178237513865118,175.03959112531976,2.405563909774436,1,0.05
1755690491.4229908,-0.841,-0.084,-9.738,0.5178237513865118,175.03959112531976,2.405563909774436,1,0.05
1755690491.4499516,-0.473,-0.046,-9.911,0.5183635403845451,177.2547753799314,2.4240100250626564,1,0.05
1755690491.477397,-0.473,-0.046,-9.911,0.5183635403845451,177.2547753799314,2.4240100250626564,1,0.05
1755690491.5054102,-0.33,0.07,-10.061,0.5186260791745823,178.07960775766654,2.431177944862155,1,0.05
1755690491.5336554,-0.33,0.07,-10.061,0.5186260791745823,178.07960775766654,2.431177944862155,1,0.05
1755690491.5609214,-0.006,-0.113,-9.997,0.5186261659422903,179.3514787897912,2.4474185463659146,1,0.05
1755690491.5882285,-0.006,-0.113,-9.997,0.5186261659422903,179.3514787897912,2.4474185463659146,1,0.05
1755690491.6155105,-0.006,-0.113,-9.997,0.5186261659422903,179.3514787897912,2.4474185463659146,1,0.05
1755690491.643105,-0.137,0.108,-9.46,0.5186714012744486,178.9435361116596,2.453984962406015,1,0.05
1755690491.6709168,0.263,0.135,-10.253,0.5188380720417498,178.34844828244448,2.4740350877192983,1,0.05
1755690491.6982927,0.263,0.135,-10.253,0.5188380720417498,178.34844828244448,2.4740350877192983,1,0.05
1755690491.7258208,0.578,-0.132,-10.125,0.5196423337258042,176.6488059965199,2.489824561403509,1,0.05
1755690491.7532108,0.578,-0.132,-10.125,0.5196423337258042,176.6488059965199,2.489824561403509,1,0.05
1755690491.7803912,2.924,-0.584,-10.767,0.5398171866474798,164.52077342958424,2.607418546365915,1,0.05
1755690491.8085952,2.924,-0.584,-10.767,0.5398171866474798,164.52077342958424,2.607418546365915,1,0.05
1755690491.8363707,3.243,0.541,-11.216,0.5636445843791991,163.66223015435722,2.6234085213032583,1,0.05
1755690491.8641548,3.243,0.541,-11.216,0.5636445843791991,163.66223015435722,2.6234085213032583,1,0.05
1755690491.8917441,1.765,-0.036,-9.669,0.5705114196928928,169.6529008067076,2.6974937343358394,1,0.05
1755690491.9203346,1.765,-0.036,-9.669,0.5705114196928928,169.6529008067076,2.6974937343358394,1,0.05
1755690491.9482744,2.03,-0.11,-8.189,0.5794700423662987,166.0577769158913,2.7107769423558894,1,0.05
1755690491.9761367,0.142,0.07,-6.632,0.5795135373742359,178.632520477107,2.805413533834587,1,0.05
1755690492.0039077,0.142,0.07,-6.632,0.5795135373742359,178.632520477107,2.805413533834587,1,0.05
1755690492.0313816,0.044,-0.216,-6.195,0.5795177132754442,177.96211103919327,2.810325814536341,1,0.05
1755690492.0586867,0.044,-0.216,-6.195,0.5795177132754442,177.96211103919327,2.810325814536341,1,0.05
1755690492.0858796,0.895,-0.199,-8.535,0.581242928989248,173.86861956552636,2.8529824561403507,1,0.05
1755690492.1133738,0.895,-0.199,-8.535,0.581242928989248,173.86861956552636,2.8529824561403507,1,0.05
1755690492.1413596,1.167,0.106,-11.263,0.5841644160679423,174.06030832562425,2.866616541353384,1,0.05
1755690492.1692383,1.167,0.106,-11.263,0.5841644160679423,174.06030832562425,2.866616541353384,1,0.05
1755690492.1966577,1.086,0.063,-11.691,0.5866826697627943,174.68404076476517,2.8706766917293236,1,0.05
1755690492.2243264,1.086,0.063,-11.691,0.5866826697627943,174.68404076476517,2.8706766917293236,1,0.05
1755690492.2515686,1.372,-0.473,-12.171,0.5906797059320728,173.2002717934972,2.8850125313283206,1,0.05
1755690492.2791367,1.372,-0.473,-12.171,0.5906797059320728,173.2002717934972,2.8850125313283206,1,0.05
1755690492.3063602,1.606,0.411,-10.802,0.5961129129619656,171.2750290529015,2.8967418546365913,1,0.05
1755690492.334217,1.606,0.411,-10.802,0.5961129129619656,171.2750290529015,2.8967418546365913,1,0.05
1755690492.3613899,0.516,0.13,-10.322,0.5966709687926839,177.04887659899822,2.951378446115288,1,0.05
1755690492.388952,0.516,0.13,-10.322,0.5966709687926839,177.04887659899822,2.951378446115288,1,0.05
1755690492.4171646,-0.035,0.096,-10.569,0.5966735351094432,179.4460810133301,2.9789974937343358,1,0.05
1755690492.4452257,-0.035,0.096,-10.569,0.5966735351094432,179.4460810133301,2.9789974937343358,1,0.05
1755690492.473018,-0.576,1.005,-8.973,0.597368184204683,172.64413551767055,3.006115288220551,1,0.05
1755690492.500389,-0.576,1.005,-8.973,0.597368184204683,172.64413551767055,3.006115288220551,1,0.05
1755690492.5276258,-1.065,0.002,-10.104,0.5997368673009856,173.98301371030806,3.0306265664160397,1,0.05
1755690492.5549855,-1.065,0.002,-10.104,0.5997368673009856,173.98301371030806,3.0306265664160397,1,0.05
1755690492.5829709,-0.783,0.031,-9.108,0.6010133380383501,175.08262499395138,3.0447619047619043,1,0.05
1755690492.610401,-0.783,0.031,-9.108,0.6010133380383501,175.08262499395138,3.0447619047619043,1,0.05
1755690492.6378324,-0.49,-0.195,-8.844,0.6015124957139294,176.5874427721082,3.059448621553884,1,0.05
1755690492.6655362,-0.49,-0.195,-8.844,0.6015124957139294,176.5874427721082,3.059448621553884,1,0.05
1755690492.6931188,0.27,0.002,-9.182,0.6016639697538818,178.31563624264757,3.0975438596491225,1,0.05
1755690492.7208312,0.27,0.002,-9.182,0.6016639697538818,178.31563624264757,3.0975438596491225,1,0.05
1755690492.74828,0.611,0.087,-9.702,0.6024390716080755,176.36020952110727,3.1146365914786975,1,0.05
1755690492.7758114,0.611,0.087,-9.702,0.6024390716080755,176.36020952110727,3.1146365914786975,1,0.05
1755690492.803353,0.967,0.137,-10.035,0.6043761721808695,174.4411944903205,3.132481203007519,1,0.05
1755690492.8312266,0.967,0.137,-10.035,0.6043761721808695,174.4411944903205,3.132481203007519,1,0.05
1755690492.8591866,1.219,0.125,-10.223,0.6074417338313198,173.1647839485617,3.1451127819548876,1,0.05
1755690492.8879514,1.219,0.125,-10.223,0.6074417338313198,173.1647839485617,3.1451127819548876,1,0.05
1755690492.9157279,0.933,0.226,-10.23,0.6092304018185567,174.63907124225665,3.1594486215538846,1,0.05
1755690492.9435246,0.933,0.226,-10.23,0.6092304018185567,174.63907124225665,3.1594486215538846,1,0.05
1755690492.971013,1.055,0.303,-10.044,0.6115098077708975,173.7632334142637,3.1655639097744364,1,0.05
1755690492.9987817,1.055,0.303,-10.044,0.6115098077708975,173.7632334142637,3.1655639097744364,1,0.05
1755690493.0261686,0.406,0.01,-9.954,0.611846659711402,177.66362840602403,3.198095238095238,1,0.05
1755690493.0538607,0.406,0.01,-9.954,0.611846659711402,177.66362840602403,3.198095238095238,1,0.05
1755690493.0813847,0.263,0.072,-9.776,0.6119879553553321,178.402289462975,3.2052631578947377,1,0.05
1755690493.1091928,-0.054,-0.091,-9.541,0.6119939113259216,179.36457869790712,3.221152882205514,1,0.05
1755690493.1372466,-0.054,-0.091,-9.541,0.6119939113259216,179.36457869790712,3.221152882205514,1,0.05
1755690493.1649406,0.084,-0.243,-9.84,0.6120083230643192,178.50326165914396,3.228070175438596,1,0.05
1755690493.192711,0.084,-0.243,-9.84,0.6120083230643192,178.50326165914396,3.228070175438596,1,0.05
1755690493.221242,0.537,0.2,-9.201,0.612597020887304,176.43624276935432,3.2507769423558894,1,0.05
1755690493.2490509,0.537,0.2,-9.201,0.612597020887304,176.43624276935432,3.2507769423558894,1,0.05
1755690493.276317,0.428,0.132,-9.771,0.6129706926109926,177.3754561212048,3.256240601503759,1,0.05
1755690493.3040507,0.428,0.132,-9.771,0.6129706926109926,177.3754561212048,3.256240601503759,1,0.05
1755690493.3314803,0.678,0.106,-9.849,0.6139073871521665,176.01431707443345,3.268771929824561,1,0.05
1755690493.3590827,0.678,0.106,-9.849,0.6139073871521665,176.01431707443345,3.268771929824561,1,0.05
1755690493.3864267,0.619,0.118,-9.733,0.6146870606251607,176.29565063812464,3.2717293233082696,1,0.05
1755690493.4138675,0.619,0.118,-9.733,0.6146870606251607,176.29565063812464,3.2717293233082696,1,0.05
1755690493.4411578,0.738,0.207,-9.626,0.6157936281742448,175.44736555050665,3.2776942355889718,1,0.05
1755690493.46922,0.738,0.207,-9.626,0.6157936281742448,175.44736555050665,3.2776942355889718,1,0.05
1755690493.497184,0.816,0.019,-9.79,0.6171437697165871,175.2341041583022,3.281604010025062,1,0.05
1755690493.5246906,0.816,0.019,-9.79,0.6171437697165871,175.2341041583022,3.281604010025062,1,0.05
1755690493.5524316,0.492,-0.221,-10.011,0.6176338660565821,176.91609430910125,3.2978446115288214,1,0.05
1755690493.5806873,0.492,-0.221,-10.011,0.6176338660565821,176.91609430910125,3.2978446115288214,1,0.05
1755690493.6080346,0.464,0.055,-9.845,0.6180694398690166,177.2827543416236,3.2992481203007515,1,0.05
1755690493.6362212,0.464,0.055,-9.845,0.6180694398690166,177.2827543416236,3.2992481203007515,1,0.05
1755690493.6639743,0.328,0.12,-9.541,0.618286982314847,177.9035413795304,3.306065162907268,1,0.05
1755690493.6920736,0.328,0.12,-9.541,0.618286982314847,177.9035413795304,3.306065162907268,1,0.05
1755690493.7194338,0.38,0.051,-9.845,0.6185788490564481,177.76978033278266,3.3086716791979947,1,0.05
1755690493.7473218,0.38,0.051,-9.845,0.6185788490564481,177.76978033278266,3.3086716791979947,1,0.05
1755690493.774749,0.328,0.007,-9.588,0.6187962124156869,178.040262412696,3.311278195488722,1,0.05
1755690493.802752,0.328,0.007,-9.588,0.6187962124156869,178.040262412696,3.311278195488722,1,0.05
1755690493.830684,0.256,-0.257,-9.735,0.6189285843294039,177.86602666156634,3.314887218045113,1,0.05
1755690493.8584177,0.256,-0.257,-9.735,0.6189285843294039,177.86602666156634,3.314887218045113,1,0.05
1755690493.8859665,0.571,-0.223,-9.607,0.6195867130596007,176.34903615570025,3.3306766917293236,1,0.05
1755690493.913987,0.571,-0.223,-9.607,0.6195867130596007,176.34903615570025,3.3306766917293236,1,0.05
1755690493.9413018,0.511,-0.007,-9.716,0.6201132940842343,176.98909715515788,3.333684210526315,1,0.05
1755690493.9688947,0.511,-0.007,-9.716,0.6201132940842343,176.98909715515788,3.333684210526315,1,0.05
1755690493.9968362,0.571,-0.055,-9.933,0.6207701668089407,176.69477081095258,3.3366917293233085,1,0.05
1755690494.024612,0.571,-0.055,-9.933,0.6207701668089407,176.69477081095258,3.3366917293233085,1,0.05
1755690494.0520644,0.642,0.041,-9.681,0.6215995575931501,176.19825263412548,3.340250626566416,1,0.05
1755690494.0795884,0.642,0.041,-9.681,0.6215995575931501,176.19825263412548,3.340250626566416,1,0.05
1755690494.1070235,0.444,-0.06,-9.857,0.6219958601148403,177.3974943062267,3.3501754385964913,1,0.05
1755690494.1347735,0.48,-0.132,-9.902,0.6224587134903005,177.1218999084148,3.351979949874687,1,0.05
1755690494.162389,0.48,-0.132,-9.902,0.6224587134903005,177.1218999084148,3.351979949874687,1,0.05
1755690494.1898398,0.48,-0.132,-9.902,0.6224587134903005,177.1218999084148,3.351979949874687,1,0.05
1755690494.217567,0.404,-0.012,-9.491,0.6227863919515262,177.56150879297473,3.355789473684211,1,0.05
1755690494.2457767,1.21,0.01,-10.108,0.625718099466525,173.17353640949284,3.396190476190476,1,0.05
1755690494.273944,1.21,0.01,-10.108,0.625718099466525,173.17353640949284,3.396190476190476,1,0.05
1755690494.301479,4.262,0.781,-11.501,0.6610104008258871,159.35625014729763,3.5491729323308268,1,0.05
1755690494.3303583,4.262,0.781,-11.501,0.6610104008258871,159.35625014729763,3.5491729323308268,1,0.05
1755690494.3586583,7.287,-0.529,-13.972,0.7547752463482092,152.39423204794556,3.700802005012531,1,0.05
1755690494.386939,7.287,-0.529,-13.972,0.7547752463482092,152.39423204794556,3.700802005012531,1,0.05
1755690494.4148781,5.225,-0.279,-12.162,0.798709731379304,156.72122879207276,3.804160401002506,1,0.05
1755690494.443456,5.225,-0.279,-12.162,0.798709731379304,156.72122879207276,3.804160401002506,1,0.05
1755690494.4715817,1.281,1.122,-7.347,0.8012737593981223,166.9503703074504,4.001854636591478,1,0.05
1755690494.4998558,1.281,1.122,-7.347,0.8012737593981223,166.9503703074504,4.001854636591478,1,0.05
1755690494.5277956,-0.576,0.014,-3.389,0.8017911682601648,170.35129555476396,4.094937343358396,1,0.05
1755690494.555995,-0.576,0.014,-3.389,0.8017911682601648,170.35129555476396,4.094937343358396,1,0.05
1755690494.5839837,0.28,-0.947,-3.7,0.8019133852854683,165.05614968193697,4.137844611528822,1,0.05
1755690494.6123235,0.28,-0.947,-3.7,0.8019133852854683,165.05614968193697,4.137844611528822,1,0.05
1755690494.6406643,1.222,0.01,-6.204,0.8042377058432414,168.856746384865,4.185062656641604,1,0.05
1755690494.6691759,1.222,0.01,-6.204,0.8042377058432414,168.856746384865,4.185062656641604,1,0.05
1755690494.6974967,0.726,0.779,-11.092,0.8050565057808055,174.51628984159558,4.209924812030075,1,0.05
1755690494.725748,0.726,0.779,-11.092,0.8050565057808055,174.51628984159558,4.209924812030075,1,0.05
1755690494.7532005,0.819,0.447,-13.882,0.8060973142245296,176.15479285759392,4.2145864661654135,1,0.05
1755690494.7811217,0.819,0.447,-13.882,0.8060973142245296,176.15479285759392,4.2145864661654135,1,0.05
1755690494.808938,1.272,-0.639,-14.096,0.8086023992049491,174.23353941538426,4.237293233082706,1,0.05
1755690494.8368802,1.272,-0.639,-14.096,0.8086023992049491,174.23353941538426,4.237293233082706,1,0.05
1755690494.8645778,0.363,-0.341,-12.851,0.8088060722447625,177.78058748110254,4.282857142857142,1,0.05
1755690494.8928328,1.675,-0.144,-10.897,0.8131305706957525,171.22961148357498,4.348621553884712,1,0.05
1755690494.9208982,1.675,-0.144,-10.897,0.8131305706957525,171.22961148357498,4.348621553884712,1,0.05
1755690494.948489,0.218,0.387,-11.118,0.813203624561524,177.71218500327657,4.421654135338345,1,0.05
1755690494.9745355,0.218,0.387,-11.118,0.813203624561524,177.71218500327657,4.421654135338345,1,0.05
1755690495.0020385,-0.278,0.137,-11.765,0.8133224114703835,178.4910121651041,4.446516290726817,1,0.05
1755690495.0300055,-0.278,0.137,-11.765,0.8133224114703835,178.4910121651041,4.446516290726817,1,0.05
1755690495.0576432,-0.5,0.01,-10.931,0.8137065472269471,177.3805093750977,4.457644110275689,1,0.05
1755690495.0858238,-0.5,0.01,-10.931,0.8137065472269471,177.3805093750977,4.457644110275689,1,0.05
1755690495.1138248,-0.526,-0.216,-10.277,0.8141314605148238,176.8330731787857,4.458947368421052,1,0.05
1755690495.141445,-0.526,-0.216,-10.277,0.8141314605148238,176.8330731787857,4.458947368421052,1,0.05
1755690495.1696033,-0.144,-0.101,-8.295,0.8141632975024113,178.78526858210196,4.4780952380952375,1,0.05
1755690495.1976485,-0.144,-0.101,-8.295,0.8141632975024113,178.78526858210196,4.4780952380952375,1,0.05
1755690495.2253075,0.163,0.101,-7.915,0.8142040883586866,178.61217859395086,4.493483709273183,1,0.05
1755690495.2532487,0.163,0.101,-7.915,0.8142040883586866,178.61217859395086,4.493483709273183,1,0.05
1755690495.2810128,0.804,0.101,-8.381,0.8151958890352674,174.47750874740126,4.5256140350877185,1,0.05
1755690495.3096237,0.804,0.101,-8.381,0.8151958890352674,174.47750874740126,4.5256140350877185,1,0.05
1755690495.3379729,0.833,0.166,-9.206,0.8162591867783173,174.72860602837997,4.527067669172932,1,0.05
1755690495.3656323,0.833,0.166,-9.206,0.8162591867783173,174.72860602837997,4.527067669172932,1,0.05
1755690495.3941314,0.752,0.087,-10.294,0.8171247273213558,175.79406677122884,4.531127819548872,1,0.05
1755690495.4218814,0.752,0.087,-10.294,0.8171247273213558,175.79406677122884,4.531127819548872,1,0.05
1755690495.4499068,0.599,0.002,-11.216,0.817673420443639,176.9429574485235,4.5387969924812035,1,0.05
1755690495.4777787,0.599,0.002,-11.216,0.817673420443639,176.9429574485235,4.5387969924812035,1,0.05
1755690495.5059288,1.052,0.103,-10.905,0.8193635228029132,174.46357086766773,4.561503759398496,1,0.05
1755690495.534359,1.052,0.103,-10.905,0.8193635228029132,174.46357086766773,4.561503759398496,1,0.05
1755690495.562694,1.336,0.142,-10.722,0.8220820047294551,172.85775160864674,4.575739348370926,1,0.05
1755690495.591165,1.336,0.142,-10.722,0.8220820047294551,172.85775160864674,4.575739348370926,1,0.05
1755690495.618954,0.824,0.324,-10.277,0.823113760363657,175.0758653575282,4.601403508771929,1,0.05
1755690495.6474032,0.824,0.324,-10.277,0.823113760363657,175.0758653575282,4.601403508771929,1,0.05
1755690495.675548,-0.059,0.884,-12.005,0.8231190466755097,175.7792340106319,4.645664160401002,1,0.05
1755690495.704441,0.156,0.803,-10.836,0.823156002832999,175.6829129961213,4.656441102756891,1,0.05
1755690495.7330296,0.156,0.803,-10.836,0.823156002832999,175.6829129961213,4.656441102756891,1,0.05
1755690495.761009,-0.39,1.812,-10.206,0.8233869412372289,169.70679032369156,4.683809523809523,1,0.05
1755690495.789448,-0.39,1.812,-10.206,0.8233869412372289,169.70679032369156,4.683809523809523,1,0.05
1755690495.8178043,-0.037,0.836,-7.49,0.8233890195405814,173.62508043220595,4.701503759398495,1,0.05
1755690495.8463933,-0.037,0.836,-7.49,0.8233890195405814,173.62508043220595,4.701503759398495,1,0.05
1755690495.874365,0.871,2.694,-7.283,0.8245399201979247,158.75615563043525,4.7470175438596485,1,0.05
1755690495.903323,0.871,2.694,-7.283,0.8245399201979247,158.75615563043525,4.7470175438596485,1,0.05
1755690495.9324462,1.935,2.718,-7.371,0.8301967492709184,155.64647334664468,4.800350877192981,1,0.05
1755690495.961256,1.935,2.718,-7.371,0.8301967492709184,155.64647334664468,4.800350877192981,1,0.05
1755690495.9898202,1.849,3.314,-8.086,0.8353284653356428,154.85842038382248,4.804661654135337,1,0.05
1755690496.0185788,1.849,3.314,-8.086,0.8353284653356428,154.85842038382248,4.804661654135337,1,0.05
1755690496.0469863,0.778,1.579,-10.493,0.8362337322782428,170.47696621904547,4.858345864661653,1,0.05
1755690496.0754628,0.778,1.579,-10.493,0.8362337322782428,170.47696621904547,4.858345864661653,1,0.05
1755690496.1040866,0.158,-0.012,-10.529,0.8362710475677129,179.13779848230766,4.889423558897243,1,0.05
1755690496.1322968,0.158,-0.012,-10.529,0.8362710475677129,179.13779848230766,4.889423558897243,1,0.05
1755690496.1603453,0.096,-0.437,-10.042,0.8362848228922967,177.44887904519197,4.8925313283208025,1,0.05
1755690496.1886241,1.086,-1.247,-9.377,0.8380458191531057,169.99890047928585,4.942155388471178,1,0.05
1755690496.2175865,1.086,-1.247,-9.377,0.8380458191531057,169.99890047928585,4.942155388471178,1,0.05
1755690496.245883,0.378,-2.499,-9.146,0.8382589128664245,164.55227313864768,4.977644110275689,1,0.05
1755690496.2743547,0.378,-2.499,-9.146,0.8382589128664245,164.55227313864768,4.977644110275689,1,0.05
1755690496.30252,0.275,-2.566,-9.36,0.838371676227197,164.58566097790094,4.98280701754386,1,0.05
1755690496.330445,0.275,-2.566,-9.36,0.838371676227197,164.58566097790094,4.98280701754386,1,0.05
1755690496.3589017,0.537,-3.107,-9.759,0.8388015200272351,162.09471697626697,4.99593984962406,1,0.05
1755690496.387166,0.537,-3.107,-9.759,0.8388015200272351,162.09471697626697,4.99593984962406,1,0.05
1755690496.414781,0.537,-3.107,-9.759,0.8388015200272351,162.09471697626697,4.99593984962406,1,0.05
1755690496.4427986,0.368,-2.615,-8.664,0.8390033075024198,163.04890236402647,5.004411027568922,1,0.05
1755690496.4711812,0.354,-2.833,-9.248,0.8391899904074166,162.84355910987034,5.005112781954887,1,0.05
1755690496.499844,0.354,-2.833,-9.248,0.8391899904074166,162.84355910987034,5.005112781954887,1,0.05
1755690496.527858,0.268,-3.093,-9.56,0.8392969677057103,162.00890859298627,5.009423558897243,1,0.05
1755690496.5559533,0.268,-3.093,-9.56,0.8392969677057103,162.00890859298627,5.009423558897243,1,0.05
1755690496.5839736,0.123,-1.627,-9.593,0.8393194996543332,170.34712083285663,5.016691729323309,1,0.05
1755690496.613525,0.123,-1.627,-9.593,0.8393194996543332,170.34712083285663,5.016691729323309,1,0.05
1755690496.6429858,0.373,-1.0,-8.761,0.8395266791472442,173.0542262543783,5.02922305764411,1,0.05
1755690496.6719885,0.373,-1.0,-8.761,0.8395266791472442,173.0542262543783,5.02922305764411,1,0.05
1755690496.7000692,1.069,-1.226,-9.084,0.8412264543510267,169.84806900566178,5.064110275689224,1,0.05
1755690496.7284367,1.069,-1.226,-9.084,0.8412264543510267,169.84806900566178,5.064110275689224,1,0.05
1755690496.7562153,-0.316,-0.591,-9.308,0.8413748198632997,175.88180513773347,5.133533834586467,1,0.05
1755690496.7846022,0.487,-0.923,-11.057,0.8417270994805858,174.6081952979026,5.1737844611528825,1,0.05
1755690496.813835,0.487,-0.923,-11.057,0.8417270994805858,174.6081952979026,5.1737844611528825,1,0.05
1755690496.8425589,0.926,-0.163,-10.957,0.8429995255040182,175.09537790051746,5.195789473684211,1,0.05
1755690496.871208,0.926,-0.163,-10.957,0.8429995255040182,175.09537790051746,5.195789473684211,1,0.05
1755690496.89948,1.005,-0.704,-10.6,0.8444958629265156,173.39688614891418,5.199749373433583,1,0.05
1755690496.9278684,1.005,-0.704,-10.6,0.8444958629265156,173.39688614891418,5.199749373433583,1,0.05
1755690496.9558208,0.428,0.49,-10.253,0.8447669634283764,176.36917165425098,5.228671679197994,1,0.05
1755690496.9841175,0.428,0.49,-10.253,0.8447669634283764,176.36917165425098,5.228671679197994,1,0.05
1755690497.0126047,-0.042,0.269,-9.612,0.8447695736116446,178.37753581451372,5.252230576441103,1,0.05
1755690497.0412722,-0.042,0.269,-9.612,0.8447695736116446,178.37753581451372,5.252230576441103,1,0.05
1755690497.069536,-0.75,0.163,-9.495,0.84560149154315,175.37866418752634,5.287719298245615,1,0.05
1755690497.0979345,-0.75,0.163,-9.495,0.84560149154315,175.37866418752634,5.287719298245615,1,0.05
1755690497.126036,-0.671,0.459,-9.75,0.8462667930386966,175.2336090321128,5.291679197994988,1,0.05
1755690497.1541026,-0.671,0.459,-9.75,0.8462667930386966,175.2336090321128,5.291679197994988,1,0.05
1755690497.182274,0.23,-0.038,-9.754,0.8463449267290494,178.63090680087757,5.336842105263157,1,0.05
1755690497.210559,0.23,-0.038,-9.754,0.8463449267290494,178.63090680087757,5.336842105263157,1,0.05
1755690497.2394059,0.866,-0.493,-9.966,0.8474518422895781,174.2899967901494,5.368721804511278,1,0.05
1755690497.2679615,0.707,0.202,-10.263,0.8481888041586024,175.90205444500805,5.3766917293233085,1,0.05
1755690497.2966714,0.707,0.202,-10.263,0.8481888041586024,175.90205444500805,5.3766917293233085,1,0.05
1755690497.3249586,0.382,0.053,-10.218,0.8484038292582137,177.83850464542252,5.392982456140351,1,0.05
1755690497.353319,0.382,0.053,-10.218,0.8484038292582137,177.83850464542252,5.392982456140351,1,0.05
1755690497.3815293,-0.02,0.137,-9.141,0.8484044185999975,179.13224835630558,5.4131328320801995,1,0.05
1755690497.409721,-0.02,0.137,-9.141,0.8484044185999975,179.13224835630558,5.4131328320801995,1,0.05
1755690497.4381483,-0.347,0.113,-9.676,0.8485818051313615,177.84008221091827,5.4295238095238085,1,0.05
1755690497.4660542,-0.347,0.113,-9.676,0.8485818051313615,177.84008221091827,5.4295238095238085,1,0.05
1755690497.4936686,-0.731,-0.834,-12.273,0.849368578710091,174.83664592252038,5.448771929824562,1,0.05
1755690497.5217872,-0.731,-0.834,-12.273,0.849368578710091,174.83664592252038,5.448771929824562,1,0.05
1755690497.550451,-1.449,4.263,-7.965,0.8524529224537857,150.52098849959285,5.484761904761905,1,0.05
1755690497.578971,-1.449,4.263,-7.965,0.8524529224537857,150.52098849959285,5.484761904761905,1,0.05
1755690497.6068037,2.874,3.369,-11.061,0.8644800026605589,158.1810783206611,5.7014536340852136,1,0.05
1755690497.6361883,2.874,3.369,-11.061,0.8644800026605589,158.1810783206611,5.7014536340852136,1,0.05
1755690497.6644177,7.399,-2.54,-10.491,0.9403130741939092,143.2891599713354,5.92827067669173,1,0.05
1755690497.6932194,7.399,-2.54,-10.491,0.9403130741939092,143.2891599713354,5.92827067669173,1,0.05
1755690497.7211535,0.304,-3.746,-9.947,0.940435918869542,159.30172907615298,6.28390977443609,1,0.05
1755690497.7504625,0.304,-3.746,-9.947,0.940435918869542,159.30172907615298,6.28390977443609,1,0.05
1755690497.778757,-2.619,-1.694,-7.217,0.9495091468753737,156.62657087532511,6.430426065162908,1,0.05
1755690497.807236,-2.619,-1.694,-7.217,0.9495091468753737,156.62657087532511,6.430426065162908,1,0.05
1755690497.8363178,-2.345,0.81,-9.215,0.956721057832428,164.9315645994204,6.444160401002507,1,0.05
1755690497.8653035,0.237,-0.332,-8.143,0.9567944423960666,177.1322397000803,6.57358395989975,1,0.05
1755690497.893752,0.237,-0.332,-8.143,0.9567944423960666,177.1322397000803,6.57358395989975,1,0.05
1755690497.9219842,-0.645,-0.721,-7.248,0.9573378021889661,172.39757679839954,6.617794486215539,1,0.05
1755690497.9509048,-0.645,-0.721,-7.248,0.9573378021889661,172.39757679839954,6.617794486215539,1,0.05
1755690497.9787924,1.296,-0.632,-9.759,0.9595283776418496,171.59538096818937,6.715087719298246,1,0.05
1755690498.0071964,1.296,-0.632,-9.759,0.9595283776418496,171.59538096818937,6.715087719298246,1,0.05
1755690498.0360513,2.104,-0.524,-13.316,0.9652780674499964,170.75158843673336,6.755588972431079,1,0.05
1755690498.0644274,2.104,-0.524,-13.316,0.9652780674499964,170.75158843673336,6.755588972431079,1,0.05
1755690498.092162,1.622,3.631,-9.84,0.9686789754609109,157.99401671250925,6.779749373433586,1,0.05
1755690498.12121,1.622,3.631,-9.84,0.9686789754609109,157.99401671250925,6.779749373433586,1,0.05
1755690498.149349,1.088,0.464,-9.968,0.9702052965738746,173.23288343768596,6.806516290726817,1,0.05
1755690498.1777875,1.088,0.464,-9.968,0.9702052965738746,173.23288343768596,6.806516290726817,1,0.05
1755690498.2066133,0.244,0.161,-9.852,0.9702819989570043,178.30040813885833,6.848822055137846,1,0.05
1755690498.234832,0.244,0.161,-9.852,0.9702819989570043,178.30040813885833,6.848822055137846,1,0.05
1755690498.2633874,-0.805,-0.976,-9.861,0.9711164811699985,172.68899381014015,6.9014035087719305,1,0.05
1755690498.291679,-0.805,-0.976,-9.861,0.9711164811699985,172.68899381014015,6.9014035087719305,1,0.05
1755690498.3201585,-0.624,-0.074,-9.557,0.9716175482153458,176.2382185559342,6.910476190476191,1,0.05
1755690498.348524,0.156,-0.598,-9.586,0.9716488563261936,176.31122508386576,6.949573934837093,1,0.05
1755690498.377183,0.156,-0.598,-9.586,0.9716488563261936,176.31122508386576,6.949573934837093,1,0.05
1755690498.4056327,1.086,-0.029,-9.852,0.9731649346333847,173.7073762986906,6.996190476190478,1,0.05
1755690498.434288,1.086,-0.029,-9.852,0.9731649346333847,173.7073762986906,6.996190476190478,1,0.05
1755690498.462827,0.905,-0.646,-9.997,0.9742163786859672,173.65340561749719,7.005263157894736,1,0.05
1755690498.4914658,0.905,-0.646,-9.997,0.9742163786859672,173.65340561749719,7.005263157894736,1,0.05
1755690498.5200775,0.528,-0.036,-9.716,0.9745740159166979,176.8822074177148,7.024160401002506,1,0.05
1755690498.548263,0.528,-0.036,-9.716,0.9745740159166979,176.8822074177148,7.024160401002506,1,0.05
1755690498.5763326,0.325,-0.166,-9.552,0.9747094823587181,177.8120455340751,7.034335839598996,1,0.05
1755690498.6046925,0.325,-0.166,-9.552,0.9747094823587181,177.8120455340751,7.034335839598996,1,0.05
1755690498.6328228,-0.271,-0.125,-9.864,0.9748036610005114,178.26702188049342,7.064210526315789,1,0.05
1755690498.6609843,-0.271,-0.125,-9.864,0.9748036610005114,178.26702188049342,7.064210526315789,1,0.05
1755690498.6890762,-0.025,-0.353,-9.56,0.9748044624436225,177.88004024265427,7.076541353383458,1,0.05
1755690498.7175393,-0.025,-0.353,-9.56,0.9748044624436225,177.88004024265427,7.076541353383458,1,0.05
1755690498.7463694,0.204,-0.509,-9.892,0.9748578255314976,176.82708233195606,7.088020050125312,1,0.05
1755690498.7746418,0.204,-0.509,-9.892,0.9748578255314976,176.82708233195606,7.088020050125312,1,0.05
1755690498.8025727,0.344,-0.466,-9.358,0.9750095486711912,176.45817584617257,7.095037593984963,1,0.05
1755690498.8306804,0.344,-0.466,-9.358,0.9750095486711912,176.45817584617257,7.095037593984963,1,0.05
1755690498.858979,0.526,-0.274,-9.852,0.9753641935195284,176.5549723511886,7.104160401002506,1,0.05
1755690498.8872635,0.113,-0.411,-9.819,0.9753805577824483,177.51430237238523,7.124862155388471,1,0.05
1755690498.9159687,0.113,-0.411,-9.819,0.9753805577824483,177.51430237238523,7.124862155388471,1,0.05
1755690498.9442077,-0.078,-0.428,-9.531,0.9753883547080107,177.3865065914483,7.134436090225564,1,0.05
1755690498.972881,-0.078,-0.428,-9.531,0.9753883547080107,177.3865065914483,7.134436090225564,1,0.05
1755690499.0012882,0.018,-0.5,-9.588,0.9753887699271505,177.01288376100692,7.139248120300752,1,0.05
1755690499.0299609,0.018,-0.5,-9.588,0.9753887699271505,177.01288376100692,7.139248120300752,1,0.05
1755690499.0584419,0.468,-0.733,-9.747,0.9756694176307875,174.90136463743065,7.161804511278195,1,0.05
1755690499.0868714,0.468,-0.733,-9.747,0.9756694176307875,174.90136463743065,7.161804511278195,1,0.05
1755690499.115201,0.356,-0.699,-9.6,0.9758317746927491,175.32863149016498,7.167418546365914,1,0.05
1755690499.1441615,0.356,-0.699,-9.6,0.9758317746927491,175.32863149016498,7.167418546365914,1,0.05
1755690499.173106,1.014,0.067,-9.438,0.9771479634630571,173.85450796027723,7.200401002506266,1,0.05
1755690499.20137,1.014,0.067,-9.438,0.9771479634630571,173.85450796027723,7.200401002506266,1,0.05
1755690499.2300231,1.014,0.067,-9.438,0.9771479634630571,173.85450796027723,7.200401002506266,1,0.05
1755690499.258913,1.963,0.805,-12.772,0.9820649494814485,170.56831173363034,7.24796992481203,1,0.05
1755690499.28775,8.331,0.586,-13.666,1.0667546425959438,148.57000807439823,7.567167919799498,1,0.05
1755690499.3167922,8.331,0.586,-13.666,1.0667546425959438,148.57000807439823,7.567167919799498,1,0.05
1755690499.3457608,5.842,0.305,-15.006,1.1060234525090324,158.70211658014762,7.691929824561403,1,0.05
1755690499.3746643,5.842,0.305,-15.006,1.1060234525090324,158.70211658014762,7.691929824561403,1,0.05
1755690499.4035828,2.037,-0.656,-11.8,1.110703065630054,169.72067772240587,7.882656641604009,1,0.05
1755690499.4326513,0.914,0.844,-5.484,1.1116428338274844,167.21843527929144,7.938947368421051,1,0.05
1755690499.4611247,0.914,0.844,-5.484,1.1116428338274844,167.21843527929144,7.938947368421051,1,0.05
1755690499.4898117,1.725,0.416,-3.113,1.1149837902409163,150.31627206151595,7.979598997493733,1,0.05
1755690499.5185845,1.725,0.416,-3.113,1.1149837902409163,150.31627206151595,7.979598997493733,1,0.05
1755690499.5473146,1.265,-0.834,-4.436,1.1167763495884035,161.1416154939428,8.002656641604009,1,0.05
1755690499.5762649,1.265,-0.834,-4.436,1.1167763495884035,161.1416154939428,8.002656641604009,1,0.05
1755690499.6048982,2.397,0.039,-9.065,1.1231889589468016,165.18676107860279,8.0593984962406,1,0.05
1755690499.6339505,2.397,0.039,-9.065,1.1231889589468016,165.18676107860279,8.0593984962406,1,0.05
1755690499.662607,3.341,-1.382,-12.085,1.135543543859063,163.34404217887223,8.10671679197995,1,0.05
1755690499.6921928,3.341,-1.382,-12.085,1.135543543859063,163.34404217887223,8.10671679197995,1,0.05
1755690499.7208793,4.977,-0.461,-13.06,1.1624910591054023,159.0572227594369,8.188721804511278,1,0.05
1755690499.7499533,4.977,-0.461,-13.06,1.1624910591054023,159.0572227594369,8.188721804511278,1,0.05
1755690499.7786295,6.662,0.2,-11.708,1.2092729520253067,150.3484822203825,8.273182957393486,1,0.05
1755690499.807817,5.01,0.272,-11.772,1.2349458783687648,156.91567185756372,8.355989974937343,1,0.05
1755690499.8366582,5.01,0.272,-11.772,1.2349458783687648,156.91567185756372,8.355989974937343,1,0.05
1755690499.8656454,2.81,-0.257,-11.116,1.2429125361424271,165.75666450128338,8.466265664160401,1,0.05
1755690499.8952022,2.81,-0.257,-11.116,1.2429125361424271,165.75666450128338,8.466265664160401,1,0.05
1755690499.9238276,1.279,-0.173,-10.6,1.2445566178362477,173.0578855722474,8.543007518796994,1,0.05
1755690499.9526513,1.279,-0.173,-10.6,1.2445566178362477,173.0578855722474,8.543007518796994,1,0.05
1755690499.9812853,1.269,-0.286,-9.695,1.2461729725443413,172.35796443361914,8.543508771929824,1,0.05
1755690500.0101848,1.269,-0.286,-9.695,1.2461729725443413,172.35796443361914,8.543508771929824,1,0.05
1755690500.0386412,0.909,-0.132,-8.754,1.247001515636609,174.01002334563,8.561553884711778,1,0.05
1755690500.0679426,0.909,-0.132,-8.754,1.247001515636609,174.01002334563,8.561553884711778,1,0.05
1755690500.097681,1.133,-0.308,-8.077,1.2482876281130082,171.72909774029606,8.572781954887217,1,0.05
1755690500.126504,1.133,-0.308,-8.077,1.2482876281130082,171.72909774029606,8.572781954887217,1,0.05
1755690500.1549025,1.789,-0.363,-8.654,1.2514884358235197,168.08876566359623,8.605664160401002,1,0.05
1755690500.1840074,1.939,0.027,-9.367,1.2552380680572113,168.30366271996337,8.613182957393482,1,0.05
1755690500.2131917,1.939,0.027,-9.367,1.2552380680572113,168.30366271996337,8.613182957393482,1,0.05
1755690500.2415001,2.416,0.127,-9.75,1.261037369589022,166.06426411955883,8.637092731829574,1,0.05
1755690500.2696717,2.416,0.127,-9.75,1.261037369589022,166.06426411955883,8.637092731829574,1,0.05
1755690500.2982497,2.421,-0.137,-10.429,1.26683398675596,166.91058602410084,8.63734335839599,1,0.05
1755690500.3271787,2.421,-0.137,-10.429,1.26683398675596,166.91058602410084,8.63734335839599,1,0.05
1755690500.3557298,3.184,0.457,-10.579,1.276797944077292,163.08768688374766,8.675588972431077,1,0.05
1755690500.3847458,3.184,0.457,-10.579,1.276797944077292,163.08768688374766,8.675588972431077,1,0.05
1755690500.4129992,3.105,0.012,-9.904,1.286201987442097,162.59316413152223,8.67954887218045,1,0.05
1755690500.4423099,3.105,0.012,-9.904,1.286201987442097,162.59316413152223,8.67954887218045,1,0.05
1755690500.470507,1.975,0.125,-10.161,1.289987253812998,168.97906393824448,8.736190476190473,1,0.05
1755690500.4997492,1.975,0.125,-10.161,1.289987253812998,168.97906393824448,8.736190476190473,1,0.05
1755690500.5284705,1.832,-0.271,-10.066,1.2932353517438346,169.57533954152444,8.743358395989974,1,0.05
1755690500.5574217,1.832,-0.271,-10.066,1.2932353517438346,169.57533954152444,8.743358395989974,1,0.05
1755690500.5867457,1.207,-0.031,-9.709,1.2946427296748706,172.9111684222003,8.774686716791978,1,0.05
1755690500.6156857,1.207,-0.031,-9.709,1.2946427296748706,172.9111684222003,8.774686716791978,1,0.05
1755690500.6446693,1.679,-0.072,-9.22,1.2973617074663488,169.67001444345706,8.798345864661652,1,0.05
1755690500.6737566,1.813,0.471,-8.707,1.3005248257914956,167.85871842575122,8.805062656641603,1,0.05
1755690500.702996,1.813,0.471,-8.707,1.3005248257914956,167.85871842575122,8.805062656641603,1,0.05
1755690500.732211,2.104,-0.048,-9.122,1.3047727244620038,167.00854070320864,8.819649122807016,1,0.05
1755690500.7616448,2.104,-0.048,-9.122,1.3047727244620038,167.00854070320864,8.819649122807016,1,0.05
1755690500.7902021,2.488,0.005,-9.149,1.3106895980742352,164.7867228617748,8.83889724310777,1,0.05
1755690500.8194213,2.488,0.005,-9.149,1.3106895980742352,164.7867228617748,8.83889724310777,1,0.05
1755690500.8485065,1.756,-0.235,-9.21,1.3136270637056775,169.11146720832147,8.875588972431078,1,0.05
1755690500.8777316,1.756,-0.235,-9.21,1.3136270637056775,169.11146720832147,8.875588972431078,1,0.05
1755690500.9063148,1.842,0.029,-9.835,1.3168517276064151,169.39066783825106,8.879899749373434,1,0.05
1755690500.9353724,1.842,0.029,-9.835,1.3168517276064151,169.39066783825106,8.879899749373434,1,0.05
1755690500.9646797,2.326,-0.32,-9.652,1.32197736837663,166.32799189169856,8.904160401002509,1,0.05
1755690500.9945872,2.292,0.106,-9.686,1.326935312100782,166.67324402659588,8.905864661654135,1,0.05
1755690501.0240154,2.292,0.106,-9.686,1.326935312100782,166.67324402659588,8.905864661654135,1,0.05
1755690501.0528688,1.029,-0.017,-9.638,1.3279323872095297,173.9050821451464,8.969172932330828,1,0.05
1755690501.08147,1.029,-0.017,-9.638,1.3279323872095297,173.9050821451464,8.969172932330828,1,0.05
1755690501.110131,-1.313,-0.478,-9.324,1.329554191261116,171.4770349566129,9.086566416040101,1,0.05
1755690501.1392157,-1.313,-0.478,-9.324,1.329554191261116,171.4770349566129,9.086566416040101,1,0.05
1755690501.167855,-3.542,0.875,-9.26,1.341297415750884,158.49535822520983,9.19829573934837,1,0.05
1755690501.1971633,-3.542,0.875,-9.26,1.341297415750884,158.49535822520983,9.19829573934837,1,0.05
1755690501.226061,-4.484,-2.007,-10.883,1.3599060252458623,155.70522661793711,9.245513784461153,1,0.05
1755690501.2553284,-4.484,-2.007,-10.883,1.3599060252458623,155.70522661793711,9.245513784461153,1,0.05
1755690501.2841468,-2.412,1.36,-11.344,1.3652431129655993,166.2827058475478,9.34937343358396,1,0.05
1755690501.3134272,-2.412,1.36,-11.344,1.3652431129655993,166.2827058475478,9.34937343358396,1,0.05
1755690501.342242,0.94,-0.658,-12.941,1.3660518868256797,174.9331088986572,9.517393483709272,1,0.05
1755690501.3706815,0.995,-0.841,-8.607,1.3669575048259546,171.39270722405408,9.52015037593985,1,0.05
1755690501.3995953,0.995,-0.841,-8.607,1.3669575048259546,171.39270722405408,9.52015037593985,1,0.05
1755690501.4286947,0.995,-0.841,-8.607,1.3669575048259546,171.39270722405408,9.52015037593985,1,0.05
1755690501.4568553,-0.354,0.473,-10.299,1.367072093929212,176.71683596358235,9.587769423558896,1,0.05
1755690501.485495,-0.843,-0.663,-11.81,1.36772173065284,174.81112478242704,9.612280701754385,1,0.05
1755690501.51437,-0.843,-0.663,-11.81,1.36772173065284,174.81112478242704,9.612280701754385,1,0.05
1755690501.5426679,-1.232,-1.117,-12.646,1.3691082106612318,172.50843662446988,9.631779448621552,1,0.05
1755690501.5712566,-1.232,-1.117,-12.646,1.3691082106612318,172.50843662446988,9.631779448621552,1,0.05
1755690501.6002667,-0.833,-0.432,-10.413,1.3697415869425882,174.85075921811682,9.651779448621552,1,0.05
1755690501.6286914,-0.833,-0.432,-10.413,1.3697415869425882,174.85075921811682,9.651779448621552,1,0.05
1755690501.657416,-0.171,-0.166,-8.585,1.3697682714605415,178.4098667867384,9.684962406015035,1,0.05
1755690501.6864622,-0.171,-0.166,-8.585,1.3697682714605415,178.4098667867384,9.684962406015035,1,0.05
1755690501.7152061,0.146,-0.389,-7.426,1.369787723517772,176.79755231146595,9.700852130325814,1,0.05
1755690501.7446198,0.146,-0.389,-7.426,1.369787723517772,176.79755231146595,9.700852130325814,1,0.05
1755690501.7734668,0.44,-0.447,-8.143,1.369964381836258,175.59542863041648,9.715588972431076,1,0.05
1755690501.802415,0.44,-0.447,-8.143,1.369964381836258,175.59542863041648,9.715588972431076,1,0.05
1755690501.8315241,1.219,-0.733,-9.044,1.371319550651853,171.0619296146792,9.754636591478695,1,0.05
1755690501.8606029,1.279,-0.562,-9.182,1.3728098602865584,171.3488833086368,9.757644110275688,1,0.05
1755690501.8896797,1.279,-0.562,-9.182,1.3728098602865584,171.3488833086368,9.757644110275688,1,0.05
1755690501.9181383,1.679,-0.202,-10.22,1.3753743181403382,170.60437852342204,9.77769423558897,1,0.05
1755690501.9471328,1.679,-0.202,-10.22,1.3753743181403382,170.60437852342204,9.77769423558897,1,0.05
1755690501.975318,1.758,-0.488,-10.508,1.3781802948090645,170.15009010118413,9.781654135338346,1,0.05
1755690502.0040286,1.758,-0.488,-10.508,1.3781802948090645,170.15009010118413,9.781654135338346,1,0.05
1755690502.032593,2.066,-0.637,-10.75,1.382046241990477,168.6287235753819,9.797092731829574,1,0.05
1755690502.0619195,2.066,-0.637,-10.75,1.382046241990477,168.6287235753819,9.797092731829574,1,0.05
1755690502.0913372,2.161,-0.281,-10.691,1.386263545470341,168.47898209339968,9.801854636591477,1,0.05
1755690502.120648,2.161,-0.281,-10.691,1.386263545470341,168.47898209339968,9.801854636591477,1,0.05
1755690502.1469693,1.391,-0.637,-10.619,1.3880071397510894,171.80160149366642,9.840451127819549,1,0.05
1755690502.1756709,1.391,-0.637,-10.619,1.3880071397510894,171.80160149366642,9.840451127819549,1,0.05
1755690502.204081,0.862,-0.31,-9.897,1.388676142950544,174.71187530823158,9.866967418546366,1,0.05
1755690502.2327545,0.862,-0.31,-9.897,1.388676142950544,174.71187530823158,9.866967418546366,1,0.05
1755690502.2620635,0.518,-0.764,-9.571,1.3889176505466405,174.4912998645891,9.884210526315787,1,0.05
1755690502.2910554,0.368,-0.382,-9.042,1.3890395242756772,176.6427582382742,9.89172932330827,1,0.05
1755690502.3201058,0.368,-0.382,-9.042,1.3890395242756772,176.6427582382742,9.89172932330827,1,0.05
1755690502.349124,0.368,-0.382,-9.042,1.3890395242756772,176.6427582382742,9.89172932330827,1,0.05
1755690502.3779266,0.621,-0.199,-8.949,1.3893865201951545,175.83227288778008,9.904411027568921,1,0.05
1755690502.4073188,0.771,-0.509,-9.305,1.3899212225878128,174.32987536601416,9.911929824561405,1,0.05
1755690502.4364495,0.771,-0.509,-9.305,1.3899212225878128,174.32987536601416,9.911929824561405,1,0.05
1755690502.4652908,1.15,-0.461,-9.415,1.3911100801158762,172.50328182032266,9.930927318295739,1,0.05
1755690502.4943926,1.15,-0.461,-9.415,1.3911100801158762,172.50328182032266,9.930927318295739,1,0.05
1755690502.5232468,1.601,-0.577,-9.861,1.3934113741103162,170.20839818695424,9.953533834586466,1,0.05
1755690502.5518143,1.601,-0.577,-9.861,1.3934113741103162,170.20839818695424,9.953533834586466,1,0.05
1755690502.5804954,1.725,-0.404,-9.681,1.3960781926525463,169.62930898473914,9.959749373433583,1,0.05
1755690502.6097806,1.725,-0.404,-9.681,1.3960781926525463,169.62930898473914,9.959749373433583,1,0.05
1755690502.6384065,1.958,-0.06,-9.811,1.3995066023424112,168.70849213537028,9.971428571428572,1,0.05
1755690502.6679015,1.339,-0.43,-10.068,1.401107073888359,172.04808232634548,10.002456140350876,1,0.05
1755690502.6968982,1.339,-0.43,-10.068,1.401107073888359,172.04808232634548,10.002456140350876,1,0.05
1755690502.7259893,1.205,-0.42,-10.187,1.4024019020951162,172.85990691985882,10.009172932330827,1,0.05
1755690502.7551048,1.205,-0.42,-10.187,1.4024019020951162,172.85990691985882,10.009172932330827,1,0.05
1755690502.7840962,0.888,-0.377,-10.073,1.403104577356941,174.52933937539396,10.025062656641603,1,0.05
1755690502.8131,0.888,-0.377,-10.073,1.403104577356941,174.52933937539396,10.025062656641603,1,0.05
1755690502.8417912,0.466,-0.171,-9.431,1.4032980242984738,176.9871185715971,10.046215538847118,1,0.05
1755690502.8708854,0.466,-0.171,-9.431,1.4032980242984738,176.9871185715971,10.046215538847118,1,0.05
1755690502.8995395,1.002,-0.127,-9.564,1.4041920648543773,173.97156332779903,10.073082706766916,1,0.05
1755690502.9285305,1.002,-0.127,-9.564,1.4041920648543773,173.97156332779903,10.073082706766916,1,0.05
1755690502.9588535,0.595,-0.56,-9.234,1.4045071795829311,174.94327425716787,10.093483709273183,1,0.05
1755690502.9881823,0.595,-0.56,-9.234,1.4045071795829311,174.94327425716787,10.093483709273183,1,0.05
1755690503.0170302,0.881,-0.502,-9.645,1.4051977867901728,173.99850546931498,10.10781954887218,1,0.05
1755690503.0462675,0.881,-0.502,-9.645,1.4051977867901728,173.99850546931498,10.10781954887218,1,0.05
1755690503.074902,0.881,-0.502,-9.645,1.4051977867901728,173.99850546931498,10.10781954887218,1,0.05
1755690503.1037128,0.881,-0.502,-9.645,1.4051977867901728,173.99850546931498,10.10781954887218,1,0.05
1755690503.1331425,0.881,-0.502,-9.645,1.4051977867901728,173.99850546931498,10.10781954887218,1,0.05
1755690503.162022,0.881,-0.502,-9.645,1.4051977867901728,173.99850546931498,10.10781954887218,1,0.05
1755690503.190999,0.881,-0.502,-9.645,1.4051977867901728,173.99850546931498,10.10781954887218,1,0.05
1755690503.2198522,0.881,-0.502,-9.645,1.4051977867901728,173.99850546931498,10.10781954887218,1,0.05
1755690503.2491317,0.738,-0.356,-9.419,1.4056821938119584,175.0282407841019,10.11498746867168,1,0.05
1755690503.278388,1.143,-0.43,-9.712,1.4068434712149038,172.8331181667922,10.135288220551379,1,0.05
1755690503.30767,1.567,-0.029,-10.016,1.4090235182565265,171.10667474983936,10.156541353383458,1,0.05
1755690503.3368618,3.165,-0.387,-10.952,1.4178823426152116,163.767574847605,10.236641604010025,1,0.05
1755690503.3665586,7.826,0.096,-13.773,1.4708861368236497,150.39233978860727,10.470275689223058,1,0.05
1755690503.3957725,4.889,-0.562,-12.371,1.4910606392766192,158.3072905661381,10.5531328320802,1,0.05
1755690503.4255414,0.559,-0.627,-8.714,1.489940063391813,174.49385545031217,10.76421052631579,1,0.05
1755690503.4549577,-0.631,0.111,-5.061,1.4891352297558471,172.78511642660243,10.808571428571428,1,0.05
1755690503.4837887,0.452,-0.86,-4.382,1.4874919302302114,167.49898793105652,10.852080200501254,1,0.05
1755690503.5129561,0.452,-0.86,-4.382,1.4874919302302114,167.49898793105652,10.852080200501254,1,0.05
1755690503.5412245,1.277,0.19,-7.069,1.4875387398316724,169.64977503931422,10.889022556390978,1,0.05
1755690503.5707965,1.277,0.19,-7.069,1.4875387398316724,169.64977503931422,10.889022556390978,1,0.05
1755690503.5998347,1.563,-0.07,-10.215,1.4884469095335582,171.29204193220625,10.90265664160401,1,0.05
1755690503.629246,1.563,-0.07,-10.215,1.4884469095335582,171.29204193220625,10.90265664160401,1,0.05
1755690503.6585028,1.739,-0.442,-13.064,1.489869451495667,172.1795654347346,10.910526315789472,1,0.05
1755690503.6883893,1.739,-0.442,-13.064,1.489869451495667,172.1795654347346,10.910526315789472,1,0.05
1755690503.7168393,2.314,-0.526,-13.288,1.4932057837083275,169.87460550070517,10.928721804511277,1,0.05
1755690503.7459326,2.314,-0.526,-13.288,1.4932057837083275,169.87460550070517,10.928721804511277,1,0.05
1755690503.7743673,2.585,-0.469,-11.499,1.4971908478881375,167.13040475494972,10.918897243107768,1,0.05
1755690503.8037448,2.328,-0.12,-10.422,1.5010087183291108,167.39215818651593,10.922105263157896,1,0.05
1755690503.8335586,2.328,-0.12,-10.422,1.5010087183291108,167.39215818651593,10.922105263157896,1,0.05
1755690503.8619528,0.616,-0.351,-10.938,1.5002984911343475,176.2913703359844,11.004110275689222,1,0.05
1755690503.8908536,0.616,-0.351,-10.938,1.5002984911343475,176.2913703359844,11.004110275689222,1,0.05
1755690503.9200146,0.44,-0.44,-10.733,1.4995688288638171,176.6819471247001,11.003508771929823,1,0.05
1755690503.948772,0.44,-0.44,-10.733,1.4995688288638171,176.6819471247001,11.003508771929823,1,0.05
1755690503.977945,-0.04,0.231,-10.028,1.498324885497134,178.66076584012717,11.01704260651629,1,0.05
1755690504.0073488,-0.04,0.231,-10.028,1.498324885497134,178.66076584012717,11.01704260651629,1,0.05
1755690504.0362015,0.237,-0.271,-9.904,1.4975171201024713,177.9181948395304,11.01984962406015,1,0.05
1755690504.0650804,0.237,-0.271,-9.904,1.4975171201024713,177.9181948395304,11.01984962406015,1,0.05
1755690504.093639,0.337,-0.471,-9.165,1.497089591507469,176.3842274563456,11.009223057644109,1,0.05
1755690504.1227136,0.337,-0.471,-9.165,1.497089591507469,176.3842274563456,11.009223057644109,1,0.05
1755690504.151427,0.959,-0.745,-8.642,1.4968416499416362,172.00116479523973,11.039799498746865,1,0.05
1755690504.1806874,2.094,-0.598,-9.196,1.4994628880035679,166.6771536803922,11.089273182957394,1,0.05
1755690504.210271,2.094,-0.598,-9.196,1.4994628880035679,166.6771536803922,11.089273182957394,1,0.05
1755690504.2397232,1.87,1.106,-10.144,1.501596976555294,167.91132856360682,11.094536340852128,1,0.05
1755690504.2689612,1.87,1.106,-10.144,1.501596976555294,167.91132856360682,11.094536340852128,1,0.05
1755690504.2976553,1.889,-0.043,-10.056,1.5039669286590047,169.35838826675104,11.090927318295739,1,0.05
1755690504.3262594,1.889,-0.043,-10.056,1.5039669286590047,169.35838826675104,11.090927318295739,1,0.05
1755690504.355952,2.047,-1.057,-12.183,1.5069702792357917,169.2918706112167,11.084761904761905,1,0.05
1755690504.3862603,2.047,-1.057,-12.183,1.5069702792357917,169.2918706112167,11.084761904761905,1,0.05
1755690504.4151576,2.047,-1.057,-12.183,1.5069702792357917,169.2918706112167,11.084761904761905,1,0.05
1755690504.4441252,3.124,-0.101,-10.821,1.5148568983570692,163.8887047607233,11.12751879699248,1,0.05
1755690504.4737792,2.543,-0.118,-10.17,1.5197807555696972,165.94659797210318,11.09187969924812,1,0.05
1755690504.502979,2.543,-0.118,-10.17,1.5197807555696972,165.94659797210318,11.09187969924812,1,0.05
1755690504.5317996,0.125,1.267,-7.561,1.5165264414114248,170.44196952010086,11.161954887218045,1,0.05
1755690504.56107,0.621,-0.646,-8.813,1.5160654966062648,174.19429369998338,11.170426065162907,1,0.05
1755690504.590318,0.621,-0.646,-8.813,1.5160654966062648,174.19429369998338,11.170426065162907,1,0.05
1755690504.6189604,0.886,0.57,-8.806,1.5163696836523737,173.1777780844801,11.172130325814537,1,0.05
1755690504.6484432,0.886,0.57,-8.806,1.5163696836523737,173.1777780844801,11.172130325814537,1,0.05
1755690504.6772356,0.871,0.709,-9.063,1.5168536943291533,172.93592560853318,11.133333333333331,1,0.05
1755690504.706441,0.871,0.709,-9.063,1.5168536943291533,172.93592560853318,11.133333333333331,1,0.05
1755690504.7356517,0.545,-0.738,-9.695,1.5169825740594385,174.59427214528864,11.11859649122807,1,0.05
1755690504.764923,0.545,-0.738,-9.695,1.5169825740594385,174.59427214528864,11.11859649122807,1,0.05
1755690504.7939663,0.661,-0.298,-8.098,1.5165267455603941,174.88356300210242,11.092380952380951,1,0.05
1755690504.8229258,0.661,-0.298,-8.098,1.5165267455603941,174.88356300210242,11.092380952380951,1,0.05
1755690504.8521175,0.585,-0.411,-9.728,1.516704352370626,175.79668961873867,11.07563909774436,1,0.05
1755690504.881072,0.597,-0.38,-10.653,1.5169956575415766,176.19942639946493,10.962105263157893,1,0.05
1755690504.909979,0.597,-0.38,-10.653,1.5169956575415766,176.19942639946493,10.962105263157893,1,0.05
1755690504.9386258,0.483,-0.411,-9.678,1.5127045795527956,176.25076249987984,10.865513784461154,1,0.05
1755690504.9676447,0.483,-0.411,-9.678,1.5127045795527956,176.25076249987984,10.865513784461154,1,0.05
1755690504.9968874,0.452,-0.454,-9.362,1.5128039050055364,176.08536077984633,10.788671679197996,1,0.05
1755690505.0263984,0.452,-0.454,-9.362,1.5128039050055364,176.08536077984633,10.788671679197996,1,0.05
1755690505.0550568,-0.159,-1.254,-9.417,1.5114831019564856,172.35490839731835,10.801002506265663,1,0.05
1755690505.0845585,-0.159,-1.254,-9.417,1.5114831019564856,172.35490839731835,10.801002506265663,1,0.05
1755690505.1132605,-0.09,-0.408,-8.832,1.509266581820455,177.29157220497376,10.753784461152883,1,0.05
1755690505.142492,-0.09,-0.408,-8.832,1.509266581820455,177.29157220497376,10.753784461152883,1,0.05
1755690505.171629,-0.283,-0.983,-9.6,1.5090062549572152,173.91780862564065,10.708721804511278,1,0.05
1755690505.2003863,-0.283,-0.983,-9.6,1.5090062549572152,173.91780862564065,10.708721804511278,1,0.05
1755690505.2287984,-0.254,-0.084,-9.327,1.5088813497091147,178.3570166139701,10.705614035087716,1,0.05
1755690505.2583187,-0.254,-0.084,-9.327,1.5088813497091147,178.3570166139701,10.705614035087716,1,0.05
1755690505.2872698,-0.783,-0.642,-10.161,1.5091340521968217,174.30923948233794,10.729122807017545,1,0.05
1755690505.315906,-0.783,-0.642,-10.161,1.5091340521968217,174.30923948233794,10.729122807017545,1,0.05
1755690505.3449383,-3.218,-1.408,-7.851,1.517485365662549,155.89619817053094,10.820200501253131,1,0.05
1755690505.3744118,-6.274,0.115,-9.004,1.5495585508460143,145.12664734336005,10.95092731829574,1,0.05
1755690505.403652,-6.274,0.115,-9.004,1.5495585508460143,145.12664734336005,10.95092731829574,1,0.05
1755690505.4323382,-6.174,-1.622,-12.214,1.5797507050164592,152.4066981734502,10.935739348370927,1,0.05
1755690505.4612749,-6.174,-1.622,-12.214,1.5797507050164592,152.4066981734502,10.935739348370927,1,0.05
1755690505.4896536,-5.592,-0.512,-13.093,1.6042811131469445,156.78623655501096,10.938245614035084,1,0.05
1755690505.518941,-5.592,-0.512,-13.093,1.6042811131469445,156.78623655501096,10.938245614035084,1,0.05
1755690505.5479364,-3.28,-0.836,-7.953,1.6122620413568014,156.9449938510247,11.048972431077694,1,0.05
1755690505.5769634,-3.28,-0.836,-7.953,1.6122620413568014,156.9449938510247,11.048972431077694,1,0.05
1755690505.6058505,-0.9,-0.488,-5.9,1.6126136758380787,170.15585475140566,11.128370927318294,1,0.05
1755690505.6347573,-0.9,-0.488,-5.9,1.6126136758380787,170.15585475140566,11.128370927318294,1,0.05
1755690505.6640377,-0.9,-0.488,-5.9,1.6126136758380787,170.15585475140566,11.128370927318294,1,0.05
1755690505.6928303,-0.9,-0.488,-5.9,1.6126136758380787,170.15585475140566,11.128370927318294,1,0.05
1755690505.7213786,-0.9,-0.488,-5.9,1.6126136758380787,170.15585475140566,11.128370927318294,1,0.05
1755690505.7508028,-0.9,-0.488,-5.9,1.6126136758380787,170.15585475140566,11.128370927318294,1,0.05
1755690505.780268,-0.9,-0.488,-5.9,1.6126136758380787,170.15585475140566,11.128370927318294,1,0.05
1755690505.808997,-2.307,-0.947,-8.471,1.6167032775064198,163.59593518678614,11.188721804511276,1,0.05
1755690505.8388894,-3.363,-0.502,-9.985,1.6252999415492515,161.19439793570166,11.196240601503758,1,0.05
1755690505.8684776,-3.005,-1.194,-12.387,1.6320355150853796,165.3699012360872,11.195087719298247,1,0.05
1755690505.8981614,-3.406,0.168,-10.874,1.6408851848925932,162.58831446219796,11.19548872180451,1,0.05
1755690505.927437,-3.482,-1.204,-10.261,1.6498937420331046,160.24897419275302,11.197042606516291,1,0.05
1755690505.9567492,-3.082,-0.755,-8.828,1.6569072295997747,160.229573987417,11.215037593984961,1,0.05
1755690505.9861245,-1.313,-1.146,-9.362,1.658067923819769,169.45482194112628,11.300250626566417,1,0.05
1755690506.0156083,-0.49,-0.716,-10.211,1.6580612134357404,175.14331910402421,11.304812030075187,1,0.05
1755690506.0439987,-0.49,-0.716,-10.211,1.6580612134357404,175.14331910402421,11.304812030075187,1,0.05
1755690506.073305,-0.38,-1.038,-10.653,1.6581291460558794,174.0761069582343,11.295839598997494,1,0.05
1755690506.1020496,-0.38,-1.038,-10.653,1.6581291460558794,174.0761069582343,11.295839598997494,1,0.05
1755690506.1313503,0.092,-0.399,-10.42,1.6581331626259694,177.74963625756055,11.31904761904762,1,0.05
1755690506.1607683,0.092,-0.399,-10.42,1.6581331626259694,177.74963625756055,11.31904761904762,1,0.05
1755690506.189783,-1.341,-0.757,-10.099,1.6594850782697625,171.33022518964071,11.38170426065163,1,0.05
1755690506.2187405,-1.341,-0.757,-10.099,1.6594850782697625,171.33022518964071,11.38170426065163,1,0.05
1755690506.2481356,-0.679,-0.642,-9.861,1.6598218330591992,174.58666592792682,11.396591478696742,1,0.05
1755690506.2772994,-0.679,-0.642,-9.861,1.6598218330591992,174.58666592792682,11.396591478696742,1,0.05
1755690506.3066268,-0.805,-0.581,-10.344,1.6602638517717598,174.5178209657291,11.397092731829575,1,0.05
1755690506.335492,-0.805,-0.581,-10.344,1.6602638517717598,174.5178209657291,11.397092731829575,1,0.05
1755690506.3644183,-1.453,-0.61,-10.118,1.661753488788274,171.1474555586754,11.416892230576442,1,0.05
1755690506.3936036,-1.289,-0.274,-9.583,1.6627176007969604,172.17011629119781,11.403358395989976,1,0.05
1755690506.4221532,-1.289,-0.274,-9.583,1.6627176007969604,172.17011629119781,11.403358395989976,1,0.05
1755690506.4504557,-1.523,-0.781,-9.533,1.6644355897721006,169.82143801243225,11.391929824561403,1,0.05
1755690506.4791849,-1.523,-0.781,-9.533,1.6644355897721006,169.82143801243225,11.391929824561403,1,0.05
1755690506.508011,-1.663,-0.305,-9.562,1.6664524460661936,169.97269408398472,11.398345864661653,1,0.05
1755690506.5370562,-1.663,-0.305,-9.562,1.6664524460661936,169.97269408398472,11.398345864661653,1,0.05
1755690506.5656316,-1.425,-0.704,-9.562,1.667911016061708,170.56246538667727,11.403609022556392,1,0.05
1755690506.5942488,-1.425,-0.704,-9.562,1.667911016061708,170.56246538667727,11.403609022556392,1,0.05
1755690506.623082,-1.165,-0.658,-9.745,1.6689089302595272,172.1822225632252,11.405864661654133,1,0.05
1755690506.6524537,-1.165,-0.658,-9.745,1.6689089302595272,172.1822225632252,11.405864661654133,1,0.05
1755690506.6811352,-0.493,-0.613,-9.769,1.6690886135852705,175.39618438976626,11.436090225563909,1,0.05
1755690506.710032,-0.493,-0.613,-9.769,1.6690886135852705,175.39618438976626,11.436090225563909,1,0.05
1755690506.7391303,-0.7,-0.43,-9.802,1.6694554134507456,175.2091360013053,11.445513784461154,1,0.05
1755690506.7685604,-0.7,-0.43,-9.802,1.6694554134507456,175.2091360013053,11.445513784461154,1,0.05
1755690506.797313,-0.657,-0.759,-9.762,1.6697778115665567,174.12872999152904,11.43593984962406,1,0.05
1755690506.8259509,-0.724,-0.204,-9.999,1.6701172084617293,175.69793234747937,11.43142857142857,1,0.05
1755690506.8550956,-0.724,-0.204,-9.999,1.6701172084617293,175.69793234747937,11.43142857142857,1,0.05
1755690506.8835473,-0.922,-0.505,-9.246,1.6706194592126598,173.5135014010744,11.433182957393484,1,0.05
1755690506.9129148,-0.922,-0.505,-9.246,1.6706194592126598,173.5135014010744,11.433182957393484,1,0.05
1755690506.9420736,-0.721,-0.356,-9.669,1.6707514746364882,175.2460677572096,11.437994987468672,1,0.05
1755690506.969218,-0.721,-0.356,-9.669,1.6707514746364882,175.2460677572096,11.437994987468672,1,0.05
1755690506.9986827,-0.833,-0.548,-9.507,1.6710974866835266,174.01271890470358,11.414436090225562,1,0.05
1755690507.0276937,-0.833,-0.548,-9.507,1.6710974866835266,174.01271890470358,11.414436090225562,1,0.05
1755690507.0552995,-0.74,-0.538,-10.166,1.6714994189349872,174.85745299138932,11.4131328320802,1,0.05
1755690507.0841167,-0.74,-0.538,-10.166,1.6714994189349872,174.85745299138932,11.4131328320802,1,0.05
1755690507.113728,-0.831,-0.334,-9.557,1.672015520262895,174.64630789382917,11.414235588972428,1,0.05
1755690507.1429803,-0.831,-0.334,-9.557,1.672015520262895,174.64630789382917,11.414235588972428,1,0.05
1755690507.1720107,-0.953,-0.384,-9.605,1.6726887038537683,173.8942366178828,11.376942355889723,1,0.05
1755690507.200726,-0.953,-0.384,-9.605,1.6726887038537683,173.8942366178828,11.376942355889723,1,0.05
1755690507.2293656,-0.833,-0.38,-9.819,1.6725285348836354,174.6728089381244,11.376942355889723,1,0.05
1755690507.258056,-0.833,-0.38,-9.819,1.6725285348836354,174.6728089381244,11.376942355889723,1,0.05
1755690507.2866817,-1.432,-0.283,-9.301,1.673542212643589,171.08076947918966,11.394786967418545,1,0.05
1755690507.3154998,-3.392,-0.171,-9.056,1.6818553586738665,159.4422488568028,11.479999999999999,1,0.05
1755690507.3449225,-3.392,-0.171,-9.056,1.6818553586738665,159.4422488568028,11.479999999999999,1,0.05
1755690507.373917,-6.985,-0.661,-8.923,1.7176555999384742,141.82182734950783,11.6593984962406,1,0.05
1755690507.4031897,-6.985,-0.661,-8.923,1.7176555999384742,141.82182734950783,11.6593984962406,1,0.05
1755690507.4321606,-7.907,-0.971,-11.278,1.7624961680809408,144.7639098330664,11.69017543859649,1,0.05
1755690507.4613082,-7.907,-0.971,-11.278,1.7624961680809408,144.7639098330664,11.69017543859649,1,0.05
1755690507.4903374,-4.555,-0.803,-10.71,1.7768762942309742,156.64233364426735,11.853383458646617,1,0.05
1755690507.5197282,-4.555,-0.803,-10.71,1.7768762942309742,156.64233364426735,11.853383458646617,1,0.05
1755690507.5490582,-2.462,0.113,-7.704,1.7809396438397345,162.25997096005466,11.942255639097743,1,0.05
1755690507.5784068,-2.462,0.113,-7.704,1.7809396438397345,162.25997096005466,11.942255639097743,1,0.05
1755690507.6071858,-0.721,0.44,-6.202,1.7807997802953592,172.24456505740037,12.015388471177943,1,0.05
1755690507.6361449,-1.778,-0.13,-8.809,1.7827928027395668,168.55912866814978,12.065413533834585,1,0.05
1755690507.6653986,-1.778,-0.13,-8.809,1.7827928027395668,168.55912866814978,12.065413533834585,1,0.05
1755690507.6945806,-2.874,-0.642,-11.938,1.7883951590741907,166.14307801944727,12.113784461152882,1,0.05
1755690507.7237904,-2.874,-0.642,-11.938,1.7883951590741907,166.14307801944727,12.113784461152882,1,0.05
1755690507.7525442,-3.439,-0.413,-12.969,1.7965440733530587,165.04668163310748,12.129573934837092,1,0.05
1755690507.7822695,-3.439,-0.413,-12.969,1.7965440733530587,165.04668163310748,12.129573934837092,1,0.05
1755690507.811246,-4.474,-0.024,-10.013,1.8101471231643023,155.9236872703855,12.172030075187969,1,0.05
1755690507.8412333,-4.474,-0.024,-10.013,1.8101471231643023,155.9236872703855,12.172030075187969,1,0.05
1755690507.870823,-4.04,-0.822,-10.204,1.820928366932648,157.99955281814033,12.192431077694238,1,0.05
1755690507.901061,-4.04,-0.822,-10.204,1.820928366932648,157.99955281814033,12.192431077694238,1,0.05
1755690507.930635,-2.846,-0.718,-9.182,1.8259959487906867,162.27269098604867,12.25157894736842,1,0.05
1755690507.9601252,-0.724,-0.646,-8.863,1.8258543431774616,173.75224384229926,12.356641604010026,1,0.05
1755690507.989486,-0.724,-0.646,-8.863,1.8258543431774616,173.75224384229926,12.356641604010026,1,0.05
1755690508.0185416,-0.926,-0.329,-9.583,1.825970884214751,174.1449495536876,12.359248120300752,1,0.05
1755690508.0478654,-0.926,-0.329,-9.583,1.825970884214751,174.1449495536876,12.359248120300752,1,0.05
1755690508.0771265,-0.903,0.389,-10.99,1.8262134568554684,174.88762347125777,12.357744360902256,1,0.05
1755690508.106997,-0.903,0.389,-10.99,1.8262134568554684,174.88762347125777,12.357744360902256,1,0.05
1755690508.1372666,-0.702,-0.574,-10.329,1.8262825383822734,174.98279115522504,12.365764411027568,1,0.05
1755690508.1671095,-0.702,-0.574,-10.329,1.8262825383822734,174.98279115522504,12.365764411027568,1,0.05
1755690508.196515,-0.893,-0.235,-10.113,1.826523832310983,174.78287151236253,12.365213032581453,1,0.05
1755690508.2260306,-0.893,-0.235,-10.113,1.826523832310983,174.78287151236253,12.365213032581453,1,0.05
1755690508.2551734,-0.791,-0.473,-10.517,1.8264352192180262,174.99180301636574,12.362907268170424,1,0.05
1755690508.284226,-0.791,-0.473,-10.517,1.8264352192180262,174.99180301636574,12.362907268170424,1,0.05
1755690508.3135457,-0.76,-0.464,-10.135,1.826474748662023,174.97896494290117,12.353784461152882,1,0.05
1755690508.3437905,-1.31,-0.603,-9.588,1.8270520976425384,171.4463283904058,12.371428571428568,1,0.05
1755690508.3732934,-1.31,-0.603,-9.588,1.8270520976425384,171.4463283904058,12.371428571428568,1,0.05
1755690508.4020386,-1.646,0.043,-9.811,1.8285344999479773,170.47294285019416,12.38155388471178,1,0.05
1755690508.4313486,-1.646,0.043,-9.811,1.8285344999479773,170.47294285019416,12.38155388471178,1,0.05
1755690508.4608753,-2.307,-0.235,-9.519,1.8319219497565937,166.30877223661722,12.407869674185463,1,0.05
1755690508.4903154,-2.307,-0.235,-9.519,1.8319219497565937,166.30877223661722,12.407869674185463,1,0.05
1755690508.5200548,-1.89,-0.324,-9.396,1.8339865512047788,168.46526626161602,12.425814536340852,1,0.05
1755690508.5499427,-1.89,-0.324,-9.396,1.8339865512047788,168.46526626161602,12.425814536340852,1,0.05
1755690508.5793145,-1.377,-0.327,-9.082,1.834964411099027,171.14254818078783,12.446315789473685,1,0.05
1755690508.6086314,-1.096,-0.449,-9.747,1.8353650066131262,173.07167658367223,12.443157894736842,1,0.05
1755690508.637999,-1.096,-0.449,-9.747,1.8353650066131262,173.07167658367223,12.443157894736842,1,0.05
1755690508.6672018,-0.769,-0.466,-9.916,1.8349026643121973,174.8186306690838,12.441954887218046,1,0.05
1755690508.6963997,-0.769,-0.466,-9.916,1.8349026643121973,174.8186306690838,12.441954887218046,1,0.05
1755690508.7256565,-0.848,-0.411,-9.814,1.8349823180346998,174.51521334287222,12.44220551378446,1,0.05
1755690508.754892,-0.848,-0.411,-9.814,1.8349823180346998,174.51521334287222,12.44220551378446,1,0.05
1755690508.7843232,-0.764,-0.262,-10.249,1.834887761553823,175.49410025708175,12.444511278195488,1,0.05
1755690508.8130593,-0.764,-0.262,-10.249,1.834887761553823,175.49410025708175,12.444511278195488,1,0.05
1755690508.8416846,-0.915,-0.226,-9.712,1.835008937307936,174.45711050045279,12.439398496240601,1,0.05
1755690508.8709369,-0.915,-0.226,-9.712,1.835008937307936,174.45711050045279,12.439398496240601,1,0.05
1755690508.900317,-0.96,-0.344,-9.759,1.8348640923785065,174.03449360269585,12.432581453634086,1,0.05
1755690508.929283,-0.96,-0.344,-9.759,1.8348640923785065,174.03449360269585,12.432581453634086,1,0.05
1755690508.9582088,-1.229,-0.569,-9.555,1.8353606457587566,171.9326263921471,12.440350877192982,1,0.05
1755690508.9876468,-1.677,-0.425,-9.058,1.8365972646445927,169.18712437218977,12.456340852130326,1,0.05
1755690509.018041,-1.677,-0.425,-9.058,1.8365972646445927,169.18712437218977,12.456340852130326,1,0.05
1755690509.0483859,-1.899,-0.418,-10.318,1.8385366769526248,169.32759454125727,12.465563909774437,1,0.05
1755690509.0779145,-1.899,-0.418,-10.318,1.8385366769526248,169.32759454125727,12.465563909774437,1,0.05
1755690509.1070867,-1.742,-0.581,-9.617,1.840039918045258,169.18968856577166,12.471629072681704,1,0.05
1755690509.1360426,-1.742,-0.581,-9.617,1.840039918045258,169.18968856577166,12.471629072681704,1,0.05
1755690509.1649804,-0.864,-0.396,-8.937,1.8399429386532618,173.9295557579163,12.51528822055138,1,0.05
1755690509.19429,-0.864,-0.396,-8.937,1.8399429386532618,173.9295557579163,12.51528822055138,1,0.05
1755690509.223315,-0.636,-0.49,-9.543,1.839622520382918,175.1909424035048,12.516691729323307,1,0.05
1755690509.2522445,-0.636,-0.49,-9.543,1.839622520382918,175.1909424035048,12.516691729323307,1,0.05
1755690509.281688,-0.64,0.243,-9.643,1.8390238653970754,175.93924957132256,12.516541353383458,1,0.05
1755690509.310671,-0.64,0.243,-9.643,1.8390238653970754,175.93924957132256,12.516541353383458,1,0.05
1755690509.3398395,-0.75,-0.976,-10.329,1.8385397534456525,173.20423572744863,12.511779448621553,1,0.05
1755690509.3692966,-0.864,-0.62,-9.697,1.838466813679268,173.7415825331656,12.509724310776942,1,0.05
1755690509.3983252,-0.864,-0.62,-9.697,1.838466813679268,173.7415825331656,12.509724310776942,1,0.05
1755690509.4272127,-0.864,-0.62,-9.697,1.838466813679268,173.7415825331656,12.509724310776942,1,0.05
1755690509.4558682,-0.864,-0.62,-9.697,1.838466813679268,173.7415825331656,12.509724310776942,1,0.05
1755690509.4849396,-0.864,-0.62,-9.697,1.838466813679268,173.7415825331656,12.509724310776942,1,0.05
1755690509.5145454,-0.555,-0.24,-9.495,1.837884567920412,176.3561579910392,12.51062656641604,1,0.05
1755690509.5445604,-1.029,-0.159,-9.424,1.8381823705769782,173.6952397955087,12.522556390977444,1,0.05
1755690509.5737526,-0.757,-0.283,-9.398,1.8378589744591396,175.085010923373,12.535689223057643,1,0.05
1755690509.6030724,-1.058,-0.493,-9.564,1.837893122572692,173.04183012154553,12.548972431077692,1,0.05
1755690509.632818,-1.058,-0.493,-9.564,1.837893122572692,173.04183012154553,12.548972431077692,1,0.05
1755690509.6618543,-1.096,-0.519,-9.802,1.8379314241831768,172.94737771437303,12.548571428571428,1,0.05
1755690509.6910982,-1.0,-0.435,-9.686,1.8378983867450343,173.57630110080908,12.534636591478696,1,0.05
1755690509.721066,-1.0,-0.435,-9.686,1.8378983867450343,173.57630110080908,12.534636591478696,1,0.05
1755690509.7510788,-1.158,0.151,-9.833,1.8385229506318381,173.22706581626096,12.533483709273185,1,0.05
1755690509.780511,-1.158,0.151,-9.833,1.8385229506318381,173.22706581626096,12.533483709273185,1,0.05
1755690509.810163,-1.0,-0.324,-9.503,1.8387333241935875,173.68786413453927,12.526466165413533,1,0.05
1755690509.8393648,-1.0,-0.324,-9.503,1.8387333241935875,173.68786413453927,12.526466165413533,1,0.05
1755690509.8684282,-1.341,-0.029,-9.503,1.8397624078940193,171.9659827072293,12.524411027568922,1,0.05
1755690509.8975499,-1.341,-0.029,-9.503,1.8397624078940193,171.9659827072293,12.524411027568922,1,0.05
1755690509.9262266,-1.048,-0.445,-9.669,1.8399397856995212,173.28411367055685,12.53057644110276,1,0.05
1755690509.954916,-1.048,-0.445,-9.669,1.8399397856995212,173.28411367055685,12.53057644110276,1,0.05
1755690509.9836571,-1.153,-0.07,-9.835,1.8404658038116328,173.3012873787705,12.529974937343358,1,0.05
1755690510.0129158,-4.536,-1.689,-8.792,1.8541215318851136,151.16594765390718,12.687468671679198,1,0.05
1755690510.0427516,-4.536,-1.689,-8.792,1.8541215318851136,151.16594765390718,12.687468671679198,1,0.05
1755690510.0717897,-8.542,-0.06,-8.868,1.902181159222223,136.072024499265,12.886616541353382,1,0.05
1755690510.1015658,-8.542,-0.06,-8.868,1.902181159222223,136.072024499265,12.886616541353382,1,0.05
1755690510.1305332,-5.144,-1.694,-11.679,1.9190356334628078,155.12203798350797,13.049774436090226,1,0.05
1755690510.160461,-5.144,-1.694,-11.679,1.9190356334628078,155.12203798350797,13.049774436090226,1,0.05
1755690510.1901295,-4.903,1.206,-10.334,1.9340114225360718,153.96008645551646,13.035689223057643,1,0.05
1755690510.2198462,-4.903,1.206,-10.334,1.9340114225360718,153.96008645551646,13.035689223057643,1,0.05
1755690510.2487285,-2.7,0.49,-7.832,1.9385827452033095,160.69103793816987,13.145964912280702,1,0.05
1755690510.2781105,-2.7,0.49,-7.832,1.9385827452033095,160.69103793816987,13.145964912280702,1,0.05
1755690510.3070333,-1.222,-0.288,-7.3,1.9394125347640712,170.24153968454036,13.213032581453632,1,0.05
1755690510.3374548,-2.793,-0.485,-9.503,1.9443704926016545,163.38986948949113,13.287468671679198,1,0.05
1755690510.3682992,-2.793,-0.485,-9.503,1.9443704926016545,163.38986948949113,13.287468671679198,1,0.05
1755690510.3979783,-3.234,-0.61,-12.758,1.9509801389301735,165.53543454941405,13.29844611528822,1,0.05
1755690510.4282346,-3.234,-0.61,-12.758,1.9509801389301735,165.53543454941405,13.29844611528822,1,0.05
1755690510.4572394,-3.02,-1.024,-11.335,1.9567946475039224,164.2870788077063,13.307268170426063,1,0.05
1755690510.487338,-3.02,-1.024,-11.335,1.9567946475039224,164.2870788077063,13.307268170426063,1,0.05
1755690510.516167,-3.425,-1.545,-10.617,1.9642614019014883,160.51117735343465,13.323508771929822,1,0.05
1755690510.5462008,-3.425,-1.545,-10.617,1.9642614019014883,160.51117735343465,13.323508771929822,1,0.05
1755690510.5751932,-3.277,0.072,-10.353,1.9710524029056151,162.4320565905225,13.321002506265664,1,0.05
1755690510.6048486,-3.277,0.072,-10.353,1.9710524029056151,162.4320565905225,13.321002506265664,1,0.05
1755690510.6349728,-2.312,-1.077,-8.74,1.974439062746683,163.73147632309247,13.363859649122805,1,0.05
1755690510.6647553,-0.652,-0.584,-8.756,1.9747033827894254,174.29131383711425,13.441704260651628,1,0.05
1755690510.6943433,-0.652,-0.584,-8.756,1.9747033827894254,174.29131383711425,13.441704260651628,1,0.05
1755690510.7231715,-0.28,0.305,-9.902,1.974729186496214,177.60567069254807,13.45689223057644,1,0.05
1755690510.75272,-0.28,0.305,-9.902,1.974729186496214,177.60567069254807,13.45689223057644,1,0.05
1755690510.782125,-0.569,-0.007,-11.332,1.9749242263945217,177.12527336141926,13.459999999999997,1,0.05
1755690510.8107648,-0.569,-0.007,-11.332,1.9749242263945217,177.12527336141926,13.459999999999997,1,0.05
1755690510.8395264,-0.037,-0.298,-11.263,1.974918507812411,178.47277179696846,13.484110275689222,1,0.05
1755690510.8686454,-0.037,-0.298,-11.263,1.974918507812411,178.47277179696846,13.484110275689222,1,0.05
1755690510.8975074,0.232,-0.445,-10.253,1.974950928504301,177.19782449663023,13.481203007518797,1,0.05
1755690510.9263654,0.232,-0.445,-10.253,1.974950928504301,177.19782449663023,13.481203007518797,1,0.05
1755690510.955663,-0.569,0.111,-10.206,1.9750654071447862,176.74895290837412,13.512531328320803,1,0.05
1755690510.9852352,-0.569,0.111,-10.206,1.9750654071447862,176.74895290837412,13.512531328320803,1,0.05
1755690511.0150573,-1.055,-0.166,-9.781,1.9757438890200318,173.76860381636575,13.518395989974938,1,0.05
1755690511.0445285,-1.945,-0.781,-10.84,1.9779298205447027,169.05673544591517,13.559649122807016,1,0.05
1755690511.074823,-1.945,-0.781,-10.84,1.9779298205447027,169.05673544591517,13.559649122807016,1,0.05
1755690511.1035974,-2.033,-0.61,-9.788,1.9803797760783155,167.76475922233948,13.556290726817041,1,0.05
1755690511.1329823,-2.033,-0.61,-9.788,1.9803797760783155,167.76475922233948,13.556290726817041,1,0.05
1755690511.1624968,-1.971,0.495,-8.626,1.9825565458518453,166.7433683605918,13.557844611528822,1,0.05
1755690511.1923761,-1.971,0.495,-8.626,1.9825565458518453,166.7433683605918,13.557844611528822,1,0.05
1755690511.2216713,-1.437,-0.557,-9.255,1.9835580732612794,170.54566373166563,13.580100250626566,1,0.05
1755690511.2511053,-1.437,-0.557,-9.255,1.9835580732612794,170.54566373166563,13.580100250626566,1,0.05
1755690511.2799473,-1.122,-0.372,-10.206,1.984124451741876,173.39342758388102,13.571879699248122,1,0.05
1755690511.3093243,-1.122,-0.372,-10.206,1.984124451741876,173.39342758388102,13.571879699248122,1,0.05
1755690511.3390286,-1.01,-0.735,-9.695,1.984033640717818,172.6583055338057,13.569022556390978,1,0.05
1755690511.3682067,-0.721,-0.019,-9.59,1.983839418904665,175.69896282418796,13.559498746867167,1,0.05
1755690511.397858,-0.721,-0.019,-9.59,1.983839418904665,175.69896282418796,13.559498746867167,1,0.05
1755690511.4272103,-1.101,-0.687,-9.652,1.9833875163467174,172.3422445000396,13.563007518796992,1,0.05
1755690511.4571328,-1.101,-0.687,-9.652,1.9833875163467174,172.3422445000396,13.563007518796992,1,0.05
1755690511.4857953,-1.415,-0.247,-9.424,1.9839155728004152,171.33373688018048,13.576240601503759,1,0.05
1755690511.5144966,-1.415,-0.247,-9.424,1.9839155728004152,171.33373688018048,13.576240601503759,1,0.05
1755690511.5437138,-1.532,-0.315,-9.536,1.98472704861399,170.68555321134292,13.574937343358394,1,0.05
1755690511.5730808,-1.532,-0.315,-9.536,1.98472704861399,170.68555321134292,13.574937343358394,1,0.05
1755690511.602242,-1.697,-0.396,-9.819,1.986045943577338,169.93642048283755,13.58175438596491,1,0.05
1755690511.6316175,-1.174,-0.543,-9.707,1.9864511213468103,172.4098415713713,13.60486215538847,1,0.05
1755690511.661316,-1.174,-0.543,-9.707,1.9864511213468103,172.4098415713713,13.60486215538847,1,0.05
1755690511.6903193,-1.193,-0.461,-9.153,1.9868152348670975,172.04541803069105,13.58035087719298,1,0.05
1755690511.7194853,-1.193,-0.461,-9.153,1.9868152348670975,172.04541803069105,13.58035087719298,1,0.05
1755690511.749388,-1.215,-0.673,-9.574,1.987637551843897,171.74545198541165,13.574135338345865,1,0.05
1755690511.7789023,-1.215,-0.673,-9.574,1.987637551843897,171.74545198541165,13.574135338345865,1,0.05
1755690511.8078198,-1.272,-0.382,-9.681,1.9884597996942257,172.18844002905794,13.572581453634085,1,0.05
1755690511.8365922,-1.272,-0.382,-9.681,1.9884597996942257,172.18844002905794,13.572581453634085,1,0.05
1755690511.8661113,-1.456,0.154,-8.98,1.9895306362305658,170.7398335048761,13.569974937343359,1,0.05
1755690511.8966804,-1.456,0.154,-8.98,1.9895306362305658,170.7398335048761,13.569974937343359,1,0.05
1755690511.926549,-1.232,-0.423,-9.731,1.990378986524928,172.3756923002836,13.567919799498748,1,0.05
1755690511.9560974,-1.506,-0.555,-9.669,1.991789838311261,170.57509336856648,13.57829573934837,1,0.05
1755690511.9854932,-1.506,-0.555,-9.669,1.991789838311261,170.57509336856648,13.57829573934837,1,0.05
1755690512.0151114,-1.451,-0.24,-9.557,1.9930827780099851,171.25145554399563,13.577443609022556,1,0.05
1755690512.043787,-1.451,-0.24,-9.557,1.9930827780099851,171.25145554399563,13.577443609022556,1,0.05
1755690512.072786,-1.344,-0.642,-9.619,1.9941651329566465,171.19788772861736,13.559598997493733,1,0.05
1755690512.1020157,-1.344,-0.642,-9.619,1.9941651329566465,171.19788772861736,13.559598997493733,1,0.05
1755690512.1313496,-1.193,-0.67,-9.624,1.995036766578501,171.9083624868525,13.562155388471178,1,0.05
1755690512.161001,-1.193,-0.67,-9.624,1.995036766578501,171.9083624868525,13.562155388471178,1,0.05
1755690512.1904423,-0.886,-0.161,-9.612,1.9954794386312278,174.6478131021393,13.574937343358394,1,0.05
1755690512.2192476,-0.886,-0.161,-9.612,1.9954794386312278,174.6478131021393,13.574937343358394,1,0.05
1755690512.2483838,-1.084,-0.392,-9.726,1.9961463548547735,173.2409765928612,13.574586466165412,1,0.05
1755690512.2775578,-1.084,-0.392,-9.726,1.9961463548547735,173.2409765928612,13.574586466165412,1,0.05
1755690512.306894,-0.974,-0.401,-9.609,1.9965598006320773,173.74434081325992,13.574586466165414,1,0.05
1755690512.3358715,-1.141,-0.75,-9.852,1.9971127202789531,172.10944097373059,13.57408521303258,1,0.05
1755690512.3648818,-1.141,-0.75,-9.852,1.9971127202789531,172.10944097373059,13.57408521303258,1,0.05
1755690512.39411,-1.112,-0.36,-9.83,1.9974616735997714,173.2191662985702,13.553182957393481,1,0.05
1755690512.4243603,-1.112,-0.36,-9.83,1.9974616735997714,173.2191662985702,13.553182957393481,1,0.05
1755690512.45388,-0.936,-0.19,-9.617,1.9979204607541312,174.32840320056135,13.54751879699248,1,0.05
1755690512.482971,-0.936,-0.19,-9.617,1.9979204607541312,174.32840320056135,13.54751879699248,1,0.05
1755690512.5120838,-1.21,-0.56,-9.602,1.9988313122922605,172.09463420252874,13.533182957393484,1,0.05
1755690512.5416763,-1.21,-0.56,-9.602,1.9988313122922605,172.09463420252874,13.533182957393484,1,0.05
1755690512.5714064,-1.165,-0.308,-9.861,1.99954121612934,173.0329270267715,13.52922305764411,1,0.05
1755690512.6001923,-1.165,-0.308,-9.861,1.99954121612934,173.0329270267715,13.52922305764411,1,0.05
1755690512.6289566,-1.255,-0.538,-9.519,2.000304370589636,171.83687665816964,13.530977443609022,1,0.05
1755690512.6576529,-1.255,-0.538,-9.519,2.000304370589636,171.83687665816964,13.530977443609022,1,0.05
1755690512.6867948,-1.391,-0.473,-9.693,2.001249241723779,171.3809742691373,13.535288220551378,1,0.05
1755690512.7159123,-1.391,-0.473,-9.693,2.001249241723779,171.3809742691373,13.535288220551378,1,0.05
1755690512.7449028,-1.465,-0.077,-9.396,2.002364624637581,171.12590572933075,13.523709273182956,1,0.05
1755690512.773879,-3.559,-0.916,-8.595,2.0097469318299757,156.84976669424782,13.598546365914785,1,0.05
1755690512.8033044,-3.559,-0.916,-8.595,2.0097469318299757,156.84976669424782,13.598546365914785,1,0.05
1755690512.8332546,-5.135,-0.899,-8.799,2.024681012530122,149.35473397713534,13.66796992481203,1,0.05
1755690512.8628662,-5.135,-0.899,-8.799,2.024681012530122,149.35473397713534,13.66796992481203,1,0.05
1755690512.8920546,-3.83,-0.887,-12.958,2.0326540261441446,163.12255627375185,13.728822055137842,1,0.05
1755690512.9214869,-3.83,-0.887,-12.958,2.0326540261441446,163.12255627375185,13.728822055137842,1,0.05
1755690512.9512103,-2.507,0.385,-8.595,2.035595630890379,163.5586365924521,13.77593984962406,1,0.05
1755690512.9808187,-2.235,-0.259,-9.415,2.038227031638036,166.55976747190627,13.771127819548873,1,0.05
1755690513.0105293,-2.235,-0.259,-9.415,2.038227031638036,166.55976747190627,13.771127819548873,1,0.05
1755690513.0396857,-2.195,-0.98,-9.45,2.041042667976346,165.72812378805673,13.765964912280705,1,0.05
1755690513.0694711,-2.195,-0.98,-9.45,2.041042667976346,165.72812378805673,13.765964912280705,1,0.05
1755690513.0990965,-1.997,-0.185,-9.83,2.0434169777605353,168.4685781244905,13.759649122807016,1,0.05
1755690513.1279752,-1.997,-0.185,-9.83,2.0434169777605353,168.4685781244905,13.759649122807016,1,0.05
1755690513.1574702,-2.982,-0.827,-10.408,2.048849351465354,163.4415029153202,13.802456140350879,1,0.05
1755690513.1873908,-2.982,-0.827,-10.408,2.048849351465354,163.4415029153202,13.802456140350879,1,0.05
1755690513.2166293,-2.772,-0.971,-10.291,2.053520562960108,164.0707680921862,13.792932330827066,1,0.05
1755690513.2466433,-2.772,-0.971,-10.291,2.053520562960108,164.0707680921862,13.792932330827066,1,0.05
1755690513.2759738,-3.089,-0.245,-8.478,2.059278655864718,159.92269146941666,13.793032581453634,1,0.05
1755690513.3056219,-3.089,-0.245,-8.478,2.059278655864718,159.92269146941666,13.793032581453634,1,0.05
1755690513.3348525,-1.72,0.315,-8.35,2.0608710227716824,168.17238391093045,13.744060150375939,1,0.05
1755690513.364413,-1.72,0.315,-8.35,2.0608710227716824,168.17238391093045,13.744060150375939,1,0.05
1755690513.3910384,-0.664,-0.447,-9.892,2.0559467825067848,175.3738215531419,13.781002506265663,1,0.05
1755690513.4176068,-0.268,-0.293,-10.615,2.0495863265547025,177.85770709419617,13.726766917293231,1,0.05
1755690513.4441304,-0.268,-0.293,-10.615,2.0495863265547025,177.85770709419617,13.726766917293231,1,0.05
1755690513.473695,-0.023,0.166,-9.859,2.0476858572544763,179.0261654989416,13.72576441102757,1,0.05
1755690513.5035484,-0.023,0.166,-9.859,2.0476858572544763,179.0261654989416,13.72576441102757,1,0.05
1755690513.5326736,-0.388,-0.154,-10.344,2.045260736434355,177.68901368235532,13.649423558897244,1,0.05
1755690513.5629187,-0.388,-0.154,-10.344,2.045260736434355,177.68901368235532,13.649423558897244,1,0.05
1755690513.5925992,-0.373,0.127,-9.595,2.0453334428645125,177.64841494254458,13.645263157894737,1,0.05
1755690513.6222975,-0.373,0.127,-9.595,2.0453334428645125,177.64841494254458,13.645263157894737,1,0.05
1755690513.652319,-0.619,-0.108,-9.643,2.0455664142236984,176.27179964233946,13.614937343358395,1,0.05
1755690513.6820714,-0.619,-0.108,-9.643,2.0455664142236984,176.27179964233946,13.614937343358395,1,0.05
1755690513.7110033,-0.843,0.197,-9.792,2.0455111867208156,174.9476066132372,13.6125313283208,1,0.05
1755690513.739872,-0.023,-0.214,-10.465,2.0446790982939107,178.82177050625026,13.649573934837093,1,0.05
1755690513.7688153,-0.023,-0.214,-10.465,2.0446790982939107,178.82177050625026,13.649573934837093,1,0.05
1755690513.7978454,-0.45,-0.07,-9.146,2.0440817926394237,177.1493935286347,13.656641604010025,1,0.05
1755690513.8272007,-0.45,-0.07,-9.146,2.0440817926394237,177.1493935286347,13.656641604010025,1,0.05
1755690513.8562322,-0.047,1.173,-8.505,2.042931701623919,172.14114827605704,13.665112781954887,1,0.05
1755690513.8852797,-0.047,1.173,-8.505,2.042931701623919,172.14114827605704,13.665112781954887,1,0.05
1755690513.9155502,-0.557,-0.884,-8.963,2.0415429140725894,173.35085022664174,13.636040100250629,1,0.05
1755690513.9451869,-0.557,-0.884,-8.963,2.0415429140725894,173.35085022664174,13.636040100250629,1,0.05
1755690513.9742627,-0.576,-0.392,-11.256,2.0415830303957763,176.45796717420467,13.609373433583958,1,0.05
1755690514.003529,-0.576,-0.392,-11.256,2.0415830303957763,176.45796717420467,13.609373433583958,1,0.05
1755690514.0330212,-0.884,-0.149,-10.401,2.042060686537009,175.07381276322153,13.597694235588971,1,0.05
1755690514.0619192,0.933,2.963,-8.443,2.0423904205611616,159.79998259621584,13.664260651629075,1,0.05
1755690514.0914764,0.933,2.963,-8.443,2.0423904205611616,159.79998259621584,13.664260651629075,1,0.05
1755690514.1206372,-0.24,-0.038,-11.701,2.0417313896543785,178.810333806305,13.708922305764412,1,0.05
1755690514.1502194,-0.24,-0.038,-11.701,2.0417313896543785,178.810333806305,13.708922305764412,1,0.05
1755690514.1792774,-1.101,-0.44,-10.966,2.042098148351347,173.8290436265644,13.737393483709274,1,0.05
1755690514.2081242,-1.101,-0.44,-10.966,2.042098148351347,173.8290436265644,13.737393483709274,1,0.05
1755690514.2368984,-1.143,1.504,-9.702,2.0427507728550736,168.9820169240402,13.701403508771929,1,0.05
1755690514.2659798,-1.143,1.504,-9.702,2.0427507728550736,168.9820169240402,13.701403508771929,1,0.05
1755690514.2953691,0.948,0.26,-8.459,2.043256036330249,173.37147530690248,13.789122807017543,1,0.05
1755690514.3244386,0.948,0.26,-8.459,2.043256036330249,173.37147530690248,13.789122807017543,1,0.05
1755690514.353489,0.545,0.031,-8.913,2.043209360295709,176.49527035054942,13.791478696741853,1,0.05
1755690514.3823276,0.545,0.031,-8.913,2.043209360295709,176.49527035054942,13.791478696741853,1,0.05
1755690514.4113882,0.07,2.826,-4.339,2.0426402075500225,146.91567940908396,13.80265664160401,1,0.05
1755690514.4406724,0.07,2.826,-4.339,2.0426402075500225,146.91567940908396,13.80265664160401,1,0.05
1755690514.469586,-0.025,0.329,-12.898,2.041731049256978,178.53461519220912,13.793082706766917,1,0.05
1755690514.4985533,1.575,3.732,-11.237,2.042716577868795,160.17668768477088,13.867167919799499,1,0.05
1755690514.5280008,1.575,3.732,-11.237,2.042716577868795,160.17668768477088,13.867167919799499,1,0.05
1755690514.5574234,-0.991,2.084,-9.918,2.042636447706738,166.90200062028853,13.963258145363406,1,0.05
1755690514.5873437,-0.991,2.084,-9.918,2.042636447706738,166.90200062028853,13.963258145363406,1,0.05
1755690514.6161995,-0.953,3.701,-8.481,2.0430913073086088,155.7426054449709,13.957994987468672,1,0.05
1755690514.6454504,-0.953,3.701,-8.481,2.0430913073086088,155.7426054449709,13.957994987468672,1,0.05
1755690514.6754568,-0.576,4.508,-7.872,2.0432519686764037,150.00137410024428,13.961002506265663,1,0.05
1755690514.7051792,-0.576,4.508,-7.872,2.0432519686764037,150.00137410024428,13.961002506265663,1,0.05
1755690514.7336326,1.205,4.109,-8.265,2.044138297669705,152.6116097322232,14.043358395989973,1,0.05
1755690514.7636354,2.078,4.422,-8.383,2.0467728134797962,149.7648225252918,14.06441102756892,1,0.05
1755690514.793453,2.078,4.422,-8.383,2.0467728134797962,149.7648225252918,14.06441102756892,1,0.05
1755690514.8229423,3.673,3.771,-8.538,2.054820028615645,148.34382410245863,14.13889724310777,1,0.05
1755690514.852211,3.673,3.771,-8.538,2.054820028615645,148.34382410245863,14.13889724310777,1,0.05
1755690514.8817286,2.788,3.84,-7.16,2.059431899820919,146.46512392137257,14.170726817042606,1,0.05
1755690514.9111366,2.788,3.84,-7.16,2.059431899820919,146.46512392137257,14.170726817042606,1,0.05
1755690514.9401948,6.26,4.335,-6.444,2.08280568944873,130.24076572042497,14.341804511278193,1,0.05
1755690514.96998,6.26,4.335,-6.444,2.08280568944873,130.24076572042497,14.341804511278193,1,0.05
