timestamp,ax,ay,az,rms,tilt_now,jerk,tilt_crosses,freq
1755688762.0391543,9.717,-0.067,0.934,0.48585,84.50971518733216,0.4870676691729323,1,0.25
1755688762.1564538,9.876,-0.05,0.969,0.6927399674481038,84.39633783660386,0.4950375939849624,1,0.05
1755688762.183616,9.643,-0.122,0.879,0.8440126095029624,84.79205700010975,0.5067167919799498,1,0.05
1755688762.2093384,9.922,-0.026,1.076,0.9790160851589723,83.81071747065072,0.5207017543859648,1,0.05
1755688762.2356443,9.724,-0.084,0.9,1.0930978615842226,84.7122787178012,0.53062656641604,1,0.05
1755688762.2610393,9.688,-0.082,1.057,1.1956196280590243,83.77364835982368,0.5324310776942355,1,0.05
1755688762.286791,9.757,-0.043,1.012,1.2913186738756628,84.07848960275435,0.5358897243107767,1,0.05
1755688762.3123503,9.874,-0.101,0.967,1.3824773442989942,84.40692430273869,0.5417543859649122,1,0.05
1755688762.3384843,9.433,-0.034,0.955,1.4607180871064753,84.2190909784746,0.563859649122807,1,0.05
1755688762.364143,9.929,-0.026,1.069,1.5427766956043898,83.85497492972898,0.5887218045112782,1,0.05
1755688762.3899803,9.428,-0.058,0.824,1.6131887343085434,85.00517895733947,0.6138345864661654,1,0.05
1755688762.4159172,10.158,0.022,1.072,1.691254062079379,83.97574062413604,0.6504260651629072,1,0.05
1755688762.4412673,9.652,-0.096,0.879,1.7587617981125243,84.7967283100795,0.6757894736842105,1,0.05
1755688762.467092,9.929,0.027,1.119,1.8274861600023131,83.5699114707822,0.6896741854636592,1,0.05
1755688762.4923916,9.459,-0.204,0.946,1.8876936635746808,84.29012610508451,0.713233082706767,1,0.05
1755688762.518212,9.96,0.031,0.917,1.9522785066429431,84.73973148994648,0.7383458646616543,1,0.05
1755688762.544623,9.469,-0.094,0.972,2.008866911968038,84.13936007640932,0.7629573934837095,1,0.05
1755688762.5704646,9.881,-0.12,1.121,2.068727065733902,83.52793831351998,0.7836090225563913,1,0.05
1755688762.5962553,9.771,-0.072,0.957,2.125632323568684,84.40627800060156,0.789122807017544,1,0.05
1755688762.6218853,9.698,-0.05,0.965,2.1802386990877856,84.31756088625687,0.7927819548872185,1,0.05
1755688762.6483562,9.874,-0.086,0.969,2.2354374236377095,84.39534988238356,0.8016040100250628,1,0.05
1755688762.6741755,9.874,-0.086,0.969,2.2354374236377095,84.39534988238356,0.8016040100250628,1,0.05
1755688762.6999881,9.566,-0.072,0.905,2.28603398159345,84.59571903635384,0.8170426065162907,1,0.05
1755688762.7266414,9.566,-0.072,0.905,2.28603398159345,84.59571903635384,0.8170426065162907,1,0.05
1755688762.7557626,9.969,0.067,0.912,2.339744380803168,84.77304309412868,0.8372431077694235,1,0.05
1755688762.7819028,9.969,0.067,0.912,2.339744380803168,84.77304309412868,0.8372431077694235,1,0.05
1755688762.807677,9.676,-0.11,1.095,2.3892396714226893,83.54391382422101,0.8519298245614034,1,0.05
1755688762.833906,9.676,-0.11,1.095,2.3892396714226893,83.54391382422101,0.8519298245614034,1,0.05
1755688762.8598454,9.676,-0.11,1.095,2.3892396714226893,83.54391382422101,0.8519298245614034,1,0.05
1755688762.8852737,9.616,0.005,0.786,2.437136608296712,85.32710257823841,0.8549373433583959,1,0.05
1755688762.9115412,9.912,-0.062,1.024,2.4870171305200133,84.10186217648824,0.8697744360902254,1,0.05
1755688762.9370954,9.912,-0.062,1.024,2.4870171305200133,84.10186217648824,0.8697744360902254,1,0.05
1755688762.9630756,9.717,-0.065,0.9,2.5340292875182007,84.70841253731973,0.879548872180451,1,0.05
1755688762.9886477,9.717,-0.065,0.9,2.5340292875182007,84.70841253731973,0.879548872180451,1,0.05
1755688763.0144732,9.864,-0.041,0.889,2.5815791039594354,84.85013500944399,0.8869172932330825,1,0.05
1755688763.0400593,9.864,-0.041,0.889,2.5815791039594354,84.85013500944399,0.8869172932330825,1,0.05
1755688763.0661967,9.547,-0.168,1.064,2.6253406812259623,83.64168312467578,0.9028070175438597,1,0.05
1755688763.091876,9.547,-0.168,1.064,2.6253406812259623,83.64168312467578,0.9028070175438597,1,0.05
1755688763.1175818,9.547,-0.168,1.064,2.6253406812259623,83.64168312467578,0.9028070175438597,1,0.05
1755688763.1431015,9.841,0.039,0.96,2.6710535178090313,84.4284083324955,0.9175438596491229,1,0.05
1755688763.1692688,9.841,0.039,0.96,2.6710535178090313,84.4284083324955,0.9175438596491229,1,0.05
1755688763.194578,9.855,-0.065,0.917,2.716123976828009,84.68409478528861,0.9182456140350875,1,0.05
1755688763.2196872,9.855,-0.065,0.917,2.716123976828009,84.68409478528861,0.9182456140350875,1,0.05
1755688763.2450879,9.59,-0.142,0.979,2.7581243096532106,84.17175834054748,0.931528822055138,1,0.05
1755688763.2703123,9.59,-0.142,0.979,2.7581243096532106,84.17175834054748,0.931528822055138,1,0.05
1755688763.296008,9.662,-0.163,1.015,2.800113447255307,84.00388002827833,0.9351378446115289,1,0.05
1755688763.3218062,9.662,-0.163,1.015,2.800113447255307,84.00388002827833,0.9351378446115289,1,0.05
1755688763.3473716,9.798,0.0,1.012,2.8426461840158725,84.10303648978918,0.9419548872180452,1,0.05
1755688763.3728733,9.798,0.0,1.012,2.8426461840158725,84.10303648978918,0.9419548872180452,1,0.05
1755688763.397981,9.695,0.002,0.924,2.883681655453667,84.55576363905521,0.9471177944862156,1,0.05
1755688763.4237652,9.695,0.002,0.924,2.883681655453667,84.55576363905521,0.9471177944862156,1,0.05
1755688763.4490745,9.695,0.002,0.924,2.883681655453667,84.55576363905521,0.9471177944862156,1,0.05
1755688763.474133,9.624,-0.214,1.036,2.9235549131151957,83.85741628305757,0.9506766917293236,1,0.05
1755688763.4998376,9.91,0.065,0.955,2.9652476422720584,84.495675067921,0.9650125313283209,1,0.05
1755688763.5249815,9.91,0.065,0.955,2.9652476422720584,84.495675067921,0.9650125313283209,1,0.05
1755688763.5509813,9.91,0.065,0.955,2.9652476422720584,84.495675067921,0.9650125313283209,1,0.05
1755688763.5764704,9.733,-0.072,0.996,3.0049162721280607,84.15729014026174,0.9738847117794485,1,0.05
1755688763.6018481,9.733,-0.072,0.996,3.0049162721280607,84.15729014026174,0.9738847117794485,1,0.05
1755688763.6273222,9.779,-0.005,1.083,3.0444365496754897,83.68038806717625,0.9761904761904762,1,0.05
1755688763.6526484,9.779,-0.005,1.083,3.0444365496754897,83.68038806717625,0.9761904761904762,1,0.05
1755688763.6785045,9.659,-0.043,1.06,3.082504599753259,83.73735721665453,0.9822055137844611,1,0.05
1755688763.7039678,9.659,-0.043,1.06,3.082504599753259,83.73735721665453,0.9822055137844611,1,0.05
1755688763.7294302,9.659,-0.043,1.06,3.082504599753259,83.73735721665453,0.9822055137844611,1,0.05
1755688763.7548466,9.416,-0.151,0.867,3.1182506710493945,84.73986497130088,0.9943859649122807,1,0.05
1755688763.78017,9.857,-0.026,0.872,3.1569587216180066,84.94450433129516,1.0164912280701754,1,0.05
1755688763.8063984,9.857,-0.026,0.872,3.1569587216180066,84.94450433129516,1.0164912280701754,1,0.05
1755688763.8319988,9.857,-0.026,0.872,3.1569587216180066,84.94450433129516,1.0164912280701754,1,0.05
1755688763.857889,9.857,-0.026,0.872,3.1569587216180066,84.94450433129516,1.0164912280701754,1,0.05
1755688763.8839586,9.857,-0.026,0.872,3.1569587216180066,84.94450433129516,1.0164912280701754,1,0.05
1755688763.9092655,9.521,-0.156,0.974,3.192649678950072,84.15972960682751,1.0333333333333332,1,0.05
1755688763.9349494,8.799,-1.305,-0.499,3.2228198793913383,93.21077745496216,1.0695238095238095,1,0.05
1755688763.9608846,9.736,-0.274,2.079,3.2593775809194,77.95087401186899,1.1164912280701755,1,0.05
1755688763.9877963,9.669,0.017,-0.285,3.2950365881883616,91.68833854271278,1.1198496240601505,1,0.05
1755688764.012921,9.669,0.017,-0.285,3.2950365881883616,91.68833854271278,1.1198496240601505,1,0.05
1755688764.0384195,9.669,0.017,-0.285,3.2950365881883616,91.68833854271278,1.1198496240601505,1,0.05
1755688764.0640702,8.999,0.337,-0.787,3.325615900852051,94.99455497099807,1.1534335839599,1,0.05
1755688764.0898345,8.999,0.337,-0.787,3.325615900852051,94.99455497099807,1.1534335839599,1,0.05
1755688764.1155837,8.586,0.567,-4.09,3.353210343834696,115.422748264631,1.1741353383458648,1,0.05
1755688764.1418114,8.586,0.567,-4.09,3.353210343834696,115.422748264631,1.1741353383458648,1,0.05
1755688764.1673238,8.16,0.478,-4.886,3.3779407351225093,120.86886397826409,1.1954887218045114,1,0.05
1755688764.1928408,8.16,0.478,-4.886,3.3779407351225093,120.86886397826409,1.1954887218045114,1,0.05
1755688764.2183008,8.739,0.262,-3.812,3.406084102382089,113.55766432660916,1.2245112781954888,1,0.05
1755688764.2442076,8.739,0.262,-3.812,3.406084102382089,113.55766432660916,1.2245112781954888,1,0.05
1755688764.2696567,8.789,0.397,-4.201,3.4343158292445963,115.52433370847352,1.2270175438596491,1,0.05
1755688764.2957902,8.789,0.397,-4.201,3.4343158292445963,115.52433370847352,1.2270175438596491,1,0.05
1755688764.3216174,8.648,0.38,-4.142,3.461429614335672,115.57078650397293,1.2340852130325815,1,0.05
1755688764.3476264,8.648,0.38,-4.142,3.461429614335672,115.57078650397293,1.2340852130325815,1,0.05
1755688764.373431,8.997,0.286,-3.987,3.4905386400239147,113.88970166131148,1.251578947368421,1,0.05
1755688764.399509,8.997,0.286,-3.987,3.4905386400239147,113.88970166131148,1.251578947368421,1,0.05
1755688764.4249852,8.205,0.339,-4.821,3.5145647041988,120.41581870424895,1.2912781954887218,1,0.05
1755688764.450987,8.205,0.339,-4.821,3.5145647041988,120.41581870424895,1.2912781954887218,1,0.05
1755688764.4767644,8.205,0.339,-4.821,3.5145647041988,120.41581870424895,1.2912781954887218,1,0.05
1755688764.5024981,7.471,0.346,-4.962,3.5343605733569405,123.56256296772473,1.3280701754385964,1,0.05
1755688764.528107,7.471,0.346,-4.962,3.5343605733569405,123.56256296772473,1.3280701754385964,1,0.05
1755688764.5543234,9.147,0.111,-0.73,3.5638285150944062,94.5626322394966,1.412080200501253,1,0.05
1755688764.579621,9.147,0.111,-0.73,3.5638285150944062,94.5626322394966,1.412080200501253,1,0.05
1755688764.6053755,0.895,-2.502,3.106,3.564109460650725,40.54780482269367,1.8257142857142856,1,0.05
1755688764.6306741,0.895,-2.502,3.106,3.564109460650725,40.54780482269367,1.8257142857142856,1,0.05
1755688764.656722,10.332,-0.375,1.423,3.601354163019794,82.16322976209186,2.2987468671679196,1,0.05
1755688764.6823187,10.332,-0.375,1.423,3.601354163019794,82.16322976209186,2.2987468671679196,1,0.05
1755688764.7086182,9.113,0.111,2.942,3.6300645627867283,72.10932053397592,2.3598496240601503,1,0.05
1755688764.73444,9.113,0.111,2.942,3.6300645627867283,72.10932053397592,2.3598496240601503,1,0.05
1755688764.7605984,9.485,0.334,3.476,3.6609126993824916,69.88492635906813,2.3784962406015038,1,0.05
1755688764.7867422,9.485,0.334,3.476,3.6609126993824916,69.88492635906813,2.3784962406015038,1,0.05
1755688764.8125837,9.249,-0.274,3.987,3.690005663274787,66.68953450510456,2.390325814536341,1,0.05
1755688764.8388546,9.249,-0.274,3.987,3.690005663274787,66.68953450510456,2.390325814536341,1,0.05
1755688764.8641746,8.615,-0.046,4.652,3.7150622279445065,61.631810097037224,2.4221052631578948,1,0.05
1755688764.8897395,8.615,-0.046,4.652,3.7150622279445065,61.631810097037224,2.4221052631578948,1,0.05
1755688764.9159465,8.61,-0.067,4.883,3.7399221392296393,60.441817748593344,2.422355889724311,1,0.05
1755688764.9421506,8.61,-0.067,4.883,3.7399221392296393,60.441817748593344,2.422355889724311,1,0.05
1755688764.9677532,6.903,0.031,6.071,3.7558149754746974,48.66954060155192,2.507919799498747,1,0.05
1755688764.993763,6.903,0.031,6.071,3.7558149754746974,48.66954060155192,2.507919799498747,1,0.05
1755688765.0196946,8.732,-0.154,4.797,3.781106410827392,61.22118448049073,2.5995989974937346,1,0.05
1755688765.0455637,8.732,-0.154,4.797,3.781106410827392,61.22118448049073,2.5995989974937346,1,0.05
1755688765.0712433,8.732,-0.154,4.797,3.781106410827392,61.22118448049073,2.5995989974937346,1,0.05
1755688765.0972157,6.732,-0.231,4.933,3.796059173669452,53.783270290882186,2.6998496240601506,1,0.05
1755688765.1229634,6.732,-0.231,4.933,3.796059173669452,53.783270290882186,2.6998496240601506,1,0.05
1755688765.1488984,7.647,0.238,1.96,3.8152662780597635,75.63068302463816,2.7457142857142856,1,0.05
1755688765.1749182,7.647,0.238,1.96,3.8152662780597635,75.63068302463816,2.7457142857142856,1,0.05
1755688765.2017326,9.736,1.428,3.386,3.8461969544603405,71.01166681785325,2.850426065162907,1,0.05
1755688765.2273977,9.934,-0.159,-0.452,3.8781363955513477,92.60484527394526,2.860350877192982,1,0.05
1755688765.2533937,9.934,-0.159,-0.452,3.8781363955513477,92.60484527394526,2.860350877192982,1,0.05
1755688765.279463,9.934,-0.159,-0.452,3.8781363955513477,92.60484527394526,2.860350877192982,1,0.05
1755688765.305641,9.552,-0.187,0.993,3.9074344092383684,84.06613391710502,2.879498746867168,1,0.05
1755688765.3315017,9.552,-0.187,0.993,3.9074344092383684,84.06613391710502,2.879498746867168,1,0.05
1755688765.3572638,9.473,-0.026,0.858,3.9360370914156793,84.82467798292203,2.8834586466165413,1,0.05
1755688765.3828213,9.473,-0.026,0.858,3.9360370914156793,84.82467798292203,2.8834586466165413,1,0.05
1755688765.4088745,9.731,-0.077,0.858,3.9659953211646632,84.96131446988174,2.8963909774436094,1,0.05
1755688765.4346178,9.731,-0.077,0.858,3.9659953211646632,84.96131446988174,2.8963909774436094,1,0.05
1755688765.4607844,9.731,-0.077,0.858,3.9659953211646632,84.96131446988174,2.8963909774436094,1,0.05
1755688765.4872935,9.833,0.017,0.829,3.9963531638232377,85.18091407762437,2.9015037593984965,1,0.05
1755688765.5130472,9.757,-0.12,1.024,4.026019899665177,84.00917384074968,2.90531328320802,1,0.05
1755688765.538967,9.757,-0.12,1.024,4.026019899665177,84.00917384074968,2.90531328320802,1,0.05
1755688765.5646787,9.757,-0.12,1.024,4.026019899665177,84.00917384074968,2.90531328320802,1,0.05
1755688765.5903537,9.807,0.048,0.862,4.055771117185978,84.9768765283693,2.9078195488721805,1,0.05
1755688765.6168635,9.605,-0.055,0.931,4.084105705965506,84.46378071362587,2.9179448621553883,1,0.05
1755688765.6424658,9.605,-0.055,0.931,4.084105705965506,84.46378071362587,2.9179448621553883,1,0.05
1755688765.6690314,9.91,-0.168,0.943,4.114053921316541,84.56508252379106,2.9332330827067667,1,0.05
1755688765.6953866,9.91,-0.168,0.943,4.114053921316541,84.56508252379106,2.9332330827067667,1,0.05
1755688765.7213686,9.69,-0.055,1.053,4.142484751631562,83.79817570219215,2.944260651629073,1,0.05
1755688765.7474282,9.69,-0.055,1.053,4.142484751631562,83.79817570219215,2.944260651629073,1,0.05
1755688765.773265,9.69,-0.055,1.053,4.142484751631562,83.79817570219215,2.944260651629073,1,0.05
1755688765.799863,9.693,-0.062,0.948,4.170739207862319,84.41420605308431,2.9444110275689215,1,0.05
1755688765.825905,9.74,-0.067,1.019,4.19907543871267,84.02757617058286,2.946766917293233,1,0.05
1755688765.8519433,9.74,-0.067,1.019,4.19907543871267,84.02757617058286,2.946766917293233,1,0.05
1755688765.8779857,9.585,-0.062,1.024,4.2263358956074475,83.90214197417244,2.9545363408521297,1,0.05
1755688765.9046192,9.585,-0.062,1.024,4.2263358956074475,83.90214197417244,2.9545363408521297,1,0.05
1755688765.9311676,9.9,0.014,1.017,4.255225035471097,84.13474075160434,2.97032581453634,1,0.05
1755688765.9574313,9.9,0.014,1.017,4.255225035471097,84.13474075160434,2.97032581453634,1,0.05
1755688765.9838922,9.9,0.014,1.017,4.255225035471097,84.13474075160434,2.97032581453634,1,0.05
1755688766.009629,9.802,-0.12,1.022,4.283355940439693,84.04803818229702,2.9752380952380943,1,0.05
1755688766.035246,9.802,-0.12,1.022,4.283355940439693,84.04803818229702,2.9752380952380943,1,0.05
1755688766.0611308,9.802,-0.12,1.022,4.283355940439693,84.04803818229702,2.9752380952380943,1,0.05
1755688766.0870674,9.843,-0.048,1.102,4.311536818235465,83.61197154764457,2.977293233082707,1,0.05
1755688766.1126173,9.702,-0.01,0.984,4.338740801776479,84.20873145219214,2.9843609022556383,1,0.05
1755688766.1391046,9.702,-0.01,0.984,4.338740801776479,84.20873145219214,2.9843609022556383,1,0.05
1755688766.1648586,9.817,-0.053,1.007,4.366417921763788,84.143330708768,2.9901253132832073,1,0.05
1755688766.1910465,9.817,-0.053,1.007,4.366417921763788,84.143330708768,2.9901253132832073,1,0.05
1755688766.217457,9.616,-0.065,0.898,4.392809363892314,84.66496947026491,3.000200501253132,1,0.05
1755688766.2430258,9.616,-0.065,0.898,4.392809363892314,84.66496947026491,3.000200501253132,1,0.05
1755688766.2692683,9.752,-0.022,1.034,4.419788215231585,83.94758398340525,3.0070175438596483,1,0.05
1755688766.2960973,9.752,-0.022,1.034,4.419788215231585,83.94758398340525,3.0070175438596483,1,0.05
1755688766.3220208,9.707,-0.048,0.972,4.446357215744142,84.28187910366083,3.009273182957393,1,0.05
1755688766.3492258,9.707,-0.048,0.972,4.446357215744142,84.28187910366083,3.009273182957393,1,0.05
1755688766.3758528,9.857,-0.091,1.019,4.47358844916472,84.09807495746136,3.016791979949874,1,0.05
1755688766.4014208,9.857,-0.091,1.019,4.47358844916472,84.09807495746136,3.016791979949874,1,0.05
1755688766.4271963,9.671,-0.014,0.962,4.499646009965673,84.31933009594798,3.0261152882205518,1,0.05
1755688766.4530544,9.671,-0.014,0.962,4.499646009965673,84.31933009594798,3.0261152882205518,1,0.05
1755688766.4785073,9.683,-0.002,1.076,4.525617685741914,83.65915894558776,3.02671679197995,1,0.05
1755688766.5038588,9.683,-0.002,1.076,4.525617685741914,83.65915894558776,3.02671679197995,1,0.05
1755688766.5291505,9.793,-0.101,1.026,4.552029499025682,84.01933042612393,3.032230576441103,1,0.05
1755688766.554906,9.793,-0.101,1.026,4.552029499025682,84.01933042612393,3.032230576441103,1,0.05
1755688766.5811148,9.793,-0.101,1.026,4.552029499025682,84.01933042612393,3.032230576441103,1,0.05
1755688766.606629,9.855,-0.041,0.953,4.578621530821258,84.47659507764106,3.035338345864662,1,0.05
1755688766.632893,9.602,-0.091,0.931,4.603723615998249,84.46221867185332,3.0480200501253134,1,0.05
1755688766.6590176,9.602,-0.091,0.931,4.603723615998249,84.46221867185332,3.0480200501253134,1,0.05
1755688766.6852298,9.602,-0.091,0.931,4.603723615998249,84.46221867185332,3.0480200501253134,1,0.05
1755688766.7119598,9.755,0.046,0.703,4.629489301748088,85.87811634321733,3.055689223057644,1,0.05
1755688766.7385237,9.755,0.046,0.703,4.629489301748088,85.87811634321733,3.055689223057644,1,0.05
1755688766.764395,9.981,-0.281,1.243,4.656309922835893,82.90390943574492,3.0670175438596488,1,0.05
1755688766.790255,9.981,-0.281,1.243,4.656309922835893,82.90390943574492,3.0670175438596488,1,0.05
1755688766.8161948,11.455,-0.622,1.221,4.691403271943268,83.92464072733594,3.140902255639097,1,0.05
1755688766.842584,11.455,-0.622,1.221,4.691403271943268,83.92464072733594,3.140902255639097,1,0.05
1755688766.8692892,15.982,0.697,1.14,4.758973152897587,85.92384969873856,3.36781954887218,1,0.05
1755688766.8956864,15.982,0.697,1.14,4.758973152897587,85.92384969873856,3.36781954887218,1,0.05
1755688766.9221387,16.466,0.55,0.511,4.829663379574191,88.22346373772424,3.392080200501253,1,0.05
1755688766.9481769,16.466,0.55,0.511,4.829663379574191,88.22346373772424,3.392080200501253,1,0.05
1755688766.9739704,13.426,0.598,2.447,4.87609393367273,79.68075590424837,3.5444611528822048,1,0.05
1755688766.999683,13.426,0.598,2.447,4.87609393367273,79.68075590424837,3.5444611528822048,1,0.05
1755688767.0255744,9.528,0.416,2.592,4.89931107503902,74.79533694611332,3.7398496240601498,1,0.05
1755688767.0513265,9.528,0.416,2.592,4.89931107503902,74.79533694611332,3.7398496240601498,1,0.05
1755688767.078264,9.528,0.416,2.592,4.89931107503902,74.79533694611332,3.7398496240601498,1,0.05
1755688767.1039596,-0.898,-2.528,0.915,4.899516814952266,71.16718610086242,4.262456140350877,1,0.05
1755688767.1302197,-0.898,-2.528,0.915,4.899516814952266,71.16718610086242,4.262456140350877,1,0.05
1755688767.156985,-0.125,-5.222,4.047,4.899520801313124,52.23260372717629,4.301203007518797,1,0.05
1755688767.183407,3.525,-6.443,3.163,4.9026898887243515,66.69953815193591,4.484160401002506,1,0.05
1755688767.2098777,3.525,-6.443,3.163,4.9026898887243515,66.69953815193591,4.484160401002506,1,0.05
1755688767.2355993,3.525,-6.443,3.163,4.9026898887243515,66.69953815193591,4.484160401002506,1,0.05
1755688767.2618854,6.889,-6.479,1.162,4.914775065809218,82.9951029762703,4.652781954887218,1,0.05
1755688767.2885106,6.093,-6.77,3.488,4.9242081160324656,69.04537447727355,4.692681704260652,1,0.05
1755688767.3143811,6.093,-6.77,3.488,4.9242081160324656,69.04537447727355,4.692681704260652,1,0.05
1755688767.3401523,6.088,-6.842,2.742,4.933607699239979,73.33248241447592,4.692932330827068,1,0.05
1755688767.36635,6.088,-6.842,2.742,4.933607699239979,73.33248241447592,4.692932330827068,1,0.05
1755688767.392194,5.015,-6.705,2.512,4.939975758290723,73.30014158607668,4.74671679197995,1,0.05
1755688767.4179578,5.015,-6.705,2.512,4.939975758290723,73.30014158607668,4.74671679197995,1,0.05
1755688767.4438057,5.015,-6.705,2.512,4.939975758290723,73.30014158607668,4.74671679197995,1,0.05
1755688767.4705572,7.838,-6.373,3.179,4.955496554584617,72.53164125530223,4.8882205513784465,1,0.05
1755688767.4968195,7.838,-6.373,3.179,4.955496554584617,72.53164125530223,4.8882205513784465,1,0.05
1755688767.5228872,3.832,-5.941,2.899,4.95919919568674,67.70324430908921,5.089022556390978,1,0.05
1755688767.5486066,3.832,-5.941,2.899,4.95919919568674,67.70324430908921,5.089022556390978,1,0.05
1755688767.5747797,-4.524,-4.624,1.803,4.964355255468731,74.42610749802351,5.507869674185463,1,0.05
1755688767.600849,-4.524,-4.624,1.803,4.964355255468731,74.42610749802351,5.507869674185463,1,0.05
1755688767.626753,-4.524,-4.624,1.803,4.964355255468731,74.42610749802351,5.507869674185463,1,0.05
1755688767.6524396,-4.524,-4.624,1.803,4.964355255468731,74.42610749802351,5.507869674185463,1,0.05
1755688767.678734,-4.524,-4.624,1.803,4.964355255468731,74.42610749802351,5.507869674185463,1,0.05
1755688767.704816,-4.524,-4.624,1.803,4.964355255468731,74.42610749802351,5.507869674185463,1,0.05
1755688767.7310555,8.348,0.512,4.816,4.9818717228066,60.06568797519217,6.153082706766917,1,0.05
1755688767.7573178,12.089,-0.161,1.316,5.01840668589145,83.78783236316012,6.340601503759399,1,0.05
1755688767.7841902,16.805,0.192,0.732,5.088263527717487,87.50602298521713,6.576992481203008,1,0.05
1755688767.81023,13.414,-0.389,2.647,5.132276708976241,78.84174856421708,6.746967418546367,1,0.05
1755688767.8361707,11.571,-0.101,1.613,5.164783085474162,82.06439482450118,6.839348370927319,1,0.05
1755688767.862588,11.571,-0.101,1.613,5.164783085474162,82.06439482450118,6.839348370927319,1,0.05
1755688767.8884447,7.752,-0.399,1.618,5.17930671808496,78.22561197917479,7.0307769423558915,1,0.05
1755688767.915194,7.752,-0.399,1.618,5.17930671808496,78.22561197917479,7.0307769423558915,1,0.05
1755688767.9411979,9.833,0.087,0.943,5.202589528542493,84.52221162692152,7.135087719298247,1,0.05
1755688767.9672246,9.833,0.087,0.943,5.202589528542493,84.52221162692152,7.135087719298247,1,0.05
1755688767.9937687,8.334,-0.01,2.179,5.219250587249093,75.34751592138737,7.210225563909777,1,0.05
1755688768.0201101,8.334,-0.01,2.179,5.219250587249093,75.34751592138737,7.210225563909777,1,0.05
1755688768.0461607,8.334,-0.01,2.179,5.219250587249093,75.34751592138737,7.210225563909777,1,0.05
1755688768.0724194,7.49,0.284,1.112,5.232669198649959,81.56126540572897,7.252531328320804,1,0.05
1755688768.0990634,19.198,9.435,19.477,5.319984487994303,47.68164976126659,7.8393984962406025,1,0.05
1755688768.125582,19.198,9.435,19.477,5.319984487994303,47.68164976126659,7.8393984962406025,1,0.05
1755688768.1518528,8.432,-0.509,0.171,5.336663893529365,88.84031779097054,8.37904761904762,1,0.05
1755688768.1780334,8.432,-0.509,0.171,5.336663893529365,88.84031779097054,8.37904761904762,1,0.05
1755688768.2044811,9.941,-0.228,1.397,5.359761208766674,82.00273400102387,8.45468671679198,1,0.05
1755688768.2309573,9.941,-0.228,1.397,5.359761208766674,82.00273400102387,8.45468671679198,1,0.05
1755688768.2570748,9.855,0.002,0.853,5.382364051000266,85.05309027411273,8.458997493734334,1,0.05
1755688768.2835603,9.855,0.002,0.853,5.382364051000266,85.05309027411273,8.458997493734334,1,0.05
1755688768.3098943,9.643,0.007,1.259,5.40391630209055,82.5614817165996,8.469624060150375,1,0.05
1755688768.336233,9.643,0.007,1.259,5.40391630209055,82.5614817165996,8.469624060150375,1,0.05
1755688768.362944,9.76,-0.149,0.725,5.4259059520046975,85.75220543835762,8.47548872180451,1,0.05
1755688768.3893318,9.76,-0.149,0.725,5.4259059520046975,85.75220543835762,8.47548872180451,1,0.05
1755688768.4153109,9.76,-0.149,0.725,5.4259059520046975,85.75220543835762,8.47548872180451,1,0.05
1755688768.441469,9.695,-0.175,1.221,5.447516678496726,82.82304920295445,8.478746867167919,1,0.05
1755688768.4674985,9.695,-0.175,1.221,5.447516678496726,82.82304920295445,8.478746867167919,1,0.05
1755688768.4940217,9.793,-0.091,1.186,5.469478502106028,83.09500888405836,8.483659147869673,1,0.05
1755688768.5205517,9.793,-0.091,1.186,5.469478502106028,83.09500888405836,8.483659147869673,1,0.05
1755688768.5470014,9.64,-0.127,1.281,5.490675649225695,82.43131278176111,8.491328320802005,1,0.05
1755688768.5734363,9.64,-0.127,1.281,5.490675649225695,82.43131278176111,8.491328320802005,1,0.05
1755688768.6000662,9.74,-0.154,1.228,5.512230772110326,82.81506413845015,8.496340852130325,1,0.05
1755688768.625979,9.74,-0.154,1.228,5.512230772110326,82.81506413845015,8.496340852130325,1,0.05
1755688768.6520112,9.714,-0.101,1.205,5.533587676634391,82.92908786767215,8.49764411027569,1,0.05
1755688768.6787307,9.714,-0.101,1.205,5.533587676634391,82.92908786767215,8.49764411027569,1,0.05
1755688768.7053647,9.659,-0.055,1.133,5.554622694432089,83.30988909019125,8.500401002506267,1,0.05
1755688768.7322807,9.659,-0.055,1.133,5.554622694432089,83.30988909019125,8.500401002506267,1,0.05
1755688768.7591262,9.812,-0.096,1.255,5.5762461959189,82.71152637602026,8.508070175438595,1,0.05
1755688768.785418,9.812,-0.096,1.255,5.5762461959189,82.71152637602026,8.508070175438595,1,0.05
1755688768.8121498,9.869,-0.098,0.663,5.5980366683329255,86.15683002948794,8.510927318295739,1,0.05
1755688768.8383439,9.869,-0.098,0.663,5.5980366683329255,86.15683002948794,8.510927318295739,1,0.05
1755688768.8643408,9.295,-0.115,0.893,5.617295354750362,84.51267363873602,8.539699248120298,1,0.05
1755688768.890489,9.295,-0.115,0.893,5.617295354750362,84.51267363873602,8.539699248120298,1,0.05
1755688768.917204,9.91,-0.159,0.708,5.639106964094581,85.91408555728201,8.570526315789474,1,0.05
1755688768.944034,9.91,-0.159,0.708,5.639106964094581,85.91408555728201,8.570526315789474,1,0.05
1755688768.971152,9.91,-0.159,0.708,5.639106964094581,85.91408555728201,8.570526315789474,1,0.05
1755688768.998115,9.91,-0.159,0.708,5.639106964094581,85.91408555728201,8.570526315789474,1,0.05
1755688769.0247283,9.91,-0.159,0.708,5.639106964094581,85.91408555728201,8.570526315789474,1,0.05
1755688769.0514255,9.91,-0.159,0.708,5.639106964094581,85.91408555728201,8.570526315789474,1,0.05
1755688769.0781553,13.312,-0.06,0.059,5.6782524347284875,89.74606411348265,8.741052631578945,1,0.05
1755688769.1045537,7.893,-0.07,3.681,5.691950398150004,64.99827742580648,9.01268170426065,1,0.05
1755688769.1313987,9.445,-0.132,3.586,5.711507629120353,69.21149984714226,9.09047619047619,1,0.05
1755688769.157468,6.414,-0.065,6.09,5.720504163751652,46.48576840004514,9.242406015037593,1,0.05
1755688769.1843433,6.541,0.113,7.433,5.729845511879008,41.35184311549205,9.24877192982456,1,0.05
1755688769.2110496,6.541,0.113,7.433,5.729845511879008,41.35184311549205,9.24877192982456,1,0.05
1755688769.2374315,6.541,0.113,7.433,5.729845511879008,41.35184311549205,9.24877192982456,1,0.05
1755688769.2643828,7.43,-0.238,6.627,5.741876160280714,48.284037053447534,9.293333333333333,1,0.05
1755688769.2910018,7.43,-0.238,6.627,5.741876160280714,48.284037053447534,9.293333333333333,1,0.05
1755688769.3182776,7.08,-0.101,6.836,5.752778271409389,46.00742123074582,9.310877192982456,1,0.05
1755688769.3446841,7.08,-0.101,6.836,5.752778271409389,46.00742123074582,9.310877192982456,1,0.05
1755688769.3711727,5.749,0.171,7.551,5.759955324696537,37.29626467858766,9.377593984962404,1,0.05
1755688769.397473,6.82,-0.034,6.979,5.770040410820361,44.34019025312628,9.431278195488721,1,0.05
1755688769.424194,6.82,-0.034,6.979,5.770040410820361,44.34019025312628,9.431278195488721,1,0.05
1755688769.4506211,4.812,0.212,6.798,5.775054519439621,35.31916949837651,9.531929824561402,1,0.05
1755688769.4770834,4.812,0.212,6.798,5.775054519439621,35.31916949837651,9.531929824561402,1,0.05
1755688769.5036476,9.395,-0.07,1.917,5.79412804181958,78.46772210317116,9.761654135338343,1,0.05
1755688769.5309956,9.395,-0.07,1.917,5.79412804181958,78.46772210317116,9.761654135338343,1,0.05
1755688769.5580337,9.395,-0.07,1.917,5.79412804181958,78.46772210317116,9.761654135338343,1,0.05
1755688769.5849988,-0.073,-0.714,-4.703,5.794129191474764,171.32307196225045,10.236240601503757,1,0.05
1755688769.6114664,-0.073,-0.714,-4.703,5.794129191474764,171.32307196225045,10.236240601503757,1,0.05
1755688769.6378875,9.948,0.166,-0.221,5.815439781091367,91.27246915314916,10.738546365914786,1,0.05
1755688769.6638908,9.948,0.166,-0.221,5.815439781091367,91.27246915314916,10.738546365914786,1,0.05
1755688769.6904066,9.316,-0.159,-0.654,5.834064576905195,94.01509604285506,10.770225563909772,1,0.05
1755688769.716633,9.786,0.077,-0.692,5.854547290568247,94.04471386001707,10.79378446115288,1,0.05
1755688769.7434313,9.786,0.077,-0.692,5.854547290568247,94.04471386001707,10.79378446115288,1,0.05
1755688769.769761,9.786,0.077,-0.692,5.854547290568247,94.04471386001707,10.79378446115288,1,0.05
1755688769.7974544,9.802,-0.271,-0.886,5.875025275477544,95.16295129517066,10.794586466165413,1,0.05
1755688769.8243072,9.802,-0.271,-0.886,5.875025275477544,95.16295129517066,10.794586466165413,1,0.05
1755688769.8508916,9.721,0.041,-1.172,5.895096826176819,96.87455145600694,10.798646616541353,1,0.05
1755688769.8774667,9.721,0.041,-1.172,5.895096826176819,96.87455145600694,10.798646616541353,1,0.05
1755688769.9036818,9.881,0.01,-1.124,5.91576301017037,96.48970570863945,10.806666666666667,1,0.05
1755688769.930041,9.488,0.007,-1.366,5.934754194783471,98.19265195315546,10.826365914786965,1,0.05
1755688769.95667,9.488,0.007,-1.366,5.934754194783471,98.19265195315546,10.826365914786965,1,0.05
1755688769.98284,9.488,0.007,-1.366,5.934754194783471,98.19265195315546,10.826365914786965,1,0.05
1755688770.0094466,9.402,0.147,-1.592,5.953343712780239,99.60933786221925,10.830676691729323,1,0.05
1755688770.0357757,9.402,0.147,-1.592,5.953343712780239,99.60933786221925,10.830676691729323,1,0.05
1755688770.0625827,6.894,0.442,-3.762,5.963314468691048,118.57155338736692,10.956390977443608,1,0.05
1755688770.0890815,10.418,0.649,2.911,5.986021739227147,74.41729698651942,11.133032581453634,1,0.05
1755688770.1152902,10.418,0.649,2.911,5.986021739227147,74.41729698651942,11.133032581453634,1,0.05
1755688770.1417265,10.019,-0.082,2.433,6.006946575840342,76.35102379784286,11.153032581453633,1,0.05
1755688770.1680198,10.019,-0.082,2.433,6.006946575840342,76.35102379784286,11.153032581453633,1,0.05
1755688770.194558,10.019,-0.082,2.433,6.006946575840342,76.35102379784286,11.153032581453633,1,0.05
1755688770.22143,7.919,-0.154,2.352,6.019982023851898,73.46115768214058,11.25829573934837,1,0.05
1755688770.2481022,7.919,-0.154,2.352,6.019982023851898,73.46115768214058,11.25829573934837,1,0.05
1755688770.2744284,10.053,-0.404,3.255,6.040930440751656,72.07242283189296,11.365263157894736,1,0.05
1755688770.3013086,10.053,-0.404,3.255,6.040930440751656,72.07242283189296,11.365263157894736,1,0.05
1755688770.3278189,10.053,-0.404,3.255,6.040930440751656,72.07242283189296,11.365263157894736,1,0.05
1755688770.3549812,10.053,-0.404,3.255,6.040930440751656,72.07242283189296,11.365263157894736,1,0.05
1755688770.381477,10.053,-0.404,3.255,6.040930440751656,72.07242283189296,11.365263157894736,1,0.05
1755688770.408728,6.407,-0.183,4.895,6.049418543339517,52.6311484054092,11.548020050125313,1,0.05
1755688770.4355419,5.156,0.37,3.852,6.054909210921332,53.30745888781008,11.610726817042606,1,0.05
1755688770.462366,11.269,1.617,1.789,6.081069104606525,81.06931413190475,11.917142857142858,1,0.05
1755688770.4888527,9.898,-0.324,-1.687,6.101174269351762,99.6673803596983,11.985864661654135,1,0.05
1755688770.515452,9.898,-0.324,-1.687,6.101174269351762,99.6673803596983,11.985864661654135,1,0.05
1755688770.5423765,9.488,0.017,-0.492,6.119590086353824,92.96840772012237,12.00641604010025,1,0.05
1755688770.5694427,9.488,0.017,-0.492,6.119590086353824,92.96840772012237,12.00641604010025,1,0.05
1755688770.5961041,9.488,0.017,-0.492,6.119590086353824,92.96840772012237,12.00641604010025,1,0.05
1755688770.6227577,8.799,0.176,-3.225,6.135384162992567,110.12513874935298,12.040952380952382,1,0.05
1755688770.6497588,8.639,0.377,-3.595,6.150570675148771,112.57463208473729,12.048972431077694,1,0.05
1755688770.6770098,8.639,0.377,-3.595,6.150570675148771,112.57463208473729,12.048972431077694,1,0.05
1755688770.7037227,6.407,0.024,-6.318,6.158907675270023,134.5990728041626,12.160852130325816,1,0.05
1755688770.7306294,6.407,0.024,-6.318,6.158907675270023,134.5990728041626,12.160852130325816,1,0.05
1755688770.7575223,-4.148,-1.295,0.33,6.162398762860125,85.65720733091203,12.689924812030076,1,0.05
1755688770.7846282,-4.148,-1.295,0.33,6.162398762860125,85.65720733091203,12.689924812030076,1,0.05
1755688770.8119826,6.648,0.106,4.911,6.171357085155582,53.54951562821927,13.231077694235585,1,0.05
1755688770.8387725,6.648,0.106,4.911,6.171357085155582,53.54951562821927,13.231077694235585,1,0.05
1755688770.8652756,6.648,0.106,4.911,6.171357085155582,53.54951562821927,13.231077694235585,1,0.05
1755688770.8921099,6.648,0.106,4.911,6.171357085155582,53.54951562821927,13.231077694235585,1,0.05
1755688770.9187849,10.682,-0.911,2.958,6.194425807328715,74.57513468617385,13.43328320802005,1,0.05
1755688770.945399,8.219,-0.115,4.676,6.208042443878746,60.365751811677136,13.55674185463659,1,0.05
1755688770.9721968,3.804,0.07,7.259,6.210955403559102,27.660285026636537,13.778045112781953,1,0.05
1755688770.999175,3.804,0.07,7.259,6.210955403559102,27.660285026636537,13.778045112781953,1,0.05
1755688771.0258458,4.507,1.271,4.645,6.215042208022404,45.2321020917091,13.81328320802005,1,0.05
1755688771.0524569,4.507,1.271,4.645,6.215042208022404,45.2321020917091,13.81328320802005,1,0.05
1755688771.0790367,9.13,0.978,2.88,6.231784808343433,72.58600709645026,14.045012531328322,1,0.05
1755688771.1060693,9.13,0.978,2.88,6.231784808343433,72.58600709645026,14.045012531328322,1,0.05
1755688771.1327488,9.883,0.473,-0.069,6.251345944674634,90.39955729490825,14.082756892230579,1,0.05
1755688771.159021,9.883,0.473,-0.069,6.251345944674634,90.39955729490825,14.082756892230579,1,0.05
1755688771.185867,9.717,-0.144,-0.604,6.270197472368793,93.55648847677048,14.09107769423559,1,0.05
1755688771.2126434,9.717,-0.144,-0.604,6.270197472368793,93.55648847677048,14.09107769423559,1,0.05
1755688771.2396576,8.918,0.2,-2.355,6.286032385575181,104.78901395303807,14.131127819548874,1,0.05
1755688771.2662215,8.918,0.2,-2.355,6.286032385575181,104.78901395303807,14.131127819548874,1,0.05
1755688771.2933066,6.81,0.856,-4.817,6.295247683967645,125.06192840901151,14.236791979949876,1,0.05
1755688771.3206105,6.81,0.856,-4.817,6.295247683967645,125.06192840901151,14.236791979949876,1,0.05
1755688771.3472378,19.198,3.504,19.477,6.368010004114315,45.056063574524465,14.857744360902258,1,0.05
1755688771.3743973,19.198,3.504,19.477,6.368010004114315,45.056063574524465,14.857744360902258,1,0.05
1755688771.4010713,8.57,0.147,4.933,6.382410489971638,60.07837052456827,15.39047619047619,1,0.05
1755688771.4279718,8.57,0.147,4.933,6.382410489971638,60.07837052456827,15.39047619047619,1,0.05
1755688771.4546158,9.156,-0.56,2.253,6.398808053262733,76.20077622873679,15.419849624060152,1,0.05
1755688771.4814317,9.156,-0.56,2.253,6.398808053262733,76.20077622873679,15.419849624060152,1,0.05
1755688771.5083435,4.088,-0.096,5.867,6.4020718414041555,34.87536669133068,15.673884711779447,1,0.05
1755688771.5352907,4.088,-0.096,5.867,6.4020718414041555,34.87536669133068,15.673884711779447,1,0.05
1755688771.5628953,19.198,13.364,-19.454,6.4736335911526535,129.74933473317688,16.431278195488723,1,0.05
1755688771.5902836,19.198,13.364,-19.454,6.4736335911526535,129.74933473317688,16.431278195488723,1,0.05
1755688771.6187384,10.763,1.367,-0.799,6.495963153759418,94.21189815068718,16.85408521303258,1,0.05
1755688771.6455102,10.763,1.367,-0.799,6.495963153759418,94.21189815068718,16.85408521303258,1,0.05
1755688771.672611,8.727,0.344,-1.571,6.510602016518903,100.1971114609244,16.95614035087719,1,0.05
1755688771.6996567,8.727,0.344,-1.571,6.510602016518903,100.1971114609244,16.95614035087719,1,0.05
1755688771.7265787,6.305,0.115,-4.425,6.518229911563415,125.05761688066325,17.077543859649122,1,0.05
1755688771.7539341,6.305,0.115,-4.425,6.518229911563415,125.05761688066325,17.077543859649122,1,0.05
1755688771.7812984,19.198,4.614,19.477,6.5885301236315215,45.39101906935852,17.72380952380952,1,0.05
1755688771.8088052,19.198,4.614,19.477,6.5885301236315215,45.39101906935852,17.72380952380952,1,0.05
1755688771.8358746,7.411,0.168,3.134,6.598942073734245,67.08251125873781,18.314636591478695,1,0.05
1755688771.8630035,7.411,0.168,3.134,6.598942073734245,67.08251125873781,18.314636591478695,1,0.05
1755688771.8904626,0.032,1.699,9.345,6.598942267704727,10.306095288341131,18.684511278195483,1,0.05
1755688771.917768,0.032,1.699,9.345,6.598942267704727,10.306095288341131,18.684511278195483,1,0.05
1755688771.9444766,2.791,-2.115,3.362,6.600417657618342,46.16717678111605,18.82280701754386,1,0.05
1755688771.9715097,2.791,-2.115,3.362,6.600417657618342,46.16717678111605,18.82280701754386,1,0.05
1755688771.998319,8.77,0.899,-5.261,6.614967536201519,120.82701179838253,19.122506265664157,1,0.05
1755688772.025137,8.77,0.899,-5.261,6.614967536201519,120.82701179838253,19.122506265664157,1,0.05
1755688772.0525532,7.895,0.168,1.105,6.626735475896106,82.03430503911295,19.166365914786965,1,0.05
1755688772.0797617,7.895,0.168,1.105,6.626735475896106,82.03430503911295,19.166365914786965,1,0.05
1755688772.1078615,-19.864,-19.641,-2.253,6.700751398723877,94.61106042301401,20.55779448621554,1,0.05
1755688772.135441,-19.864,-19.641,-2.253,6.700751398723877,94.61106042301401,20.55779448621554,1,0.05
1755688772.1627138,8.753,0.449,2.932,6.715028431064161,71.50331312991841,21.992230576441102,1,0.05
1755688772.19029,8.753,0.449,2.932,6.715028431064161,71.50331312991841,21.992230576441102,1,0.05
1755688772.2174165,4.865,-0.043,4.287,6.719432817768179,48.614859548837536,22.187117794486216,1,0.05
1755688772.245174,4.865,-0.043,4.287,6.719432817768179,48.614859548837536,22.187117794486216,1,0.05
1755688772.272592,-17.64,-8.882,-15.343,6.77707174172592,127.84233773446768,23.315187969924814,1,0.05
1755688772.3001907,-17.64,-8.882,-15.343,6.77707174172592,127.84233773446768,23.315187969924814,1,0.05
1755688772.3276186,9.876,1.464,-0.815,6.795037883080565,94.66677894498076,24.69443609022557,1,0.05
1755688772.3548787,9.876,1.464,-0.815,6.795037883080565,94.66677894498076,24.69443609022557,1,0.05
1755688772.382547,6.116,-0.255,-2.533,6.801915426738266,112.47977500847087,24.88290726817043,1,0.05
1755688772.4099307,6.116,-0.255,-2.533,6.801915426738266,112.47977500847087,24.88290726817043,1,0.05
1755688772.4378731,7.802,0.659,1.884,6.813092651835875,76.47069748474628,24.967418546365916,1,0.05
1755688772.4655948,6.577,-0.05,5.451,6.821024395572853,50.34896507738481,25.028822055137844,1,0.05
1755688772.4931018,6.577,-0.05,5.451,6.821024395572853,50.34896507738481,25.028822055137844,1,0.05
1755688772.521007,5.039,0.144,1.373,6.82567598172518,74.76428239620587,25.105914786967418,1,0.05
1755688772.5487888,5.039,0.144,1.373,6.82567598172518,74.76428239620587,25.105914786967418,1,0.05
1755688772.5763476,12.523,1.154,-2.355,6.854335593622477,100.60640287184293,25.481052631578947,1,0.05
1755688772.6046572,12.523,1.154,-2.355,6.854335593622477,100.60640287184293,25.481052631578947,1,0.05
1755688772.632533,12.523,1.154,-2.355,6.854335593622477,100.60640287184293,25.481052631578947,1,0.05
1755688772.659915,10.248,0.459,7.33,6.873461296173857,54.45248035605874,25.595087719298242,1,0.05
1755688772.6876774,10.248,0.459,7.33,6.873461296173857,54.45248035605874,25.595087719298242,1,0.05
1755688772.7151978,10.842,0.176,1.715,6.894805479489613,81.0125279016809,25.62486215538847,1,0.05
1755688772.742577,8.405,0.007,9.545,6.907601078703084,41.36604986335076,25.747017543859638,1,0.05
1755688772.7696884,8.405,0.007,9.545,6.907601078703084,41.36604986335076,25.747017543859638,1,0.05
1755688772.7970212,8.405,0.007,9.545,6.907601078703084,41.36604986335076,25.747017543859638,1,0.05
1755688772.824357,7.94,-0.327,2.813,6.919000047875415,70.50695104246422,25.77032581453634,1,0.05
1755688772.8516436,14.08,-0.219,5.491,6.954723406613667,68.69726846807879,26.07809523809523,1,0.05
1755688772.879798,14.08,-0.219,5.491,6.954723406613667,68.69726846807879,26.07809523809523,1,0.05
1755688772.9080856,4.879,-0.947,2.702,6.959000593835296,61.46902392694049,26.53929824561403,1,0.05
1755688772.9360943,4.879,-0.947,2.702,6.959000593835296,61.46902392694049,26.53929824561403,1,0.05
1755688772.9640956,8.412,-0.889,0.133,6.971699478964939,89.09920202206958,26.7163909774436,1,0.05
1755688772.991833,8.412,-0.889,0.133,6.971699478964939,89.09920202206958,26.7163909774436,1,0.05
1755688773.0203876,10.193,-1.557,2.937,6.9903030511917,74.10119033276108,26.805664160400998,1,0.05
1755688773.048396,10.193,-1.557,2.937,6.9903030511917,74.10119033276108,26.805664160400998,1,0.05
1755688773.0758965,5.842,-1.61,0.772,6.996403301518574,82.73979090354754,27.023759398496235,1,0.05
1755688773.1038918,5.842,-1.61,0.772,6.996403301518574,82.73979090354754,27.023759398496235,1,0.05
1755688773.1316648,10.184,-0.591,2.174,7.014908680624432,77.96946937403312,27.241403508771928,1,0.05
1755688773.1597335,10.184,-0.591,2.174,7.014908680624432,77.96946937403312,27.241403508771928,1,0.05
1755688773.1875434,9.023,-0.843,3.022,7.029401121005971,71.55802275083863,27.299598997493735,1,0.05
1755688773.214936,9.023,-0.843,3.022,7.029401121005971,71.55802275083863,27.299598997493735,1,0.05
1755688773.2425747,9.304,-1.259,5.501,7.044777580591171,59.6334890498048,27.313684210526315,1,0.05
1755688773.2705548,9.304,-1.259,5.501,7.044777580591171,59.6334890498048,27.313684210526315,1,0.05
1755688773.2993057,10.277,-1.576,8.433,7.0634929732038385,50.95488917738264,27.36245614035088,1,0.05
1755688773.3273742,10.277,-1.576,8.433,7.0634929732038385,50.95488917738264,27.36245614035088,1,0.05
1755688773.3555572,9.345,-0.012,4.546,7.078930395547056,64.05879506099711,27.409172932330833,1,0.05
1755688773.3833613,8.491,0.86,3.384,7.091649896004455,68.37112762021945,27.451979949874687,1,0.05
1755688773.4111965,8.491,0.86,3.384,7.091649896004455,68.37112762021945,27.451979949874687,1,0.05
1755688773.4391136,8.491,0.86,3.384,7.091649896004455,68.37112762021945,27.451979949874687,1,0.05
1755688773.466978,7.104,2.346,-0.853,7.100539788459748,96.50459920199009,27.52150375939849,1,0.05
1755688773.4959302,7.368,-0.606,0.442,7.110090284061096,86.57851501267865,27.53473684210526,1,0.05
1755688773.5242198,7.368,-0.606,0.442,7.110090284061096,86.57851501267865,27.53473684210526,1,0.05
1755688773.5530124,11.378,1.182,1.019,7.132813684479639,84.90956162513072,27.735739348370934,1,0.05
1755688773.5811512,11.378,1.182,1.019,7.132813684479639,84.90956162513072,27.735739348370934,1,0.05
1755688773.6090844,11.304,1.783,1.138,7.155171702866396,84.32101245336916,27.739448621553883,1,0.05
1755688773.6373913,11.304,1.783,1.138,7.155171702866396,84.32101245336916,27.739448621553883,1,0.05
1755688773.6655378,12.435,2.156,-0.765,7.182134443186093,93.46877166145624,27.7961403508772,1,0.05
1755688773.6934643,12.435,2.156,-0.765,7.182134443186093,93.46877166145624,27.7961403508772,1,0.05
1755688773.7215827,5.666,2.338,1.019,7.187719669686626,80.56105489212976,28.135438596491234,1,0.05
1755688773.7502375,5.666,2.338,1.019,7.187719669686626,80.56105489212976,28.135438596491234,1,0.05
1755688773.7778099,11.817,2.545,1.706,7.2119635171359535,81.96677092615535,28.443759398496244,1,0.05
1755688773.805656,11.817,2.545,1.706,7.2119635171359535,81.96677092615535,28.443759398496244,1,0.05
1755688773.8336465,13.581,0.31,-1.614,7.243861309757387,96.77563760439494,28.532180451127825,1,0.05
1755688773.8616207,13.581,0.31,-1.614,7.243861309757387,96.77563760439494,28.532180451127825,1,0.05
1755688773.8895488,12.296,-1.127,-0.368,7.269904106313921,91.7071098579327,28.596591478696745,1,0.05
1755688773.9172971,12.296,-1.127,-0.368,7.269904106313921,91.7071098579327,28.596591478696745,1,0.05
1755688773.945422,7.392,-2.105,7.685,7.279293226337293,45.00326512265362,28.842406015037596,1,0.05
1755688773.9734545,7.392,-2.105,7.685,7.279293226337293,45.00326512265362,28.842406015037596,1,0.05
1755688774.0020697,12.475,0.562,0.584,7.3059683778059155,87.3224452691596,29.097192982456143,1,0.05
1755688774.0299003,2.254,-4.816,0.599,7.306837566793175,83.5727390412907,29.609523809523814,1,0.05
1755688774.05777,2.254,-4.816,0.599,7.306837566793175,83.5727390412907,29.609523809523814,1,0.05
1755688774.0863497,1.055,-8.267,0.454,7.307027972438589,86.88187463588352,29.669624060150376,1,0.05
1755688774.1142392,1.055,-8.267,0.454,7.307027972438589,86.88187463588352,29.669624060150376,1,0.05
1755688774.1421604,-3.451,-10.427,2.35,7.30906500809098,77.92296552970551,29.895488721804515,1,0.05
1755688774.169764,-3.451,-10.427,2.35,7.30906500809098,77.92296552970551,29.895488721804515,1,0.05
1755688774.198651,-4.636,-12.701,2.861,7.3127397418819715,78.05232191229072,29.95488721804512,1,0.05
1755688774.2267876,-4.636,-12.701,2.861,7.3127397418819715,78.05232191229072,29.95488721804512,1,0.05
1755688774.2556546,-0.004,-4.688,2.44,7.312739744616924,62.50403136380942,30.18706766917293,1,0.05
1755688774.2835329,-0.004,-4.688,2.44,7.312739744616924,62.50403136380942,30.18706766917293,1,0.05
1755688774.3124392,8.153,1.005,1.312,7.3240931926758,80.92572813186207,30.595939849624063,1,0.05
1755688774.3411243,8.153,1.005,1.312,7.3240931926758,80.92572813186207,30.595939849624063,1,0.05
1755688774.3693426,10.565,1.048,0.779,7.343118489953706,85.80350415465757,30.716842105263154,1,0.05
1755688774.3978374,10.565,1.048,0.779,7.343118489953706,85.80350415465757,30.716842105263154,1,0.05
1755688774.425661,8.153,2.552,-0.96,7.354425040749276,96.41152913331837,30.837744360902256,1,0.05
1755688774.4532712,8.153,2.552,-0.96,7.354425040749276,96.41152913331837,30.837744360902256,1,0.05
1755688774.4811149,13.248,5.652,-0.022,7.3841953820304616,90.08751518850053,31.093132832080205,1,0.05
1755688774.5091012,13.248,5.652,-0.022,7.3841953820304616,90.08751518850053,31.093132832080205,1,0.05
1755688774.5374954,14.042,5.72,-4.705,7.417498624873482,107.23956430717651,31.13293233082706,1,0.05
1755688774.5657234,14.042,5.72,-4.705,7.417498624873482,107.23956430717651,31.13293233082706,1,0.05
1755688774.5934215,12.659,7.053,-0.908,7.444455087681032,93.58539090612611,31.202255639097732,1,0.05
1755688774.6220176,12.659,7.053,-0.908,7.444455087681032,93.58539090612611,31.202255639097732,1,0.05
1755688774.6505063,10.904,7.486,0.66,7.464392446308005,87.14329668745809,31.290225563909768,1,0.05
1755688774.6780696,10.904,7.486,0.66,7.464392446308005,87.14329668745809,31.290225563909768,1,0.05
1755688774.7059698,11.533,6.789,-0.521,7.486633409951365,92.22942344907831,31.321754385964915,1,0.05
1755688774.733901,11.533,6.789,-0.521,7.486633409951365,92.22942344907831,31.321754385964915,1,0.05
1755688774.7626333,9.719,6.873,0.002,7.502388100964919,89.99037341702949,31.412681704260653,1,0.05
1755688774.7921262,5.094,0.692,2.566,7.506710285304742,63.4741397344706,31.644511278195488,1,0.05
1755688774.8205967,5.094,0.692,2.566,7.506710285304742,63.4741397344706,31.644511278195488,1,0.05
1755688774.8496776,3.878,-4.616,3.07,7.509214107847772,63.0137579426992,31.705463659147863,1,0.05
1755688774.8777862,3.878,-4.616,3.07,7.509214107847772,63.0137579426992,31.705463659147863,1,0.05
1755688774.9056754,-0.192,-7.728,-0.585,7.509220244306329,94.32763282052161,31.90947368421053,1,0.05
1755688774.933868,-0.192,-7.728,-0.585,7.509220244306329,94.32763282052161,31.90947368421053,1,0.05
1755688774.9617348,0.783,-11.617,-2.315,7.509322299648618,101.24522920252755,31.958345864661652,1,0.05
1755688774.9899757,0.783,-11.617,-2.315,7.509322299648618,101.24522920252755,31.958345864661652,1,0.05
1755688775.018153,0.783,-11.617,-2.315,7.509322299648618,101.24522920252755,31.958345864661652,1,0.05
1755688775.0469177,1.274,-7.217,2.635,7.509592471632532,70.22390278818953,31.982957393483705,1,0.05
1755688775.0750937,6.519,-3.4,3.224,7.516662989152833,66.32264534941226,32.24586466165414,1,0.05
1755688775.1031394,6.519,-3.4,3.224,7.516662989152833,66.32264534941226,32.24586466165414,1,0.05
1755688775.1312616,9.912,1.848,2.345,7.53298359566115,76.907228852296,32.41593984962406,1,0.05
1755688775.161155,9.912,1.848,2.345,7.53298359566115,76.907228852296,32.41593984962406,1,0.05
1755688775.1903007,9.912,1.848,2.345,7.53298359566115,76.907228852296,32.41593984962406,1,0.05
1755688775.2185862,12.106,1.875,0.565,7.557263389779398,87.35932327006824,32.52591478696742,1,0.05
1755688775.2469904,12.077,7.207,-2.73,7.581349798353852,100.98525635914763,32.52736842105263,1,0.05
1755688775.2753165,13.193,7.608,-2.421,7.609993619412569,99.03261725865163,32.58330827067669,1,0.05
1755688775.3032258,13.193,7.608,-2.421,7.609993619412569,99.03261725865163,32.58330827067669,1,0.05
1755688775.3315938,13.927,9.127,2.329,7.641786846674016,82.03772041565254,32.620100250626564,1,0.05
1755688775.3600569,13.927,9.127,2.329,7.641786846674016,82.03772041565254,32.620100250626564,1,0.05
1755688775.3882563,13.927,9.127,2.329,7.641786846674016,82.03772041565254,32.620100250626564,1,0.05
1755688775.417161,13.112,8.565,2.592,7.6698577281459395,80.60267340283606,32.66095238095238,1,0.05
1755688775.445436,10.091,7.125,1.359,7.686435342374253,83.72186728330163,32.81238095238095,1,0.05
1755688775.4740033,10.091,7.125,1.359,7.686435342374253,83.72186728330163,32.81238095238095,1,0.05
1755688775.502117,4.576,3.006,-0.898,7.6898399016169385,99.31458945036074,33.08882205513784,1,0.05
1755688775.5299644,4.576,3.006,-0.898,7.6898399016169385,99.31458945036074,33.08882205513784,1,0.05
1755688775.5583904,2.388,-3.847,0.691,7.690766806534963,81.32308975726045,33.19849624060149,1,0.05
1755688775.5871766,2.388,-3.847,0.691,7.690766806534963,81.32308975726045,33.19849624060149,1,0.05
1755688775.6157207,-0.149,-6.561,-1.756,7.690770414919432,104.97989507056126,33.325664160401,1,0.05
1755688775.6445227,-0.149,-6.561,-1.756,7.690770414919432,104.97989507056126,33.325664160401,1,0.05
1755688775.6728766,-2.784,-10.953,-0.159,7.692030045118129,90.80605296316787,33.45774436090225,1,0.05
1755688775.7015717,-2.784,-10.953,-0.159,7.692030045118129,90.80605296316787,33.45774436090225,1,0.05
1755688775.729998,-2.898,-10.461,1.815,7.6933947139738,80.50771861888539,33.46345864661654,1,0.05
1755688775.7579849,-2.898,-10.461,1.815,7.6933947139738,80.50771861888539,33.46345864661654,1,0.05
1755688775.7867372,-0.159,-8.075,-2.944,7.693398821554749,110.02737404316854,33.60075187969925,1,0.05
1755688775.8146985,6.848,-1.247,2.074,7.701014425872737,73.40792598199214,33.95197994987469,1,0.05
1755688775.8427782,6.848,-1.247,2.074,7.701014425872737,73.40792598199214,33.95197994987469,1,0.05
1755688775.8714383,8.823,2.595,0.682,7.713639640921787,85.75887945782502,34.05097744360903,1,0.05
1755688775.8997204,8.823,2.595,0.682,7.713639640921787,85.75887945782502,34.05097744360903,1,0.05
1755688775.927751,10.243,3.811,2.851,7.730623139986841,75.37932354945953,34.12215538847118,1,0.05
1755688775.9563162,10.243,3.811,2.851,7.730623139986841,75.37932354945953,34.12215538847118,1,0.05
1755688775.9851344,11.264,5.902,2.656,7.7511114282082145,78.20272458032503,34.17333333333334,1,0.05
1755688776.0135534,11.264,5.902,2.656,7.7511114282082145,78.20272458032503,34.17333333333334,1,0.05
1755688776.0416312,14.514,6.861,2.248,7.785009239718345,82.02882810802414,34.33624060150376,1,0.05
1755688776.0697463,14.514,6.861,2.248,7.785009239718345,82.02882810802414,34.33624060150376,1,0.05
1755688776.0992744,19.198,7.757,1.418,7.8439643594613555,86.08233574234022,34.571027568922304,1,0.05
1755688776.1277664,19.198,7.757,1.418,7.8439643594613555,86.08233574234022,34.571027568922304,1,0.05
1755688776.156491,14.459,7.498,6.625,7.877209758220229,67.86578817194926,34.808571428571426,1,0.05
1755688776.184782,14.459,7.498,6.625,7.877209758220229,67.86578817194926,34.808571428571426,1,0.05
1755688776.2137997,9.085,5.304,-2.909,7.890296359294751,105.45728527772353,35.077944862155384,1,0.05
1755688776.2421048,9.085,5.304,-2.909,7.890296359294751,105.45728527772353,35.077944862155384,1,0.05
1755688776.2707603,4.932,0.894,2.823,7.894148985007821,60.611503647427206,35.28611528822054,1,0.05
1755688776.299737,4.932,0.894,2.823,7.894148985007821,60.611503647427206,35.28611528822054,1,0.05
1755688776.3282652,2.619,-5.631,2.272,7.895235025000838,69.90514414187228,35.402055137844606,1,0.05
1755688776.356688,2.619,-5.631,2.272,7.895235025000838,69.90514414187228,35.402055137844606,1,0.05
1755688776.3852935,1.083,-5.984,2.134,7.895420718524124,70.66316772000015,35.47904761904762,1,0.05
1755688776.4138885,1.083,-5.984,2.134,7.895420718524124,70.66316772000015,35.47904761904762,1,0.05
1755688776.4420846,2.175,-11.403,-1.412,7.896169633752812,96.93505985903339,35.53378446115288,1,0.05
1755688776.4711683,3.038,-6.474,0.622,7.897630562073665,85.02913351348582,35.577042606516294,1,0.05
1755688776.5002086,3.038,-6.474,0.622,7.897630562073665,85.02913351348582,35.577042606516294,1,0.05
1755688776.5292966,6.803,2.069,1.559,7.904952278002695,77.63367976560666,35.76576441102757,1,0.05
1755688776.5577226,6.803,2.069,1.559,7.904952278002695,77.63367976560666,35.76576441102757,1,0.05
1755688776.5861738,7.077,2.54,2.856,7.912868022405024,69.20136120849973,35.77949874686716,1,0.05
1755688776.61504,7.077,2.54,2.856,7.912868022405024,69.20136120849973,35.77949874686716,1,0.05
1755688776.6450782,11.784,3.506,-0.126,7.934773908562234,90.58717445994898,36.015438596491215,1,0.05
1755688776.6733985,11.784,3.506,-0.126,7.934773908562234,90.58717445994898,36.015438596491215,1,0.05
1755688776.7019289,11.784,3.506,-0.126,7.934773908562234,90.58717445994898,36.015438596491215,1,0.05
1755688776.7305067,11.784,3.506,-0.126,7.934773908562234,90.58717445994898,36.015438596491215,1,0.05
1755688776.7599792,15.496,6.01,3.008,7.972512277820587,79.74166735567334,36.201503759398484,1,0.05
1755688776.7895303,15.348,2.833,-1.274,8.009360447626264,94.66662803667332,36.2089223057644,1,0.05
1755688776.817902,11.531,3.163,5.187,8.030084973554139,66.54848820238347,36.400250626566404,1,0.05
1755688776.8473344,7.604,0.899,0.877,8.039080589377122,83.46602420273867,36.59709273182957,1,0.05
1755688776.8761442,7.604,0.899,0.877,8.039080589377122,83.46602420273867,36.59709273182957,1,0.05
1755688776.9052927,6.724,-0.418,-1.15,8.046107578357375,99.68700071697295,36.64120300751879,1,0.05
1755688776.933832,6.724,-0.418,-1.15,8.046107578357375,99.68700071697295,36.64120300751879,1,0.05
1755688776.9625785,11.648,-0.308,-2.051,8.067157921009109,99.9829521762508,36.88802005012531,1,0.05
1755688776.9923313,11.648,-0.308,-2.051,8.067157921009109,99.9829521762508,36.88802005012531,1,0.05
1755688777.0214152,5.95,-0.026,1.825,8.072641647719784,72.94818850060831,37.17363408521303,1,0.05
1755688777.05084,5.95,-0.026,1.825,8.072641647719784,72.94818850060831,37.17363408521303,1,0.05
1755688777.07927,8.968,0.997,1.321,8.085085388077234,81.67108935989707,37.32491228070175,1,0.05
1755688777.1082165,8.968,0.997,1.321,8.085085388077234,81.67108935989707,37.32491228070175,1,0.05
1755688777.1370542,8.968,0.997,1.321,8.085085388077234,81.67108935989707,37.32491228070175,1,0.05
1755688777.166594,10.861,2.646,2.464,8.103302353670385,77.56964089042734,37.41979949874687,1,0.05
1755688777.1962938,19.198,1.447,1.205,8.15995815215985,86.41856212582336,37.83769423558898,1,0.05
1755688777.2252715,19.198,1.447,1.205,8.15995815215985,86.41856212582336,37.83769423558898,1,0.05
1755688777.2539022,19.198,1.447,1.205,8.15995815215985,86.41856212582336,37.83769423558898,1,0.05
1755688777.2822769,10.782,0.245,0.311,8.177746991378493,88.34822357568386,38.25954887218045,1,0.05
1755688777.3108065,8.811,-0.084,-0.126,8.189605006195354,90.81925413509538,38.35834586466165,1,0.05
1755688777.3394458,12.339,0.553,0.687,8.212810570078917,86.81641521702493,38.53518796992481,1,0.05
1755688777.3682709,12.339,0.553,0.687,8.212810570078917,86.81641521702493,38.53518796992481,1,0.05
1755688777.396953,11.769,-0.567,2.443,8.233864880024447,78.28633689245383,38.56375939849624,1,0.05
1755688777.4255612,11.769,-0.567,2.443,8.233864880024447,78.28633689245383,38.56375939849624,1,0.05
1755688777.4546938,7.669,-0.702,0.993,8.242788652209882,82.6526372488016,38.769273182957384,1,0.05
1755688777.4843988,7.669,-0.702,0.993,8.242788652209882,82.6526372488016,38.769273182957384,1,0.05
1755688777.5140662,9.872,-0.089,1.782,8.25755446394391,79.76810233335412,38.87969924812029,1,0.05
1755688777.543374,9.774,-0.199,1.497,8.272002986882923,81.29394196410328,38.88461152882204,1,0.05
1755688777.5721881,9.774,-0.199,1.497,8.272002986882923,81.29394196410328,38.88461152882204,1,0.05
1755688777.6018252,9.774,-0.199,1.497,8.272002986882923,81.29394196410328,38.88461152882204,1,0.05
1755688777.6311736,9.659,-0.24,0.934,8.286089193189994,84.4785137493511,38.89037593984961,1,0.05
1755688777.6600788,9.695,-0.118,1.121,8.30025642254503,83.40485670571806,38.89218045112781,1,0.05
1755688777.6888852,9.695,-0.118,1.121,8.30025642254503,83.40485670571806,38.89218045112781,1,0.05
1755688777.7177312,9.748,-0.209,1.1,8.314554434243606,83.5632366786498,38.89483709273181,1,0.05
1755688777.746648,9.748,-0.209,1.1,8.314554434243606,83.5632366786498,38.89483709273181,1,0.05
1755688777.7753441,9.698,-0.195,1.053,8.328681975558919,83.8043953802944,38.89734335839598,1,0.05
1755688777.8042734,9.698,-0.195,1.053,8.328681975558919,83.8043953802944,38.89734335839598,1,0.05
1755688777.83391,9.798,-0.185,0.96,8.343077697109143,84.40505866118869,38.9023558897243,1,0.05
1755688777.862754,9.798,-0.185,0.96,8.343077697109143,84.40505866118869,38.9023558897243,1,0.05
1755688777.8911543,9.607,-0.257,1.067,8.356894254596021,83.6646746337887,38.9119298245614,1,0.05
1755688777.9200244,9.607,-0.257,1.067,8.356894254596021,83.6646746337887,38.9119298245614,1,0.05
1755688777.9486392,9.607,-0.257,1.067,8.356894254596021,83.6646746337887,38.9119298245614,1,0.05
1755688777.9772613,9.829,-0.195,1.045,8.37133231242196,83.9324078456101,38.92305764411027,1,0.05
1755688778.0058823,9.75,-0.271,1.067,8.38551494751515,83.75702976040816,38.92701754385965,1,0.05
1755688778.0343232,9.75,-0.271,1.067,8.38551494751515,83.75702976040816,38.92701754385965,1,0.05
1755688778.0636742,9.721,-0.156,0.936,8.399589605302154,84.50085459791971,38.92847117794486,1,0.05
1755688778.0932703,9.774,-0.166,1.031,8.413794223030417,83.97934513714769,38.93112781954887,1,0.05
1755688778.122691,9.774,-0.166,1.031,8.413794223030417,83.97934513714769,38.93112781954887,1,0.05
1755688778.151562,9.721,-0.195,0.969,8.42782165390322,84.30863543340014,38.93378446115288,1,0.05
1755688778.1801562,9.721,-0.195,0.969,8.42782165390322,84.30863543340014,38.93378446115288,1,0.05
1755688778.2096457,9.831,-0.192,0.996,8.442144231917624,84.21607429426945,38.93929824561403,1,0.05
1755688778.239095,9.831,-0.192,0.996,8.442144231917624,84.21607429426945,38.93929824561403,1,0.05
1755688778.2680318,9.616,-0.185,1.038,8.4558244939509,83.84018842321713,38.95007518796992,1,0.05
1755688778.29706,9.616,-0.185,1.038,8.4558244939509,83.84018842321713,38.95007518796992,1,0.05
1755688778.325785,9.795,-0.187,1.057,8.469995450707161,83.84203367083482,38.95904761904762,1,0.05
1755688778.355405,9.795,-0.187,1.057,8.469995450707161,83.84203367083482,38.95904761904762,1,0.05
1755688778.3845422,9.371,-0.202,1.045,8.48294536334521,83.63845868551671,38.980300751879696,1,0.05
1755688778.413315,9.721,-0.238,0.922,8.496858633636316,84.58353384768458,38.99784461152882,1,0.05
1755688778.4424963,9.721,-0.238,0.922,8.496858633636316,84.58353384768458,38.99784461152882,1,0.05
1755688778.4711657,9.757,-0.082,0.962,8.510852146671331,84.36926907736951,38.99964912280702,1,0.05
1755688778.5001528,9.757,-0.082,0.962,8.510852146671331,84.36926907736951,38.99964912280702,1,0.05
1755688778.528595,9.821,-0.303,1.074,8.52500641436709,83.76202124497811,39.00285714285714,1,0.05
1755688778.5569396,9.821,-0.303,1.074,8.52500641436709,83.76202124497811,39.00285714285714,1,0.05
1755688778.585842,9.91,-0.211,0.905,8.53939427682081,84.78328957961207,39.007318295739346,1,0.05
1755688778.6148617,9.91,-0.211,0.905,8.53939427682081,84.78328957961207,39.007318295739346,1,0.05
1755688778.643437,9.681,-0.159,0.948,8.553102303696594,84.40796179849723,39.0187969924812,1,0.05
1755688778.6722217,9.681,-0.159,0.948,8.553102303696594,84.40796179849723,39.0187969924812,1,0.05
1755688778.7013776,9.745,-0.199,1.098,8.566969801510917,83.57274454134937,39.022005012531324,1,0.05
1755688778.7298033,9.745,-0.199,1.098,8.566969801510917,83.57274454134937,39.022005012531324,1,0.05
1755688778.7591803,9.662,-0.195,1.022,8.580580236207805,83.96319939509931,39.02616541353383,1,0.05
1755688778.7875736,9.652,-0.19,0.967,8.594141024558533,84.27992857773057,39.02666666666667,1,0.1
1755688778.816465,9.652,-0.19,0.967,8.594141024558533,84.27992857773057,39.02666666666667,1,0.1
1755688778.8453274,9.743,-0.231,1.093,8.607936748867292,83.60092706282433,39.03122807017544,1,0.1
1755688778.8739686,9.743,-0.231,1.093,8.607936748867292,83.60092706282433,39.03122807017544,1,0.1
1755688778.9028752,9.6,-0.259,0.976,8.621309359517266,84.19697219469569,39.03839598997494,1,0.1
1755688778.9324663,9.6,-0.259,0.976,8.621309359517266,84.19697219469569,39.03839598997494,1,0.1
1755688778.961676,9.922,-0.151,0.984,8.635571219236166,84.33694524799685,39.054536340852124,1,0.1
1755688778.990222,9.922,-0.151,0.984,8.635571219236166,84.33694524799685,39.054536340852124,1,0.1
1755688779.019037,9.585,-0.161,1.026,8.648859511230368,83.89105045511583,39.07142857142857,1,0.1
1755688779.0480459,9.585,-0.161,1.026,8.648859511230368,83.89105045511583,39.07142857142857,1,0.1
1755688779.0768716,9.786,-0.127,1.022,8.662689266907822,84.03843169231499,39.08150375939849,1,0.1
1755688779.1055253,9.786,-0.127,1.022,8.662689266907822,84.03843169231499,39.08150375939849,1,0.1
1755688779.1344588,9.702,-0.267,0.984,8.676261138589595,84.21090528928673,39.08571428571428,1,0.1
1755688779.1632085,9.707,-0.156,1.114,8.689825773138377,83.45406961890393,39.0859649122807,1,0.1
1755688779.1922762,9.707,-0.156,1.114,8.689825773138377,83.45406961890393,39.0859649122807,1,0.1
1755688779.2210977,9.707,-0.156,1.114,8.689825773138377,83.45406961890393,39.0859649122807,1,0.1
1755688779.2503462,9.707,-0.156,1.114,8.689825773138377,83.45406961890393,39.0859649122807,1,0.1
1755688779.2799327,9.707,-0.156,1.114,8.689825773138377,83.45406961890393,39.0859649122807,1,0.1
1755688779.308767,9.81,-0.137,1.031,8.703657979120043,84.00099979038406,39.091127819548866,1,0.1
1755688779.3383317,9.588,-0.24,1.057,8.716850725892924,83.71095795516321,39.10225563909775,1,0.1
1755688779.3672986,9.879,-0.154,1.074,8.730834621042824,83.79617847215043,39.11684210526315,1,0.1
1755688779.396886,9.879,-0.154,1.074,8.730834621042824,83.79617847215043,39.11684210526315,1,0.1
1755688779.4255214,9.733,-0.226,1.031,8.744386851146283,83.9549226660632,39.124160401002506,1,0.1
1755688779.4542403,9.771,-0.149,1.079,8.758023892694059,83.69915346464308,39.12606516290727,1,0.1
1755688779.4832096,9.771,-0.149,1.079,8.758023892694059,83.69915346464308,39.12606516290727,1,0.1
1755688779.512223,9.719,-0.168,1.112,8.77149530624625,83.47384926457883,39.12867167919799,1,0.1
1755688779.5413148,9.719,-0.168,1.112,8.77149530624625,83.47384926457883,39.12867167919799,1,0.1
1755688779.5703063,9.719,-0.257,1.057,8.78494606187198,83.79528425078983,39.12867167919799,1,0.1
1755688779.5992322,9.931,-0.127,0.993,8.798968076570116,84.29044185340064,39.13929824561403,1,0.1
1755688779.6285768,9.931,-0.127,0.993,8.798968076570116,84.29044185340064,39.13929824561403,1,0.1
1755688779.6578913,9.662,-0.238,0.986,8.812220198253105,84.17493367321914,39.15278195488722,1,0.1
1755688779.687095,9.662,-0.238,0.986,8.812220198253105,84.17493367321914,39.15278195488722,1,0.1
1755688779.717239,9.8,-0.223,1.14,8.82583281183708,83.36650423262131,39.159699248120305,1,0.1
1755688779.7463036,9.8,-0.223,1.14,8.82583281183708,83.36650423262131,39.159699248120305,1,0.1
1755688779.7754142,9.75,-0.197,1.007,8.839286230940822,84.10447698598956,39.162205513784464,1,0.1
1755688779.8043633,9.75,-0.197,1.007,8.839286230940822,84.10447698598956,39.162205513784464,1,0.1
1755688779.833163,9.709,-0.175,1.067,8.852606552592292,83.72948441494042,39.16426065162907,1,0.1
1755688779.8626204,9.831,-0.18,1.069,8.866242957279031,83.79520480272393,39.17037593984962,1,0.1
1755688779.8916092,9.831,-0.18,1.069,8.866242957279031,83.79520480272393,39.17037593984962,1,0.1
1755688779.9205449,9.831,-0.18,1.069,8.866242957279031,83.79520480272393,39.17037593984962,1,0.1
1755688779.949531,9.547,-0.281,1.045,8.879083691462762,83.75604250798413,39.18461152882205,1,0.1
1755688779.9783611,9.557,-0.192,1.062,8.891932738302737,83.66041905316149,39.18511278195489,1,0.1
1755688780.0075724,9.557,-0.192,1.062,8.891932738302737,83.66041905316149,39.18511278195489,1,0.1
1755688780.0365474,9.664,-0.243,1.003,8.905051940471767,84.07650230804697,39.19047619047619,1,0.1
1755688780.0653274,9.664,-0.243,1.003,8.905051940471767,84.07650230804697,39.19047619047619,1,0.1
1755688780.0948408,9.652,-0.12,1.093,8.918119354578073,83.53979871089157,39.19107769423558,1,0.1
1755688780.1235025,9.652,-0.12,1.093,8.918119354578073,83.53979871089157,39.19107769423558,1,0.1
1755688780.1526818,9.829,-0.187,1.093,8.93165023525888,83.65582864308921,39.199949874686716,1,0.1
1755688780.1822283,9.829,-0.187,1.093,8.93165023525888,83.65582864308921,39.199949874686716,1,0.1
1755688780.2107646,9.583,-0.118,1.017,8.94449331418499,83.9425910674377,39.21228070175438,1,0.1
1755688780.2394693,9.583,-0.118,1.017,8.94449331418499,83.9425910674377,39.21228070175438,1,0.1
1755688780.2683988,10.007,-0.202,0.777,8.958477034072253,85.56104084389084,39.23353383458647,1,0.1
1755688780.2977536,9.564,-0.204,0.946,8.971231019765348,84.35237696839692,39.25573934837093,1,0.1
1755688780.3264904,9.564,-0.204,0.946,8.971231019765348,84.35237696839692,39.25573934837093,1,0.1
1755688780.3553627,9.798,-0.199,1.186,8.984597265320243,83.09961283709923,39.267468671679204,1,0.1
1755688780.383979,9.798,-0.199,1.186,8.984597265320243,83.09961283709923,39.267468671679204,1,0.1
1755688780.4126902,9.781,-0.223,0.991,8.997897416757985,84.2160912674528,39.268320802005015,1,0.1
1755688780.4420018,9.781,-0.223,0.991,8.997897416757985,84.2160912674528,39.268320802005015,1,0.1
1755688780.4710531,9.452,-0.156,1.1,9.010300143863134,83.36281766879212,39.28481203007519,1,0.1
1755688780.5000355,9.452,-0.156,1.1,9.010300143863134,83.36281766879212,39.28481203007519,1,0.1
1755688780.5288005,9.676,-0.115,1.102,9.023279399558676,83.50303250933051,39.29604010025063,1,0.1
1755688780.5584853,9.676,-0.115,1.102,9.023279399558676,83.50303250933051,39.29604010025063,1,0.1
1755688780.5882463,9.676,-0.115,1.102,9.023279399558676,83.50303250933051,39.29604010025063,1,0.1
1755688780.616939,9.676,-0.115,1.102,9.023279399558676,83.50303250933051,39.29604010025063,1,0.1
1755688780.645571,9.6,-0.214,1.031,9.036037357298829,83.87167771181433,39.29984962406015,1,0.1
1755688780.6741345,9.771,-0.086,1.081,9.049234897216449,83.68708317871011,39.30842105263158,1,0.1
1755688780.7031827,9.607,-0.257,1.259,9.06197485912977,82.5365594921386,39.31664160401002,1,0.1
1755688780.7320306,9.76,-0.216,1.015,9.07510508740808,84.06425927419592,39.32431077694235,1,0.1
1755688780.760869,9.76,-0.216,1.015,9.07510508740808,84.06425927419592,39.32431077694235,1,0.1
1755688780.790089,9.802,-0.221,0.962,9.088329349088314,84.39617261201228,39.32641604010025,1,0.1
1755688780.8240814,9.802,-0.221,0.962,9.088329349088314,84.39617261201228,39.32641604010025,1,0.1
1755688780.8532517,9.802,-0.221,0.962,9.088329349088314,84.39617261201228,39.32641604010025,1,0.1
1755688780.8826363,9.821,-0.262,1.143,9.101585601421325,83.36393533534748,39.327368421052626,1,0.1
1755688780.9115605,9.779,-0.185,1.015,9.114709680648089,84.07532219564092,39.32947368421053,1,0.1
1755688780.9439898,9.779,-0.185,1.015,9.114709680648089,84.07532219564092,39.32947368421053,1,0.1
1755688780.9875426,9.597,-0.211,1.05,9.127331953259946,83.75764649026613,39.338596491228074,1,0.1
1755688781.0164404,9.914,-0.161,0.981,9.140782629239139,84.34966263896112,39.354486215538856,1,0.1
1755688781.0454187,9.914,-0.161,0.981,9.140782629239139,84.34966263896112,39.354486215538856,1,0.1
1755688781.0746164,9.805,-0.195,1.031,9.153920042118568,83.9985600516125,39.35994987468671,1,0.1
1755688781.1045907,9.805,-0.195,1.031,9.153920042118568,83.9985600516125,39.35994987468671,1,0.1
1755688781.1340766,9.683,-0.171,0.988,9.166714425572556,84.17491852554986,39.36606516290726,1,0.1
1755688781.1636636,9.683,-0.171,0.988,9.166714425572556,84.17491852554986,39.36606516290726,1,0.1
1755688781.192987,9.819,-0.211,0.996,9.179852137289576,84.2092846261441,39.37288220551378,1,0.1
1755688781.221765,9.819,-0.211,0.996,9.179852137289576,84.2092846261441,39.37288220551378,1,0.1
1755688781.2507873,9.626,-0.228,1.019,9.19246076698182,83.95890539336153,39.38255639097744,1,0.1
1755688781.2795055,9.833,-0.166,1.072,9.205599093758103,83.77902893941966,39.39293233082707,1,0.1
1755688781.308152,9.833,-0.166,1.072,9.205599093758103,83.77902893941966,39.39293233082707,1,0.1
1755688781.3370414,9.833,-0.166,1.072,9.205599093758103,83.77902893941966,39.39293233082707,1,0.1
1755688781.3660378,9.729,-0.216,1.017,9.218442833662309,84.03384236304686,39.39814536340852,1,0.1
1755688781.395501,9.698,-0.173,1.005,9.231187154830087,84.08451362156198,39.3996992481203,1,0.1
1755688781.4251804,9.698,-0.173,1.005,9.231187154830087,84.08451362156198,39.3996992481203,1,0.1
1755688781.4544604,9.745,-0.204,0.986,9.244037475583923,84.22372680453847,39.40205513784461,1,0.1
1755688781.483745,9.745,-0.204,0.986,9.244037475583923,84.22372680453847,39.40205513784461,1,0.1
1755688781.5132163,9.669,-0.185,0.938,9.256670716434716,84.46002191459831,39.405864661654135,1,0.1
1755688781.542642,9.669,-0.185,0.938,9.256670716434716,84.46002191459831,39.405864661654135,1,0.1
1755688781.5723915,9.802,-0.166,1.012,9.26963595630918,84.10626514048175,39.412531328320796,1,0.1
1755688781.6019285,9.662,-0.276,0.955,9.282216134765447,84.35745972759372,39.41954887218044,1,0.1
1755688781.6307514,9.662,-0.276,0.955,9.282216134765447,84.35745972759372,39.41954887218044,1,0.1
