timestamp,ax,ay,az,rms,tilt_now,jerk,tilt_crosses,freq
1755690658.8897717,0.597,0.37,-9.7,0.029849999999999998,175.85854313890493,0.029924812030075187,1,0.45
1755690658.9164855,0.661,0.353,-9.735,0.04453453715937778,175.59832882072192,0.0331328320802005,1,0.05
1755690658.9431462,0.747,0.245,-9.84,0.058123553745448156,175.4321457776822,0.03744360902255639,1,0.05
1755690658.970447,0.602,0.298,-9.659,0.06545500362844692,176.0218587443311,0.04471177944862156,1,0.05
1755690658.9973755,0.671,0.286,-9.624,0.07355243027935923,175.6658050824054,0.04817042606516291,1,0.05
1755690659.0244248,0.526,0.332,-9.8,0.0781130590874535,176.36826837617167,0.05543859649122808,1,0.05
1755690659.0516791,0.607,0.324,-9.733,0.08380198386673195,175.95629379475434,0.059498746867167926,1,0.05
1755690659.0783617,0.483,0.308,-9.648,0.0872123557760023,176.60207366891325,0.06571428571428573,1,0.05
1755690659.1057446,0.58,0.337,-9.636,0.09190753505561988,176.0178550172244,0.0705764411027569,1,0.05
1755690659.1323676,0.568,0.353,-9.769,0.09619540009792568,176.08382220772003,0.07117794486215541,1,0.05
1755690659.1592853,0.452,0.31,-9.69,0.09881454852399013,176.76265337378567,0.07699248120300753,1,0.05
1755690659.1849663,0.621,0.356,-9.676,0.10357807441732059,175.7691150978505,0.08546365914786967,1,0.05
1755690659.2106283,0.542,0.305,-9.724,0.1070645949882593,176.34048429426045,0.08942355889724313,1,0.05
1755690659.23826,0.571,0.322,-9.705,0.11080582114672496,176.1357677514611,0.09087719298245615,1,0.05
1755690659.2649872,0.571,0.322,-9.705,0.11080582114672496,176.1357677514611,0.09087719298245615,1,0.05
1755690659.2917147,0.659,0.334,-9.721,0.1156011786272095,175.65380635790808,0.09528822055137844,1,0.05
1755690659.3196795,0.659,0.334,-9.721,0.1156011786272095,175.65380635790808,0.09528822055137844,1,0.05
1755690659.3449252,0.425,0.312,-9.683,0.11753805766644267,176.8833914828373,0.10701754385964911,1,0.05
1755690659.371612,0.425,0.312,-9.683,0.11753805766644267,176.8833914828373,0.10701754385964911,1,0.05
1755690659.3985305,0.635,0.452,-9.709,0.12175080081872151,175.4101210201638,0.1175438596491228,1,0.05
1755690659.4256098,0.635,0.452,-9.709,0.12175080081872151,175.4101210201638,0.1175438596491228,1,0.05
1755690659.4525483,0.635,0.452,-9.709,0.12175080081872151,175.4101210201638,0.1175438596491228,1,0.05
1755690659.479872,0.833,0.711,-10.541,0.12867781471566883,174.06843568118833,0.12746867167919798,1,0.05
1755690659.5079527,-0.013,0.118,-10.498,0.1286794564023333,179.3521129803818,0.16987468671679198,1,0.05
1755690659.535728,-0.013,0.118,-10.498,0.1286794564023333,179.3521129803818,0.16987468671679198,1,0.05
1755690659.5623467,-0.075,0.087,-9.474,0.12873408639517353,179.30536571779558,0.17298245614035088,1,0.05
1755690659.5892916,-0.075,0.087,-9.474,0.12873408639517353,179.30536571779558,0.17298245614035088,1,0.05
1755690659.6160762,-0.075,0.087,-9.474,0.12873408639517353,179.30536571779558,0.17298245614035088,1,0.05
1755690659.6438107,0.459,-0.055,-13.148,0.1307637851241696,177.98631085592817,0.19974937343358393,1,0.05
1755690659.6713102,-0.574,0.925,-11.197,0.133876276837982,174.44689605142756,0.2515288220551378,1,0.05
1755690659.6990895,-0.574,0.925,-11.197,0.133876276837982,174.44689605142756,0.2515288220551378,1,0.05
1755690659.7261145,-0.576,1.769,-11.729,0.13693902840315467,170.9870288606489,0.25162907268170426,1,0.05
1755690659.753481,-0.576,1.769,-11.729,0.13693902840315467,170.9870288606489,0.25162907268170426,1,0.05
1755690659.781387,-2.946,1.334,-10.358,0.20112082811086474,162.66068614463927,0.3704260651629072,1,0.45
1755690659.8093238,-2.946,1.334,-10.358,0.20112082811086474,162.66068614463927,0.3704260651629072,1,0.45
1755690659.836437,-2.684,0.904,-9.108,0.24178343098731975,162.72682021359367,0.38355889724310777,1,0.5
1755690659.8644881,-2.684,0.904,-9.108,0.24178343098731975,162.72682021359367,0.38355889724310777,1,0.5
1755690659.8913095,-1.129,0.791,-8.445,0.24828578291960257,170.72907570293117,0.4615037593984962,1,0.5
1755690659.9191313,-1.129,0.791,-8.445,0.24828578291960257,170.72907570293117,0.4615037593984962,1,0.5
1755690659.946412,-0.614,1.091,-8.5,0.25017657764067364,171.62151646590794,0.4873182957393484,1,0.5
1755690659.9741468,-0.614,1.091,-8.5,0.25017657764067364,171.62151646590794,0.4873182957393484,1,0.5
1755690660.0013525,-0.304,1.391,-8.889,0.2506379061514838,170.89971919658925,0.5028571428571428,1,0.5
1755690660.0287511,-1.539,0.548,-9.163,0.262184405524051,169.89106087264872,0.5647619047619047,1,0.5
1755690660.0569835,-1.539,0.548,-9.163,0.262184405524051,169.89106087264872,0.5647619047619047,1,0.5
1755690660.083823,-1.322,0.224,-9.486,0.2703883734556647,171.95455955879248,0.5756390977443608,1,0.5
1755690660.112205,-1.322,0.224,-9.486,0.2703883734556647,171.95455955879248,0.5756390977443608,1,0.5
1755690660.1396,-1.286,-0.173,-9.728,0.2779287003891466,172.4023611938685,0.5774436090225563,1,0.45
1755690660.1670992,-1.286,-0.173,-9.728,0.2779287003891466,172.4023611938685,0.5774436090225563,1,0.45
1755690660.1942072,-1.379,-0.908,-9.258,0.2863537410267238,169.88805696128068,0.5821052631578947,1,0.45
1755690660.2216465,-1.379,-0.908,-9.258,0.2863537410267238,169.88805696128068,0.5821052631578947,1,0.45
1755690660.248911,-1.379,-0.908,-9.258,0.2863537410267238,169.88805696128068,0.5821052631578947,1,0.45
1755690660.2761717,-0.907,-0.675,-9.379,0.2899225543140788,173.12634782389858,0.6057644110275688,1,0.45
1755690660.3034916,-1.382,2.009,-8.364,0.2980434490137302,163.74646764169387,0.6295739348370926,1,0.45
1755690660.331123,-1.382,2.009,-8.364,0.2980434490137302,163.74646764169387,0.6295739348370926,1,0.45
1755690660.3579016,-0.855,0.216,-9.904,0.3010937727685513,174.91174427683242,0.6559899749373433,1,0.4
1755690660.3855243,-0.855,0.216,-9.904,0.3010937727685513,174.91174427683242,0.6559899749373433,1,0.4
1755690660.4126704,-0.855,0.216,-9.904,0.3010937727685513,174.91174427683242,0.6559899749373433,1,0.4
1755690660.4400253,-1.732,0.997,-9.937,0.313300207468811,168.62877550270184,0.6999498746867169,1,0.4
1755690660.4676647,-1.732,0.997,-9.937,0.313300207468811,168.62877550270184,0.6999498746867169,1,0.4
1755690660.4948053,-1.096,-0.579,-9.857,0.3180566930595865,172.8325550817793,0.731829573934837,1,0.4
1755690660.5229726,-1.756,-0.408,-9.562,0.32995287542314283,169.32304539084734,0.7649122807017542,1,0.35000000000000003
1755690660.5510287,-1.756,-0.408,-9.562,0.32995287542314283,169.32304539084734,0.7649122807017542,1,0.35000000000000003
1755690660.57816,-1.756,-0.408,-9.562,0.32995287542314283,169.32304539084734,0.7649122807017542,1,0.35000000000000003
1755690660.6053548,-0.516,0.375,-10.268,0.33096002779792005,176.44521994142454,0.8270676691729323,1,0.35000000000000003
1755690660.6335082,-0.867,0.226,-9.975,0.3337870016941942,174.86736888887725,0.8446616541353383,1,0.35000000000000003
1755690660.6619356,-0.867,0.226,-9.975,0.3337870016941942,174.86736888887725,0.8446616541353383,1,0.35000000000000003
1755690660.6897743,-1.735,0.288,-10.137,0.34487581098128645,170.15732332484126,0.8881704260651629,1,0.35000000000000003
1755690660.7181165,-1.735,0.288,-10.137,0.34487581098128645,170.15732332484126,0.8881704260651629,1,0.35000000000000003
1755690660.7454026,0.914,-0.728,-10.921,0.34789052157252,173.89285975035438,1.020952380952381,1,0.35000000000000003
1755690660.7739675,0.914,-0.728,-10.921,0.34789052157252,173.89285975035438,1.020952380952381,1,0.35000000000000003
1755690660.8013556,-1.008,0.697,-9.239,0.35152236770936784,172.44409686932195,1.1172932330827066,1,0.35000000000000003
1755690660.8290448,-1.008,0.697,-9.239,0.35152236770936784,172.44409686932195,1.1172932330827066,1,0.35000000000000003
1755690660.8563323,-1.112,0.613,-9.514,0.35589230814953,172.3980459629167,1.1225062656641605,1,0.35000000000000003
1755690660.8835187,-1.112,0.613,-9.514,0.35589230814953,172.3980459629167,1.1225062656641605,1,0.35000000000000003
1755690660.9116116,-0.674,-0.01,-9.503,0.357484300354575,175.94264694385902,1.1444611528822053,1,0.30000000000000004
1755690660.9392583,-0.674,-0.01,-9.503,0.357484300354575,175.94264694385902,1.1444611528822053,1,0.30000000000000004
1755690660.9668694,-0.888,-0.545,-10.907,0.3602310161549114,174.54329835022884,1.155187969924812,1,0.30000000000000004
1755690660.9949534,-0.888,-0.545,-10.907,0.3602310161549114,174.54329835022884,1.155187969924812,1,0.30000000000000004
1755690661.022194,-1.79,-0.356,-10.536,0.3711827514850334,170.17267751282685,1.2004010025062657,1,0.30000000000000004
1755690661.0503147,-1.79,-0.356,-10.536,0.3711827514850334,170.17267751282685,1.2004010025062657,1,0.30000000000000004
1755690661.0773375,-2.066,-0.69,-10.23,0.38528888512387693,167.98004802410716,1.214235588972431,1,0.25
1755690661.1055615,-2.066,-0.69,-10.23,0.38528888512387693,167.98004802410716,1.214235588972431,1,0.25
1755690661.1325133,-0.891,2.692,-3.182,0.38785593652798456,138.29435760535495,1.2731328320802002,1,0.25
1755690661.1602974,-0.891,2.692,-3.182,0.38785593652798456,138.29435760535495,1.2731328320802002,1,0.25
1755690661.1872528,-0.559,-0.173,-11.705,0.3888617106375993,177.1380435095373,1.2897744360902252,1,0.25
1755690661.2155,-0.559,-0.173,-11.705,0.3888617106375993,177.1380435095373,1.2897744360902252,1,0.25
1755690661.2430592,-2.655,0.125,-9.83,0.4108965715359523,164.86956057813111,1.3948370927318294,1,0.25
1755690661.2709286,-2.655,0.125,-9.83,0.4108965715359523,164.86956057813111,1.3948370927318294,1,0.25
1755690661.2983465,-2.078,-0.077,-11.496,0.42382921383500693,169.7470527870948,1.4237593984962404,1,0.25
1755690661.3261168,-2.078,-0.077,-11.496,0.42382921383500693,169.7470527870948,1.4237593984962404,1,0.25
1755690661.353282,-1.506,-0.084,-9.367,0.43046636628196633,170.8523529241887,1.4524310776942353,1,0.2
1755690661.38095,-2.512,-0.824,-10.296,0.448415713930723,165.5993166220298,1.5028571428571424,1,0.2
1755690661.4085705,-2.512,-0.824,-10.296,0.448415713930723,165.5993166220298,1.5028571428571424,1,0.2
1755690661.4360657,-2.512,-0.824,-10.296,0.448415713930723,165.5993166220298,1.5028571428571424,1,0.2
1755690661.4635975,0.168,1.002,-9.593,0.4484943840228102,173.9543910153313,1.63719298245614,1,0.2
1755690661.4916642,0.168,1.002,-9.593,0.4484943840228102,173.9543910153313,1.63719298245614,1,0.2
1755690661.5193334,-0.569,0.332,-7.913,0.4493958333140173,175.2409696981113,1.6741353383458644,1,0.2
1755690661.547598,-1.382,-0.692,-9.246,0.4546772756582409,170.5101232530567,1.7148872180451122,1,0.2
1755690661.5755475,-1.382,-0.692,-9.246,0.4546772756582409,170.5101232530567,1.7148872180451122,1,0.2
1755690661.6037714,-1.413,0.413,-10.805,0.46013351051624135,172.2415437268858,1.716441102756892,1,0.2
1755690661.6323051,-1.413,0.413,-10.805,0.46013351051624135,172.2415437268858,1.716441102756892,1,0.2
1755690661.6596198,-1.215,-0.082,-9.419,0.4641265021521611,172.6332065707106,1.7263659147869672,1,0.2
1755690661.6875625,-1.215,-0.082,-9.419,0.4641265021521611,172.6332065707106,1.7263659147869672,1,0.2
1755690661.714905,-1.236,-0.178,-9.676,0.4682228636023662,172.64625045581647,1.7274185463659149,1,0.15000000000000002
1755690661.7433197,-1.236,-0.178,-9.676,0.4682228636023662,172.64625045581647,1.7274185463659149,1,0.15000000000000002
1755690661.7707753,-1.623,-0.389,-8.892,0.47520308553291196,169.36965889587583,1.7468170426065162,1,0.15000000000000002
1755690661.7988904,-1.623,-0.389,-8.892,0.47520308553291196,169.36965889587583,1.7468170426065162,1,0.15000000000000002
1755690661.8260093,-1.339,-0.31,-9.6,0.47989610854850656,171.85242157513392,1.761052631578947,1,0.15000000000000002
1755690661.853683,-1.339,-0.31,-9.6,0.47989610854850656,171.85242157513392,1.761052631578947,1,0.15000000000000002
1755690661.8808105,-0.905,-0.084,-9.7,0.4820247270628344,174.64701490327408,1.782807017543859,1,0.15000000000000002
1755690661.908675,-0.905,-0.084,-9.7,0.4820247270628344,174.64701490327408,1.782807017543859,1,0.15000000000000002
1755690661.9360902,-1.503,-0.512,-9.83,0.4878476811464824,170.82441679931932,1.8127819548872177,1,0.15000000000000002
1755690661.96407,-1.503,-0.512,-9.83,0.4878476811464824,170.82441679931932,1.8127819548872177,1,0.15000000000000002
1755690661.9912245,-1.265,-0.533,-9.726,0.491930810683779,171.96647939905122,1.8247117794486212,1,0.15000000000000002
1755690662.019009,-1.265,-0.533,-9.726,0.491930810683779,171.96647939905122,1.8247117794486212,1,0.15000000000000002
1755690662.04613,-1.737,-0.699,-9.681,0.4995386321396975,169.05376311641209,1.8483709273182956,1,0.15000000000000002
1755690662.0740395,-1.737,-0.699,-9.681,0.4995386321396975,169.05376311641209,1.8483709273182956,1,0.15000000000000002
1755690662.1013,-1.344,-0.639,-9.876,0.5040383765151221,171.430812820796,1.8680701754385962,1,0.15000000000000002
1755690662.1289756,-1.344,-0.639,-9.876,0.5040383765151221,171.430812820796,1.8680701754385962,1,0.15000000000000002
1755690662.1561272,-1.537,-0.764,-9.179,0.5098633223717901,169.40839912596758,1.8777443609022555,1,0.1
1755690662.1837618,-1.537,-0.764,-9.179,0.5098633223717901,169.40839912596758,1.8777443609022555,1,0.1
1755690662.210847,-1.32,-0.901,-9.804,0.5141173090842206,170.7414377872217,1.8886215538847115,1,0.1
1755690662.2385561,-1.32,-0.901,-9.804,0.5141173090842206,170.7414377872217,1.8886215538847115,1,0.1
1755690662.2656283,-0.943,-0.545,-9.985,0.5162748589656483,173.77479847877146,1.9075187969924812,1,0.1
1755690662.2944367,-0.943,-0.545,-9.985,0.5162748589656483,173.77479847877146,1.9075187969924812,1,0.1
1755690662.322248,-2.321,-1.026,-10.413,0.5291571907288042,166.30392664825993,1.976591478696742,1,0.1
1755690662.349984,-2.321,-1.026,-10.413,0.5291571907288042,166.30392664825993,1.976591478696742,1,0.1
1755690662.3775153,-1.615,-0.332,-9.819,0.535283004587293,170.46801800983633,2.011979949874687,1,0.1
1755690662.405039,-1.615,-0.332,-9.819,0.535283004587293,170.46801800983633,2.011979949874687,1,0.1
1755690662.4321868,-1.747,-0.514,-9.31,0.5423632707881315,168.93262306017573,2.01859649122807,1,0.1
1755690662.459885,-1.747,-0.514,-9.31,0.5423632707881315,168.93262306017573,2.01859649122807,1,0.1
1755690662.487161,-1.625,-0.122,-9.282,0.5484154264788692,170.04247352034358,2.024711779448621,1,0.05
1755690662.5153198,-1.961,0.226,-9.315,0.5571115530125004,168.0352228565317,2.0415538847117793,1,0.05
1755690662.5430028,-1.961,0.226,-9.315,0.5571115530125004,168.0352228565317,2.0415538847117793,1,0.05
1755690662.5703826,-1.961,0.226,-9.315,0.5571115530125004,168.0352228565317,2.0415538847117793,1,0.05
1755690662.598126,-2.171,-0.283,-9.538,0.5675882178128788,167.0721844558817,2.052080200501253,1,0.05
1755690662.6257138,-2.321,-0.18,-9.317,0.579330637460164,165.97116935368493,2.059598997493734,1,0.05
1755690662.6533077,-2.321,-0.18,-9.317,0.579330637460164,165.97116935368493,2.059598997493734,1,0.05
1755690662.6808078,-2.212,-0.007,-9.146,0.589793478685548,166.4037829103646,2.065062656641604,1,0.05
1755690662.708763,-2.212,-0.007,-9.146,0.589793478685548,166.4037829103646,2.065062656641604,1,0.05
1755690662.7364805,-2.238,0.204,-9.557,0.6003148819577939,166.7675896632181,2.0663659147869673,1,0.05
1755690662.7643359,-2.238,0.204,-9.557,0.6003148819577939,166.7675896632181,2.0663659147869673,1,0.05
1755690662.791675,-2.064,-0.147,-9.888,0.6091208398175192,168.18047282362673,2.0750877192982458,1,0.05
1755690662.8196642,-2.064,-0.147,-9.888,0.6091208398175192,168.18047282362673,2.0750877192982458,1,0.05
1755690662.8469315,-1.902,-0.072,-9.419,0.6164999655312238,168.5756927787228,2.083208020050125,1,0.05
1755690662.8749166,-1.902,-0.072,-9.419,0.6164999655312238,168.5756927787228,2.083208020050125,1,0.05
1755690662.9027376,-2.157,-0.44,-9.41,0.6258624689178925,166.83276128945502,2.095989974937343,1,0.05
1755690662.9308264,-2.157,-0.44,-9.41,0.6258624689178925,166.83276128945502,2.095989974937343,1,0.05
1755690662.958653,-1.508,-0.533,-9.163,0.6303879678420267,170.09864557642365,2.1285213032581454,1,0.05
1755690662.9864476,-1.508,-0.533,-9.163,0.6303879678420267,170.09864557642365,2.1285213032581454,1,0.05
1755690663.0137234,-2.419,-0.682,-9.802,0.6418861990259644,165.61877938377793,2.174185463659148,1,0.05
1755690663.0421407,-2.419,-0.682,-9.802,0.6418861990259644,165.61877938377793,2.174185463659148,1,0.05
1755690663.0701423,-2.443,-0.752,-10.501,0.6534053221393288,166.3193001525649,2.175388471177945,1,0.05
1755690663.0987504,-2.443,-0.752,-10.501,0.6534053221393288,166.3193001525649,2.175388471177945,1,0.05
1755690663.1260767,-2.574,-1.499,-9.548,0.6659596121387543,162.6737497315061,2.1819548872180454,1,0.05
1755690663.1538506,-2.574,-1.499,-9.548,0.6659596121387543,162.6737497315061,2.1819548872180454,1,0.05
1755690663.181745,-1.399,-1.199,-10.712,0.6696231832157546,170.24043770197775,2.2408521303258144,1,0.05
1755690663.209944,-1.399,-1.199,-10.712,0.6696231832157546,170.24043770197775,2.2408521303258144,1,0.05
1755690663.2380438,-1.737,-0.891,-8.794,0.6752319083100264,167.4838037267377,2.257794486215539,1,0.05
1755690663.2664022,-1.737,-0.891,-8.794,0.6752319083100264,167.4838037267377,2.257794486215539,1,0.05
1755690663.294583,-1.84,-1.089,-9.41,0.6814705642945996,167.19877251685023,2.2629573934837093,1,0.05
1755690663.3226826,-1.84,-1.089,-9.41,0.6814705642945996,167.19877251685023,2.2629573934837093,1,0.05
1755690663.3509805,-1.794,-1.238,-9.548,0.6873486888035795,167.14041294994902,2.2652631578947364,1,0.05
1755690663.3789449,-1.794,-1.238,-9.548,0.6873486888035795,167.14041294994902,2.2652631578947364,1,0.05
1755690663.4060752,-1.735,-0.949,-9.476,0.6928014019183276,168.21192768390281,2.2682205513784455,1,0.05
1755690663.4333217,-1.391,-0.663,-9.59,0.6962836957734972,170.87171608827708,2.285463659147869,1,0.05
1755690663.460767,-1.391,-0.663,-9.59,0.6962836957734972,170.87171608827708,2.285463659147869,1,0.05
1755690663.4881504,-1.89,-1.055,-9.203,0.7026672292059735,166.76477062327615,2.31047619047619,1,0.05
1755690663.5154197,-1.89,-1.055,-9.203,0.7026672292059735,166.76477062327615,2.31047619047619,1,0.05
1755690663.542616,-1.89,-1.055,-9.203,0.7026672292059735,166.76477062327615,2.31047619047619,1,0.05
1755690663.569776,-1.532,-1.11,-9.861,0.7068301033487467,169.13962674324137,2.3284210526315783,1,0.05
1755690663.5975263,-1.327,-0.779,-9.728,0.7099374039307973,171.01153673263005,2.338696741854636,1,0.05
1755690663.624958,-1.327,-0.779,-9.728,0.7099374039307973,171.01153673263005,2.338696741854636,1,0.05
1755690663.6524,-1.899,-1.144,-9.738,0.716258766089463,167.1745657450362,2.367368421052631,1,0.05
1755690663.680081,-1.899,-1.144,-9.738,0.716258766089463,167.1745657450362,2.367368421052631,1,0.05
1755690663.7071977,-1.613,-0.896,-9.398,0.7207850182266555,168.89214848397657,2.3817042606516288,1,0.05
1755690663.7349694,-1.613,-0.896,-9.398,0.7207850182266555,168.89214848397657,2.3817042606516288,1,0.05
1755690663.7628782,-1.542,-0.918,-9.59,0.7248968564561443,169.4008537499354,2.385263157894737,1,0.05
1755690663.7904038,-1.542,-0.918,-9.59,0.7248968564561443,169.4008537499354,2.385263157894737,1,0.05
1755690663.8183017,-1.468,-0.606,-9.586,0.7286034672577396,170.59295823852653,2.388972431077694,1,0.05
1755690663.8462539,-1.468,-0.606,-9.586,0.7286034672577396,170.59295823852653,2.388972431077694,1,0.05
1755690663.8738532,-1.346,-0.714,-10.125,0.7317050652414537,171.44211328612118,2.395087719298245,1,0.05
1755690663.9015613,-1.346,-0.714,-10.125,0.7317050652414537,171.44211328612118,2.395087719298245,1,0.05
1755690663.928737,-1.339,-1.06,-9.778,0.7347615973906094,170.09290178946551,2.3954385964912284,1,0.05
1755690663.9565918,-1.339,-1.06,-9.778,0.7347615973906094,170.09290178946551,2.3954385964912284,1,0.05
1755690663.9844751,-1.134,-0.992,-9.733,0.7369460597628568,171.20051426278866,2.4057142857142852,1,0.05
1755690664.012856,-1.134,-0.992,-9.733,0.7369460597628568,171.20051426278866,2.4057142857142852,1,0.05
1755690664.0408683,-0.745,0.339,-9.626,0.7378868866567558,175.13980979489577,2.4252130325814534,1,0.05
1755690664.0695224,-0.745,0.339,-9.626,0.7378868866567558,175.13980979489577,2.4252130325814534,1,0.05
1755690664.0970728,-1.043,0.586,-9.36,0.739727436289881,172.7162441000726,2.4401503759398495,1,0.05
1755690664.1249523,-1.043,0.586,-9.36,0.739727436289881,172.7162441000726,2.4401503759398495,1,0.05
1755690664.152139,-0.428,0.541,-9.46,0.7400369179980144,175.82933440494546,2.470977443609023,1,0.05
1755690664.177631,-0.428,0.541,-9.46,0.7400369179980144,175.82933440494546,2.470977443609023,1,0.05
1755690664.2030642,-1.52,0.613,-10.453,0.7439291901787428,171.08899247376084,2.5257142857142854,1,0.05
1755690664.2311492,-1.52,0.613,-10.453,0.7439291901787428,171.08899247376084,2.5257142857142854,1,0.05
1755690664.258647,0.046,0.745,-10.569,0.7439327456161612,175.96028421370045,2.6042105263157893,1,0.05
1755690664.2869122,0.046,0.745,-10.569,0.7439327456161612,175.96028421370045,2.6042105263157893,1,0.05
1755690664.3144093,-0.562,0.281,-9.681,0.7444632563128956,176.28648639263,2.63468671679198,1,0.05
1755690664.342334,-0.562,0.281,-9.681,0.7444632563128956,176.28648639263,2.63468671679198,1,0.05
1755690664.370249,-0.285,0.449,-9.83,0.7445996256378323,176.90325389352637,2.6485714285714286,1,0.05
1755690664.3986053,-0.285,0.449,-9.83,0.7445996256378323,176.90325389352637,2.6485714285714286,1,0.05
1755690664.4262009,-0.113,0.947,-9.386,0.7446210613459708,174.1980491800498,2.65719298245614,1,0.05
1755690664.4543583,-0.113,0.947,-9.386,0.7446210613459708,174.1980491800498,2.65719298245614,1,0.05
1755690664.4822721,-0.49,0.252,-9.412,0.745024009680225,176.64958155483873,2.6760902255639096,1,0.05
1755690664.5105052,-0.49,0.252,-9.412,0.745024009680225,176.64958155483873,2.6760902255639096,1,0.05
1755690664.5385835,-0.152,0.269,-9.861,0.7450627725232284,178.2053420002447,2.6930325814536342,1,0.05
1755690664.5667262,-0.729,-0.32,-9.852,0.7459538440815222,175.3799603417638,2.721954887218045,1,0.05
1755690664.5946498,-0.729,-0.32,-9.852,0.7459538440815222,175.3799603417638,2.721954887218045,1,0.05
1755690664.6224062,-0.483,-0.01,-9.783,0.7463446656873753,177.17291983903422,2.7342857142857144,1,0.05
1755690664.6506226,-0.483,-0.01,-9.783,0.7463446656873753,177.17291983903422,2.7342857142857144,1,0.05
1755690664.6783977,-0.564,-0.514,-9.676,0.7468772322142374,175.49080257716597,2.738345864661653,1,0.05
1755690664.7061157,-0.564,-0.514,-9.676,0.7468772322142374,175.49080257716597,2.738345864661653,1,0.05
1755690664.73339,-0.757,-0.062,-9.842,0.7478356921811101,175.58707083937625,2.7480200501253127,1,0.05
1755690664.7611916,-0.757,-0.062,-9.842,0.7478356921811101,175.58707083937625,2.7480200501253127,1,0.05
1755690664.7886376,-0.597,-0.017,-9.859,0.7484311892218283,176.53335239172128,2.7560401002506256,1,0.05
1755690664.8162332,-0.597,-0.017,-9.859,0.7484311892218283,176.53335239172128,2.7560401002506256,1,0.05
1755690664.8439772,-0.748,-0.269,-9.89,0.7493650679074919,175.4047841184695,2.7636090225563907,1,0.05
1755690664.8710654,-0.748,-0.269,-9.89,0.7493650679074919,175.4047841184695,2.7636090225563907,1,0.05
1755690664.8982382,-0.638,0.176,-9.892,0.7500437420577549,176.17229263180363,2.769122807017543,1,0.05
1755690664.9263928,-0.638,0.176,-9.892,0.7500437420577549,176.17229263180363,2.769122807017543,1,0.05
1755690664.9539022,-0.707,-0.334,-9.56,0.750876313050292,175.32411758641317,2.7725814536340856,1,0.05
1755690664.9814165,-0.707,-0.334,-9.56,0.750876313050292,175.32411758641317,2.7725814536340856,1,0.05
1755690665.0093565,-0.867,-0.305,-9.69,0.7521266249774702,174.5817828303878,2.7806015037593985,1,0.05
1755690665.0368898,-0.867,-0.305,-9.69,0.7521266249774702,174.5817828303878,2.7806015037593985,1,0.05
1755690665.0642505,-0.636,-0.226,-9.814,0.752798578638403,176.0656612836288,2.792180451127819,1,0.05
1755690665.0921504,-0.636,-0.226,-9.814,0.752798578638403,176.0656612836288,2.792180451127819,1,0.05
1755690665.1206086,-0.733,-0.267,-9.814,0.7536902032665677,175.45511938084158,2.7970426065162908,1,0.05
1755690665.148986,-0.733,-0.267,-9.814,0.7536902032665677,175.45511938084158,2.7970426065162908,1,0.05
1755690665.176528,-0.702,-0.204,-9.612,0.7545070791583072,175.65074429793722,2.7985964912280705,1,0.05
1755690665.2039154,-0.702,-0.204,-9.612,0.7545070791583072,175.65074429793722,2.7985964912280705,1,0.05
1755690665.23115,-0.636,-0.142,-9.743,0.7551769147027735,176.17347776339042,2.8019047619047615,1,0.05
1755690665.2589524,-0.636,-0.142,-9.743,0.7551769147027735,176.17347776339042,2.8019047619047615,1,0.05
1755690665.2865734,-0.862,-0.168,-9.697,0.7564058318786284,174.82506735067983,2.813233082706766,1,0.05
1755690665.3148503,-0.862,-0.168,-9.697,0.7564058318786284,174.82506735067983,2.813233082706766,1,0.05
1755690665.342685,-0.626,-0.175,-9.657,0.7570531503798131,176.14929984118174,2.8250626566416037,1,0.05
1755690665.3702364,-0.626,-0.175,-9.657,0.7570531503798131,176.14929984118174,2.8250626566416037,1,0.05
1755690665.39765,-0.752,-0.185,-9.735,0.757986300997584,175.4516843488046,2.8313784461152878,1,0.05
1755690665.4251149,-0.752,-0.185,-9.735,0.757986300997584,175.4516843488046,2.8313784461152878,1,0.05
1755690665.4528692,-0.748,-0.106,-9.709,0.7589084216820894,175.55068578602643,2.8315789473684196,1,0.05
1755690665.4802463,-0.748,-0.106,-9.709,0.7589084216820894,175.55068578602643,2.8315789473684196,1,0.05
1755690665.5080364,-0.822,-0.264,-9.802,0.7600205276832989,174.96641417509412,2.8352882205513774,1,0.05
1755690665.5360422,-0.822,-0.264,-9.802,0.7600205276832989,174.96641417509412,2.8352882205513774,1,0.05
1755690665.5639622,-0.841,-0.175,-9.664,0.7611828985204541,174.92043726047083,2.836240601503759,1,0.05
1755690665.5912793,-0.614,-0.07,-9.652,0.7618017425813621,176.3365903089073,2.8476190476190473,1,0.05
1755690665.6190338,-0.614,-0.07,-9.652,0.7618017425813621,176.3365903089073,2.8476190476190473,1,0.05
1755690665.6461892,-0.781,-0.315,-9.728,0.7628019385790783,175.05236346065482,2.8559899749373425,1,0.05
1755690665.6736457,-0.781,-0.315,-9.728,0.7628019385790783,175.05236346065482,2.8559899749373425,1,0.05
1755690665.7009785,-0.781,-0.315,-9.728,0.7628019385790783,175.05236346065482,2.8559899749373425,1,0.05
1755690665.7280433,-0.781,-0.315,-9.728,0.7628019385790783,175.05236346065482,2.8559899749373425,1,0.05
1755690665.7552207,-0.738,-0.183,-9.724,0.7636939226548815,175.52895767651793,2.8581453634085205,1,0.05
1755690665.7824903,-0.717,-0.211,-9.674,0.7645349109098943,175.5821696137887,2.8591979949874684,1,0.05
1755690665.8097942,-0.826,-0.125,-9.657,0.7656496065433587,175.05578384352933,2.864661654135338,1,0.05
1755690665.8371906,-0.826,-0.125,-9.657,0.7656496065433587,175.05578384352933,2.864661654135338,1,0.05
1755690665.8644564,-0.717,-0.132,-9.745,0.7664884490323386,175.72152051704438,2.8701253132832076,1,0.05
1755690665.892247,-0.717,-0.132,-9.745,0.7664884490323386,175.72152051704438,2.8701253132832076,1,0.05
1755690665.920177,-0.76,-0.183,-9.75,0.7674298290397631,175.41602498244546,2.872280701754385,1,0.05
1755690665.948123,-0.76,-0.183,-9.75,0.7674298290397631,175.41602498244546,2.872280701754385,1,0.05
1755690665.9756439,-0.748,-0.101,-9.617,0.768340616198311,175.51235316114008,2.872882205513784,1,0.05
1755690666.0031154,-0.748,-0.101,-9.617,0.768340616198311,175.51235316114008,2.872882205513784,1,0.05
1755690666.0306723,-0.698,-0.173,-9.83,0.7691328315057159,175.81594593663993,2.8753884711779443,1,0.05
1755690666.0584898,-0.698,-0.173,-9.83,0.7691328315057159,175.81594593663993,2.8753884711779443,1,0.05
1755690666.0860734,-0.857,-0.262,-9.621,0.7703255383277904,174.678500342439,2.8833583959899745,1,0.05
1755690666.113611,-0.857,-0.262,-9.621,0.7703255383277904,174.678500342439,2.8833583959899745,1,0.05
1755690666.14194,-0.564,-0.108,-9.79,0.7708415368932839,176.6430753523636,2.898045112781954,1,0.05
1755690666.1705494,-0.564,-0.108,-9.79,0.7708415368932839,176.6430753523636,2.898045112781954,1,0.05
1755690666.198634,-0.748,-0.25,-9.602,0.771748297698155,175.30447965409834,2.907268170426065,1,0.05
1755690666.2264655,-0.748,-0.25,-9.602,0.771748297698155,175.30447965409834,2.907268170426065,1,0.05
1755690666.2535508,-0.693,-0.089,-9.738,0.7725257649425034,175.89611837257246,2.9100250626566413,1,0.05
1755690666.2807202,-0.693,-0.089,-9.738,0.7725257649425034,175.89611837257246,2.9100250626566413,1,0.05
1755690666.307892,-0.652,-0.142,-9.702,0.7732133065978625,176.06550763401762,2.912080200501253,1,0.05
1755690666.3357267,-0.652,-0.142,-9.702,0.7732133065978625,176.06550763401762,2.912080200501253,1,0.05
1755690666.3633323,-0.85,-0.199,-9.595,0.7743804410624019,174.8013588438604,2.9220050125313284,1,0.05
1755690666.3912616,-0.85,-0.199,-9.595,0.7743804410624019,174.8013588438604,2.9220050125313284,1,0.05
1755690666.4186237,-0.612,-0.135,-9.74,0.7749847917862647,176.31842207681333,2.9339348370927314,1,0.05
1755690666.4464376,-0.612,-0.135,-9.74,0.7749847917862647,176.31842207681333,2.9339348370927314,1,0.05
1755690666.4744918,-0.714,-0.221,-9.655,0.7758066237794055,175.57340376874512,2.9390476190476185,1,0.05
1755690666.5034084,-0.714,-0.221,-9.655,0.7758066237794055,175.57340376874512,2.9390476190476185,1,0.05
1755690666.53129,-0.65,-0.175,-9.693,0.7764870684692695,176.0273828708602,2.942255639097744,1,0.05
1755690666.559006,-0.65,-0.175,-9.693,0.7764870684692695,176.0273828708602,2.942255639097744,1,0.05
1755690666.5864117,-0.664,-0.183,-9.693,0.7771965050744888,175.9355615135012,2.9429573934837094,1,0.05
1755690666.6140993,-0.664,-0.183,-9.693,0.7771965050744888,175.9355615135012,2.9429573934837094,1,0.05
1755690666.6413674,-0.75,-0.096,-9.783,0.7781006731137045,175.5804483360342,2.947268170426065,1,0.05
1755690666.6691995,-0.75,-0.096,-9.783,0.7781006731137045,175.5804483360342,2.947268170426065,1,0.05
1755690666.6963387,-0.64,-0.118,-9.633,0.7787584076592688,176.13507859009385,2.9527819548872176,1,0.05
1755690666.7239625,-0.64,-0.118,-9.633,0.7787584076592688,176.13507859009385,2.9527819548872176,1,0.05
1755690666.7515059,-0.729,-0.245,-9.695,0.7796109670855074,175.46443672456184,2.9572431077694232,1,0.05
1755690666.7790773,-0.733,-0.25,-9.617,0.7804719613797795,175.39588595613796,2.9574436090225564,1,0.05
1755690666.806672,-0.733,-0.25,-9.617,0.7804719613797795,175.39588595613796,2.9574436090225564,1,0.05
1755690666.8338473,-0.707,-0.091,-9.638,0.7812721068872227,175.77007067643527,2.95874686716792,1,0.05
1755690666.8615615,-0.707,-0.091,-9.638,0.7812721068872227,175.77007067643527,2.95874686716792,1,0.05
1755690666.8898828,-0.831,-0.11,-9.69,0.7823761930810523,175.05584650123566,2.9649624060150375,1,0.05
1755690666.9174075,-0.831,-0.11,-9.69,0.7823761930810523,175.05584650123566,2.9649624060150375,1,0.05
1755690666.9449813,-0.831,-0.11,-9.69,0.7823761930810523,175.05584650123566,2.9649624060150375,1,0.05
1755690666.9724126,-0.831,-0.11,-9.69,0.7823761930810523,175.05584650123566,2.9649624060150375,1,0.05
1755690667.0004182,-0.831,-0.11,-9.69,0.7823761930810523,175.05584650123566,2.9649624060150375,1,0.05
1755690667.0277627,-0.831,-0.11,-9.69,0.7823761930810523,175.05584650123566,2.9649624060150375,1,0.05
1755690667.0554204,-0.831,-0.11,-9.69,0.7823761930810523,175.05584650123566,2.9649624060150375,1,0.05
1755690667.0833008,-0.69,-0.161,-9.743,0.7831364871463977,175.84063507532392,2.9720300751879702,1,0.05
1755690667.1110373,-0.748,-0.274,-9.607,0.7840290284804511,175.25992034884982,2.974937343358396,1,0.05
1755690667.1388662,-0.698,-0.173,-9.771,0.7848054074100153,175.79077199524875,2.977443609022556,1,0.05
1755690667.166883,-0.767,-0.118,-9.852,0.7857418469192029,175.49621639034706,2.9809022556390974,1,0.05
1755690667.1948874,-0.843,-0.139,-9.648,0.7868715730664058,174.9393485338034,2.984711779448621,1,0.05
1755690667.2229986,-0.619,-0.161,-9.747,0.7874800156194441,176.24565082138736,2.9959398496240603,1,0.05
1755690667.2506478,-0.619,-0.161,-9.747,0.7874800156194441,176.24565082138736,2.9959398496240603,1,0.05
1755690667.2779305,-0.802,-0.185,-9.669,0.7885003392516708,175.13450229595415,3.005112781954887,1,0.05
1755690667.305668,-0.802,-0.185,-9.669,0.7885003392516708,175.13450229595415,3.005112781954887,1,0.05
1755690667.3331835,-0.731,-0.178,-9.724,0.7893470006910775,175.5757588531986,3.0086716791979944,1,0.05
1755690667.361084,-0.731,-0.178,-9.724,0.7893470006910775,175.5757588531986,3.0086716791979944,1,0.05
1755690667.388722,-0.733,-0.147,-9.652,0.7901973867332136,175.57100322440937,3.0087719298245603,1,0.05
1755690667.4163961,-0.733,-0.147,-9.652,0.7901973867332136,175.57100322440937,3.0087719298245603,1,0.05
1755690667.4448755,-0.857,-0.223,-9.686,0.7913583464524778,174.77628053447603,3.014987468671679,1,0.05
1755690667.4727957,-0.857,-0.223,-9.686,0.7913583464524778,174.77628053447603,3.014987468671679,1,0.05
1755690667.5010028,-0.602,-0.163,-9.747,0.791930579343922,176.33883134255157,3.0277694235588966,1,0.05
1755690667.5291035,-0.602,-0.163,-9.747,0.791930579343922,176.33883134255157,3.0277694235588966,1,0.05
1755690667.5564399,-0.686,-0.199,-9.7,0.7926730300066983,175.78850093308043,3.031979949874686,1,0.05
1755690667.5843492,-0.686,-0.199,-9.7,0.7926730300066983,175.78850093308043,3.031979949874686,1,0.05
1755690667.6122475,-0.679,-0.089,-9.719,0.7933997321653191,175.96955775649633,3.032330827067668,1,0.05
1755690667.640244,-0.679,-0.089,-9.719,0.7933997321653191,175.96955775649633,3.032330827067668,1,0.05
1755690667.6679332,-0.659,-0.156,-9.645,0.7940836464126434,175.98363377312052,3.0333333333333328,1,0.05
1755690667.695225,-0.659,-0.156,-9.645,0.7940836464126434,175.98363377312052,3.0333333333333328,1,0.05
1755690667.7224827,-0.826,-0.238,-9.705,0.7951569200478608,174.9383287954481,3.041704260651629,1,0.05
1755690667.7503648,-0.826,-0.238,-9.705,0.7951569200478608,174.9383287954481,3.041704260651629,1,0.05
1755690667.7777653,-0.595,-0.082,-9.683,0.7957132586554029,176.4505651933812,3.0532832080200496,1,0.05
1755690667.8058004,-0.776,-0.18,-9.747,0.7966586659291418,175.32771502732203,3.06235588972431,1,0.05
1755690667.833743,-0.776,-0.18,-9.747,0.7966586659291418,175.32771502732203,3.06235588972431,1,0.05
1755690667.8610802,-0.736,-0.135,-9.702,0.7975081629676276,175.58972343391335,3.064360902255639,1,0.05
1755690667.8884594,-0.736,-0.135,-9.702,0.7975081629676276,175.58972343391335,3.064360902255639,1,0.05
1755690667.916554,-0.709,-0.156,-9.726,0.7982956673438732,175.73129549435328,3.065714285714286,1,0.05
1755690667.9450374,-0.709,-0.156,-9.726,0.7982956673438732,175.73129549435328,3.065714285714286,1,0.05
1755690667.972572,-0.802,-0.156,-9.626,0.799302184721148,175.1485031982498,3.0703759398496238,1,0.05
1755690668.0001287,-0.802,-0.156,-9.626,0.799302184721148,175.1485031982498,3.0703759398496238,1,0.05
1755690668.0275187,-0.559,-0.048,-9.74,0.79979071324941,176.7032119450301,3.082556390977443,1,0.05
1755690668.0554495,-0.559,-0.048,-9.74,0.79979071324941,176.7032119450301,3.082556390977443,1,0.05
1755690668.082795,-0.814,-0.317,-9.695,0.8008256208438888,174.85138859669198,3.0953383458646617,1,0.05
1755690668.1102736,-0.814,-0.317,-9.695,0.8008256208438888,174.85138859669198,3.0953383458646617,1,0.05
1755690668.137465,-0.743,-0.118,-9.75,0.8016868450336453,175.58778970587804,3.0988972431077695,1,0.05
1755690668.1648357,-0.743,-0.118,-9.75,0.8016868450336453,175.58778970587804,3.0988972431077695,1,0.05
1755690668.1921973,-0.752,-0.161,-9.662,0.8025681014717692,175.4491678109982,3.0993483709273186,1,0.05
1755690668.2196906,-0.752,-0.161,-9.662,0.8025681014717692,175.4491678109982,3.0993483709273186,1,0.05
1755690668.2474775,-0.752,-0.161,-9.662,0.8025681014717692,175.4491678109982,3.0993483709273186,1,0.05
1755690668.2755306,-0.802,-0.202,-9.638,0.8035692673939191,175.09539875678894,3.1018546365914785,1,0.05
1755690668.3032749,-0.559,-0.219,-9.814,0.8040552033287266,176.49931211593014,3.1140350877192984,1,0.05
1755690668.3308566,-0.559,-0.219,-9.814,0.8040552033287266,176.49931211593014,3.1140350877192984,1,0.05
1755690668.3580174,-0.872,-0.283,-9.643,0.8052364435369279,174.569135348866,3.1297243107769424,1,0.05
1755690668.385586,-0.872,-0.283,-9.643,0.8052364435369279,174.569135348866,3.1297243107769424,1,0.05
1755690668.4129703,-0.731,-0.195,-9.624,0.8060655261825802,175.50510778972458,3.1367919799498747,1,0.05
1755690668.4405022,-0.731,-0.195,-9.624,0.8060655261825802,175.50510778972458,3.1367919799498747,1,0.05
1755690668.468245,-0.707,-0.228,-9.681,0.8068402908878559,175.61210689420574,3.1379949874686717,1,0.05
1755690668.4958477,-0.707,-0.228,-9.681,0.8068402908878559,175.61210689420574,3.1379949874686717,1,0.05
1755690668.5233212,-0.893,-0.223,-9.792,0.8080747969711715,174.63012271256133,3.1473182957393484,1,0.05
1755690668.5514486,-0.893,-0.223,-9.792,0.8080747969711715,174.63012271256133,3.1473182957393484,1,0.05
1755690668.5791554,-0.643,-0.151,-9.619,0.8087141027581997,176.07192960994283,3.15984962406015,1,0.05
1755690668.6070821,-0.643,-0.151,-9.619,0.8087141027581997,176.07192960994283,3.15984962406015,1,0.05
1755690668.6343327,-0.726,-0.223,-9.826,0.8095283750431482,175.58024937399745,3.1640100250626566,1,0.05
1755690668.6624699,-0.726,-0.223,-9.826,0.8095283750431482,175.58024937399745,3.1640100250626566,1,0.05
1755690668.6902685,-0.748,-0.223,-9.728,0.8103918496628653,175.41265497719087,3.1651127819548868,1,0.05
1755690668.7178817,-0.748,-0.223,-9.728,0.8103918496628653,175.41265497719087,3.1651127819548868,1,0.05
1755690668.7456572,-0.752,-0.173,-9.702,0.8112636501162862,175.45258520727864,3.16531328320802,1,0.05
1755690668.773844,-0.752,-0.173,-9.702,0.8112636501162862,175.45258520727864,3.16531328320802,1,0.05
1755690668.8013022,-0.884,-0.13,-9.835,0.8124668300921584,174.8089408956678,3.171929824561403,1,0.05
1755690668.8290765,-0.884,-0.13,-9.835,0.8124668300921584,174.8089408956678,3.171929824561403,1,0.05
1755690668.856927,-1.058,-0.026,-9.866,0.8141871774966737,173.8773311887751,3.1806516290726816,1,0.05
1755690668.8846784,-0.96,-0.267,-9.89,0.8156008582634033,174.24674519090314,3.185563909774436,1,0.05
1755690668.9130254,-0.96,-0.267,-9.89,0.8156008582634033,174.24674519090314,3.185563909774436,1,0.05
1755690668.9405084,-0.628,-0.329,-9.412,0.8162050722704436,175.692320424872,3.202205513784461,1,0.05
1755690668.9683166,-0.628,-0.329,-9.412,0.8162050722704436,175.692320424872,3.202205513784461,1,0.05
1755690668.9964216,-0.34,-0.026,-9.524,0.8163820919152992,177.9494856285575,3.2166416040100247,1,0.05
1755690669.0247872,-0.34,-0.026,-9.524,0.8163820919152992,177.9494856285575,3.2166416040100247,1,0.05
1755690669.0519876,-0.659,-0.18,-9.386,0.8170467688572056,175.83718580778947,3.232631578947368,1,0.05
1755690669.0795426,-0.659,-0.18,-9.386,0.8170467688572056,175.83718580778947,3.232631578947368,1,0.05
1755690669.106761,-0.569,-0.11,-9.728,0.8175419408201637,176.59069489114393,3.2371428571428567,1,0.05
1755690669.1346512,-0.569,-0.11,-9.728,0.8175419408201637,176.59069489114393,3.2371428571428567,1,0.05
1755690669.1621451,-0.569,-0.11,-9.728,0.8175419408201637,176.59069489114393,3.2371428571428567,1,0.05
1755690669.189601,-0.831,-0.348,-9.707,0.8185971093889839,174.6974639109838,3.2502756892230575,1,0.05
1755690669.2179778,-0.783,-0.163,-9.821,0.8195327632254857,175.34431568467141,3.252681704260651,1,0.05
1755690669.2457602,-0.783,-0.163,-9.821,0.8195327632254857,175.34431568467141,3.252681704260651,1,0.05
1755690669.2733536,-0.779,-0.06,-9.802,0.8204578310309434,175.44264837339728,3.2528822055137843,1,0.05
1755690669.3005798,-0.779,-0.06,-9.802,0.8204578310309434,175.44264837339728,3.2528822055137843,1,0.05
1755690669.3278973,-0.833,0.072,-9.743,0.8215143181953677,175.09511899390685,3.2555889724310774,1,0.05
1755690669.355982,-0.833,0.072,-9.743,0.8215143181953677,175.09511899390685,3.2555889724310774,1,0.05
1755690669.3835995,-0.645,-0.197,-9.588,0.8221470899419399,175.9764782189016,3.26501253132832,1,0.05
1755690669.4116728,-0.645,-0.197,-9.588,0.8221470899419399,175.9764782189016,3.26501253132832,1,0.05
1755690669.4393554,-0.826,-0.223,-9.804,0.8231837750466174,175.0125621645965,3.274085213032581,1,0.05
1755690669.4668157,-0.826,-0.223,-9.804,0.8231837750466174,175.0125621645965,3.274085213032581,1,0.05
1755690669.494135,-0.8,-0.043,-9.849,0.8241550385091387,175.34958421973693,3.2753884711779446,1,0.05
1755690669.5223892,-0.8,-0.043,-9.849,0.8241550385091387,175.34958421973693,3.2753884711779446,1,0.05
1755690669.5501723,-0.826,-0.113,-9.778,0.8251892010321027,175.12662339997812,3.276691729323308,1,0.05
1755690669.5782597,-0.826,-0.113,-9.778,0.8251892010321027,175.12662339997812,3.276691729323308,1,0.05
1755690669.60588,-0.938,-0.113,-9.75,0.8265209177631259,174.46527796783948,3.2823057644110274,1,0.05
1755690669.6333609,-0.938,-0.113,-9.75,0.8265209177631259,174.46527796783948,3.2823057644110274,1,0.05
1755690669.661207,-0.724,-0.101,-9.707,0.8273132825598777,175.69332105894844,3.293032581453634,1,0.05
1755690669.6888986,-0.724,-0.101,-9.707,0.8273132825598777,175.69332105894844,3.293032581453634,1,0.05
1755690669.716231,-0.805,-0.195,-9.716,0.8282918145194965,175.12736095300187,3.297092731829574,1,0.05
1755690669.7438383,-0.805,-0.195,-9.716,0.8282918145194965,175.12736095300187,3.297092731829574,1,0.05
1755690669.7711902,-0.869,-0.264,-9.588,0.8294306676871793,174.5888442771467,3.300300751879699,1,0.05
1755690669.7990716,-0.869,-0.264,-9.588,0.8294306676871793,174.5888442771467,3.300300751879699,1,0.05
1755690669.8268793,-0.807,-0.089,-9.814,0.8304115576026143,175.27080238607877,3.303408521303258,1,0.05
1755690669.8544066,-0.807,-0.089,-9.814,0.8304115576026143,175.27080238607877,3.303408521303258,1,0.05
1755690669.881952,-0.855,-0.122,-9.833,0.8315112251196612,174.9804309925015,3.3058145363408515,1,0.05
1755690669.9100492,-0.855,-0.122,-9.833,0.8315112251196612,174.9804309925015,3.3058145363408515,1,0.05
1755690669.9375975,-0.726,-0.161,-9.659,0.8323031944550014,175.59753428644953,3.3122807017543856,1,0.05
1755690669.9651868,-0.726,-0.161,-9.659,0.8323031944550014,175.59753428644953,3.3122807017543856,1,0.05
1755690669.993291,-0.926,-0.332,-9.74,0.8335900056382634,174.23281537746095,3.3223057644110274,1,0.05
1755690670.0214484,-0.876,-0.113,-9.69,0.8347399220715396,174.79179541150094,3.3248120300751873,1,0.05
1755690670.049432,-0.876,-0.113,-9.69,0.8347399220715396,174.79179541150094,3.3248120300751873,1,0.05
1755690670.0772188,-0.607,-0.125,-9.916,0.835291482058808,176.42374021217478,3.3382957393483705,1,0.05
1755690670.1054938,-0.607,-0.125,-9.916,0.835291482058808,176.42374021217478,3.3382957393483705,1,0.05
1755690670.133101,-1.334,-0.356,-9.4,0.837950326690073,171.64406350199485,3.3747368421052633,1,0.05
1755690670.1611438,-1.334,-0.356,-9.4,0.837950326690073,171.64406350199485,3.3747368421052633,1,0.05
1755690670.189434,-0.628,-0.132,-9.84,0.8385384368053739,176.26869837288393,3.4101253132832077,1,0.05
1755690670.2178705,-0.628,-0.132,-9.84,0.8385384368053739,176.26869837288393,3.4101253132832077,1,0.05
1755690670.2457347,-0.996,-0.279,-9.667,0.8400159224681399,173.8927650406996,3.4285714285714284,1,0.05
1755690670.2744253,-0.996,-0.279,-9.667,0.8400159224681399,173.8927650406996,3.4285714285714284,1,0.05
1755690670.3022578,-0.791,-0.192,-9.541,0.8409464623268237,175.1237484742668,3.438847117794486,1,0.05
1755690670.3305922,-0.791,-0.192,-9.541,0.8409464623268237,175.1237484742668,3.438847117794486,1,0.05
1755690670.3583014,-0.829,-0.216,-9.878,0.841967371695602,175.04337721240364,3.440751879699248,1,0.05
1755690670.3863435,-0.829,-0.216,-9.878,0.841967371695602,175.04337721240364,3.440751879699248,1,0.05
1755690670.4141753,-1.019,0.707,-9.724,0.8435075325686191,172.7314639895432,3.4502756892230577,1,0.05
1755690670.4426117,-1.019,0.707,-9.724,0.8435075325686191,172.7314639895432,3.4502756892230577,1,0.05
1755690670.4707277,-1.158,-0.704,-9.821,0.8454923816924669,172.14334274786088,3.4572431077694232,1,0.05
1755690670.4998152,-1.158,-0.704,-9.821,0.8454923816924669,172.14334274786088,3.4572431077694232,1,0.05
1755690670.5277765,-1.375,-0.601,-9.619,0.8482829303952779,171.13306493685525,3.4681203007518797,1,0.05
1755690670.5555985,-1.375,-0.601,-9.619,0.8482829303952779,171.13306493685525,3.4681203007518797,1,0.05
1755690670.5835826,-1.151,-0.372,-9.724,0.850232869571625,172.90908863399068,3.479348370927318,1,0.05
1755690670.612096,-1.151,-0.372,-9.724,0.850232869571625,172.90908863399068,3.479348370927318,1,0.05
1755690670.6396937,-1.265,-0.243,-9.776,0.8525822511640739,172.49370167883055,3.4850626566416034,1,0.05
1755690670.6682463,-1.265,-0.243,-9.776,0.8525822511640739,172.49370167883055,3.4850626566416034,1,0.05
1755690670.6971178,-1.43,-0.324,-9.462,0.8555750960611231,171.19142215087862,3.4933333333333327,1,0.05
1755690670.724965,1.012,1.658,-9.341,0.8570700700642859,168.25283288076517,3.615739348370927,1,0.05
1755690670.7532732,1.012,1.658,-9.341,0.8570700700642859,168.25283288076517,3.615739348370927,1,0.05
1755690670.7809985,1.012,1.658,-9.341,0.8570700700642859,168.25283288076517,3.615739348370927,1,0.05
1755690670.8085356,1.012,1.658,-9.341,0.8570700700642859,168.25283288076517,3.615739348370927,1,0.05
1755690670.8359044,1.012,1.658,-9.341,0.8570700700642859,168.25283288076517,3.615739348370927,1,0.05
1755690670.8637798,1.012,1.658,-9.341,0.8570700700642859,168.25283288076517,3.615739348370927,1,0.05
1755690670.8915253,-1.716,-0.382,-9.676,0.8613540183919735,169.70242281963553,3.7524812030075188,1,0.05
1755690670.9193661,-1.656,-0.99,-9.146,0.8653245547192105,168.0880217972384,3.755488721804511,1,0.05
1755690670.9480767,-0.392,-0.798,-9.864,0.8655465007727777,174.8496144178179,3.8188471177944856,1,0.05
1755690670.9760225,0.349,-1.298,-9.398,0.8657223847747035,171.8607647355353,3.8559899749373425,1,0.05
1755690671.0038323,0.332,1.591,-12.599,0.8658815204749435,172.64943976349036,3.856842105263157,1,0.05
1755690671.0317435,0.332,1.591,-12.599,0.8658815204749435,172.64943976349036,3.856842105263157,1,0.05
1755690671.06037,0.123,1.238,-9.636,0.8659033606586822,172.6432902645181,3.867318295739348,1,0.05
1755690671.0886438,0.123,1.238,-9.636,0.8659033606586822,172.6432902645181,3.867318295739348,1,0.05
1755690671.1160672,2.347,-0.012,-10.997,0.8738190044282627,167.95242163298713,3.978796992481203,1,0.05
1755690671.1449459,2.347,-0.012,-10.997,0.8738190044282627,167.95242163298713,3.978796992481203,1,0.05
1755690671.1729677,5.761,-2.442,-11.679,0.9200719835969358,151.81917038242474,4.149924812030075,1,0.05
1755690671.2016158,5.761,-2.442,-11.679,0.9200719835969358,151.81917038242474,4.149924812030075,1,0.05
1755690671.2299244,6.231,-1.797,-14.022,0.9713886233120089,155.18021773015516,4.1734837092731825,1,0.05
1755690671.2584589,6.231,-1.797,-14.022,0.9713886233120089,155.18021773015516,4.1734837092731825,1,0.05
1755690671.286238,5.606,-1.478,-11.729,1.011021239885691,153.69713921213784,4.204812030075188,1,0.05
1755690671.3149626,5.606,-1.478,-11.729,1.011021239885691,153.69713921213784,4.204812030075188,1,0.05
1755690671.3430974,3.222,-2.98,-5.487,1.0237759312955155,141.34519979991188,4.324310776942355,1,0.05
1755690671.37199,5.268,-0.493,-6.532,1.0571171730229338,140.99200763096746,4.4268671679197995,1,0.05
1755690671.4007215,5.268,-0.493,-6.532,1.0571171730229338,140.99200763096746,4.4268671679197995,1,0.05
1755690671.4289384,5.036,-1.749,-1.88,1.0866922091834468,109.42518399862345,4.438496240601503,1,0.05
1755690671.457734,5.036,-1.749,-1.88,1.0866922091834468,109.42518399862345,4.438496240601503,1,0.05
1755690671.4855447,7.359,-0.351,-0.147,1.1472955852787021,91.14306281630988,4.554937343358396,1,0.05
1755690671.5138452,7.359,-0.351,-0.147,1.1472955852787021,91.14306281630988,4.554937343358396,1,0.05
1755690671.5420065,6.684,-0.509,4.182,1.1949798324658036,58.04132501312503,4.588771929824561,1,0.05
1755690671.5713964,6.684,-0.509,4.182,1.1949798324658036,58.04132501312503,4.588771929824561,1,0.05
1755690671.6000528,6.503,0.952,4.308,1.238426147374158,56.756084951473234,4.597844611528822,1,0.05
1755690671.6287372,6.503,0.952,4.308,1.238426147374158,56.756084951473234,4.597844611528822,1,0.05
1755690671.65675,7.349,-0.161,2.466,1.2917890017336422,71.45466596449187,4.640250626566416,1,0.05
1755690671.6856456,7.349,-0.161,2.466,1.2917890017336422,71.45466596449187,4.640250626566416,1,0.05
1755690671.713558,6.617,0.57,0.779,1.3334843634253835,83.31019058284222,4.676942355889724,1,0.05
1755690671.7420888,6.617,0.57,0.779,1.3334843634253835,83.31019058284222,4.676942355889724,1,0.05
1755690671.7702134,6.629,-0.281,-2.673,1.374059551111232,111.94285184381826,4.677543859649123,1,0.05
1755690671.798618,6.629,-0.281,-2.673,1.374059551111232,111.94285184381826,4.677543859649123,1,0.05
1755690671.8265252,5.981,-1.036,-6.124,1.4062256406779106,135.25343311690193,4.710025062656642,1,0.05
1755690671.8552885,5.981,-1.036,-6.124,1.4062256406779106,135.25343311690193,4.710025062656642,1,0.05
1755690671.883217,6.069,-1.375,-9.809,1.4385939159470957,147.60903259069022,4.714436090225564,1,0.05
1755690671.9115474,5.892,-1.394,-11.313,1.468448710374319,151.84453966416123,4.723308270676691,1,0.05
1755690671.939854,5.892,-1.394,-11.313,1.468448710374319,151.84453966416123,4.723308270676691,1,0.05
1755690671.9679208,4.736,-0.687,-11.644,1.4874191927630893,157.65782424269506,4.78125313283208,1,0.05
1755690671.996916,4.736,-0.687,-11.644,1.4874191927630893,157.65782424269506,4.78125313283208,1,0.05
1755690672.024889,3.599,-2.156,-11.461,1.4982649490327136,159.89453113250153,4.838245614035088,1,0.05
1755690672.0539992,3.599,-2.156,-11.461,1.4982649490327136,159.89453113250153,4.838245614035088,1,0.05
1755690672.0821824,3.005,-1.848,-10.748,1.5057798378249059,161.82885585446382,4.868020050125312,1,0.05
1755690672.110753,3.005,-1.848,-10.748,1.5057798378249059,161.82885585446382,4.868020050125312,1,0.05
1755690672.138783,1.911,-1.509,-10.051,1.5088083783237685,166.38189918459247,4.922857142857143,1,0.05
1755690672.1667466,1.911,-1.509,-10.051,1.5088083783237685,166.38189918459247,4.922857142857143,1,0.05
1755690672.195344,-0.655,-1.377,-8.992,1.5091637701058158,170.3754548229569,5.051478696741855,1,0.05
1755690672.2243845,-0.655,-1.377,-8.992,1.5091637701058158,170.3754548229569,5.051478696741855,1,0.05
1755690672.2521367,-0.171,-2.581,-9.719,1.5091879894499558,165.09651777662694,5.075739348370927,1,0.05
1755690672.2810063,-0.171,-2.581,-9.719,1.5091879894499558,165.09651777662694,5.075739348370927,1,0.05
1755690672.308886,0.509,-3.511,-9.472,1.509402560617942,159.46674197649023,5.109824561403508,1,0.05
1755690672.3376615,0.509,-3.511,-9.472,1.509402560617942,159.46674197649023,5.109824561403508,1,0.05
1755690672.3661287,-0.349,-2.696,-9.695,1.5095034257993587,164.3364085133755,5.1528320802005005,1,0.05
1755690672.394486,0.595,-1.689,-9.512,1.5097965607988382,169.33822740316057,5.200150375939849,1,0.05
1755690672.4229646,0.595,-1.689,-9.512,1.5097965607988382,169.33822740316057,5.200150375939849,1,0.05
1755690672.4509957,0.595,-1.689,-9.512,1.5097965607988382,169.33822740316057,5.200150375939849,1,0.05
1755690672.4791737,-0.256,-1.252,-8.937,1.509850818789724,171.86241962454523,5.24280701754386,1,0.05
1755690672.50715,1.145,-0.351,-10.41,1.5109358217674238,173.4374039897307,5.313032581453633,1,0.05
1755690672.5354156,1.145,-0.351,-10.41,1.5109358217674238,173.4374039897307,5.313032581453633,1,0.05
1755690672.5638866,-0.752,-1.874,-9.403,1.5114035918641984,167.88005574023313,5.408120300751879,1,0.05
1755690672.592431,-0.752,-1.874,-9.403,1.5114035918641984,167.88005574023313,5.408120300751879,1,0.05
1755690672.6207943,0.58,-1.401,-9.284,1.511681784470528,170.72405276108793,5.474887218045112,1,0.05
1755690672.6490662,0.58,-1.401,-9.284,1.511681784470528,170.72405276108793,5.474887218045112,1,0.05
1755690672.676808,-0.273,-1.11,-9.807,1.511743410767846,173.35174966274758,5.517644110275688,1,0.05
1755690672.7055752,-0.273,-1.11,-9.807,1.511743410767846,173.35174966274758,5.517644110275688,1,0.05
1755690672.7335186,-1.618,-0.098,-8.996,1.5139065195711392,169.78563071146246,5.585062656641603,1,0.05
1755690672.761972,-1.618,-0.098,-8.996,1.5139065195711392,169.78563071146246,5.585062656641603,1,0.05
1755690672.7906733,-1.039,0.296,-9.27,1.5147975945650296,173.35264146555832,5.61408521303258,1,0.05
1755690672.8194025,-1.039,0.296,-9.27,1.5147975945650296,173.35264146555832,5.61408521303258,1,0.05
1755690672.8476756,1.157,0.185,-10.444,1.5159018355421303,173.5988364714739,5.724160401002505,1,0.05
1755690672.8765998,1.157,0.185,-10.444,1.5159018355421303,173.5988364714739,5.724160401002505,1,0.05
1755690672.9044797,0.03,0.406,-9.69,1.5159025776744361,177.5942419220526,5.780651629072681,1,0.05
1755690672.9327545,0.03,0.406,-9.69,1.5159025776744361,177.5942419220526,5.780651629072681,1,0.05
1755690672.9607458,-0.841,0.488,-9.51,1.5164856832492684,174.1622007831023,5.824310776942356,1,0.05
1755690672.9890187,-0.009,-0.036,-10.444,1.5164857500154758,179.7964266554231,5.866015037593985,1,0.05
1755690673.0175972,-0.009,-0.036,-10.444,1.5164857500154758,179.7964266554231,5.866015037593985,1,0.05
1755690673.0458324,-0.276,-0.781,-10.429,1.516548538623146,175.45875822919243,5.879398496240602,1,0.05
1755690673.074572,-0.276,-0.781,-10.429,1.516548538623146,175.45875822919243,5.879398496240602,1,0.05
1755690673.1029263,-0.013,-0.209,-10.669,1.5165486779197033,178.8755815647271,5.892581453634086,1,0.05
1755690673.131921,-0.013,-0.209,-10.669,1.5165486779197033,178.8755815647271,5.892581453634086,1,0.05
1755690673.1608047,-0.013,-0.209,-10.669,1.5165486779197033,178.8755815647271,5.892581453634086,1,0.05
1755690673.188848,-1.825,-1.944,-9.8,1.519291431885272,164.77924483662437,5.983408521303258,1,0.05
1755690673.218504,-0.664,-0.235,-8.963,1.5196541366376757,175.50663796512976,6.041604010025062,1,0.05
1755690673.2469685,-0.664,-0.235,-8.963,1.5196541366376757,175.50663796512976,6.041604010025062,1,0.05
1755690673.2758062,-0.771,-0.863,-9.151,1.5201430187650107,172.79259077673092,6.046967418546367,1,0.05
1755690673.3049085,-0.771,-0.863,-9.151,1.5201430187650107,172.79259077673092,6.046967418546367,1,0.05
1755690673.3334954,0.053,-0.19,-9.531,1.5201453285788171,178.81437539760785,6.08827067669173,1,0.05
1755690673.3623586,0.053,-0.19,-9.531,1.5201453285788171,178.81437539760785,6.08827067669173,1,0.05
1755690673.3910341,-0.144,-0.214,-9.84,1.5201623794845074,178.498437615028,6.098145363408521,1,0.05
1755690673.420125,-0.144,-0.214,-9.84,1.5201623794845074,178.498437615028,6.098145363408521,1,0.05
1755690673.4489613,0.051,0.087,-9.79,1.520164518234786,179.4098192271057,6.107919799498747,1,0.05
1755690673.4778457,-0.955,-0.038,-9.469,1.5209142727320302,174.23635742583153,6.158345864661655,1,0.05
1755690673.506126,-0.955,-0.038,-9.469,1.5209142727320302,174.23635742583153,6.158345864661655,1,0.05
1755690673.5355065,-0.7,-0.452,-9.759,1.5213169377220512,175.11977209730395,6.171127819548872,1,0.05
1755690673.5646245,-0.7,-0.452,-9.759,1.5213169377220512,175.11977209730395,6.171127819548872,1,0.05
1755690673.594082,-0.166,0.248,-10.84,1.5213395791209796,178.42302426353626,6.197894736842105,1,0.05
1755690673.6232069,-0.166,0.248,-10.84,1.5213395791209796,178.42302426353626,6.197894736842105,1,0.05
1755690673.6517403,-0.729,-0.711,-10.104,1.5217761719451386,174.24498135371883,6.226115288220551,1,0.05
1755690673.6798027,-0.729,-0.711,-10.104,1.5217761719451386,174.24498135371883,6.226115288220551,1,0.05
1755690673.7089562,-0.056,-0.649,-9.308,1.5217787478802558,175.99673642982373,6.25984962406015,1,0.05
1755690673.7376676,-0.056,-0.649,-9.308,1.5217787478802558,175.99673642982373,6.25984962406015,1,0.05
1755690673.766152,0.003,0.072,-9.381,1.5217787552729207,179.55987694838555,6.262807017543859,1,0.05
1755690673.7949622,0.003,0.072,-9.381,1.5217787552729207,179.55987694838555,6.262807017543859,1,0.05
1755690673.823747,-0.028,-0.221,-10.294,1.5217793992560158,178.76028759333946,6.264360902255638,1,0.05
1755690673.8520067,-0.028,-0.221,-10.294,1.5217793992560158,178.76028759333946,6.264360902255638,1,0.05
1755690673.8802242,-0.197,-0.418,-9.861,1.5218112768999972,177.31702528530556,6.272832080200501,1,0.05
1755690673.9092731,-0.197,-0.418,-9.861,1.5218112768999972,177.31702528530556,6.272832080200501,1,0.05
1755690673.9375854,-0.178,-0.497,-9.816,1.5218373015864737,176.92154421438815,6.273784461152883,1,0.05
1755690673.96633,0.211,-0.233,-9.379,1.5218738696094365,178.0804297348392,6.29328320802005,1,0.05
1755690673.995541,0.211,-0.233,-9.379,1.5218738696094365,178.0804297348392,6.29328320802005,1,0.05
1755690674.0240061,0.106,-0.459,-11.228,1.5218830983357428,177.5975139202507,6.2985463659147864,1,0.05
1755690674.0523007,0.106,-0.459,-11.228,1.5218830983357428,177.5975139202507,6.2985463659147864,1,0.05
1755690674.0806334,0.106,-0.327,-9.158,1.5218923270060862,177.85037559212498,6.2985463659147864,1,0.05
1755690674.108533,0.106,-0.327,-9.158,1.5218923270060862,177.85037559212498,6.2985463659147864,1,0.05
1755690674.136613,0.518,-0.012,-9.783,1.5221126978643862,176.96826487445344,6.3191979949874675,1,0.05
1755690674.1655743,0.518,-0.012,-9.783,1.5221126978643862,176.96826487445344,6.3191979949874675,1,0.05
1755690674.1939855,0.845,-0.19,-10.657,1.522698961548211,175.35376619330273,6.335588972431078,1,0.05
1755690674.2223134,0.845,-0.19,-10.657,1.522698961548211,175.35376619330273,6.335588972431078,1,0.05
1755690674.2509305,0.588,0.329,-9.384,1.5229827600797063,175.8931322182291,6.348471177944862,1,0.05
1755690674.2790935,0.588,0.329,-9.384,1.5229827600797063,175.8931322182291,6.348471177944862,1,0.05
1755690674.3072753,0.459,-0.159,-9.4,1.5231556683412237,177.04178543656198,6.3549373433583956,1,0.05
1755690674.3356895,0.459,-0.159,-9.4,1.5231556683412237,177.04178543656198,6.3549373433583956,1,0.05
1755690674.3639538,0.762,-0.115,-9.935,1.5236321078265578,175.56461471087724,6.370125313283206,1,0.05
1755690674.3932767,0.762,-0.115,-9.935,1.5236321078265578,175.56461471087724,6.370125313283206,1,0.05
1755690674.421738,0.802,0.055,-9.453,1.524159706198796,175.13925821865973,6.372130325814536,1,0.05
1755690674.4501965,1.045,0.276,-9.465,1.525055039170718,173.4854614937907,6.384310776942354,1,0.05
1755690674.4791882,1.045,0.276,-9.465,1.525055039170718,173.4854614937907,6.384310776942354,1,0.05
1755690674.5070748,1.093,-0.01,-9.819,1.5260339101736895,173.64801678177102,6.386716791979948,1,0.05
1755690674.5359104,1.093,-0.01,-9.819,1.5260339101736895,173.64801678177102,6.386716791979948,1,0.05
1755690674.5642924,1.043,-0.101,-9.519,1.5269247255513285,173.7180103934687,6.389223057644109,1,0.05
1755690674.5929794,1.043,-0.101,-9.519,1.5269247255513285,173.7180103934687,6.389223057644109,1,0.05
1755690674.6211267,1.298,0.195,-9.396,1.5283033493060203,172.04757992014515,6.402005012531327,1,0.05
1755690674.649504,1.298,0.195,-9.396,1.5283033493060203,172.04757992014515,6.402005012531327,1,0.05
1755690674.6777158,1.11,0.168,-9.322,1.5293107524306497,173.13298237632128,6.41142857142857,1,0.05
1755690674.705732,1.11,0.168,-9.322,1.5293107524306497,173.13298237632128,6.41142857142857,1,0.05
1755690674.733932,1.074,0.046,-9.462,1.5302532690701889,173.5183767421735,6.413233082706766,1,0.05
1755690674.7620215,1.074,0.046,-9.462,1.5302532690701889,173.5183767421735,6.413233082706766,1,0.05
1755690674.7905195,1.226,0.079,-9.643,1.5314805769254796,172.73948669796144,6.420852130325813,1,0.05
1755690674.818643,1.226,0.079,-9.643,1.5314805769254796,172.73948669796144,6.420852130325813,1,0.05
1755690674.8467762,1.067,0.012,-9.676,1.5324095340345543,173.70686152160837,6.428822055137843,1,0.05
1755690674.874787,1.067,0.012,-9.676,1.5324095340345543,173.70686152160837,6.428822055137843,1,0.05
1755690674.902648,1.102,0.106,-9.719,1.5333998141385046,173.50147768828404,6.430576441102756,1,0.05
1755690674.9304574,1.102,0.106,-9.719,1.5333998141385046,173.50147768828404,6.430576441102756,1,0.05
1755690674.9585712,1.257,0.053,-9.583,1.534687301211553,172.52062371351315,6.438345864661653,1,0.05
1755690674.986954,1.057,0.005,-9.581,1.535597028845784,173.70437454823195,6.448370927318296,1,0.05
1755690675.0151825,1.057,0.005,-9.581,1.535597028845784,173.70437454823195,6.448370927318296,1,0.05
1755690675.0429635,1.138,0.065,-9.662,1.5366508533170442,173.2717456023728,6.452431077694236,1,0.05
1755690675.0710511,1.138,0.065,-9.662,1.5366508533170442,173.2717456023728,6.452431077694236,1,0.05
1755690675.0991228,1.138,0.065,-9.662,1.5366508533170442,173.2717456023728,6.452431077694236,1,0.05
1755690675.1271958,1.212,0.027,-9.6,1.5378453124420544,172.8027101130153,6.456140350877192,1,0.05
1755690675.1553786,1.052,0.01,-9.652,1.538744606814269,173.77943853574467,6.4641604010025056,1,0.05
1755690675.1833727,1.052,0.01,-9.652,1.538744606814269,173.77943853574467,6.4641604010025056,1,0.05
1755690675.2112224,1.126,0.077,-9.702,1.5397742220858226,173.36462931597183,6.467869674185462,1,0.05
1755690675.239294,1.126,0.077,-9.702,1.5397742220858226,173.36462931597183,6.467869674185462,1,0.05
1755690675.267328,1.148,0.043,-9.6,1.540843734776502,173.17602520205145,6.468972431077694,1,0.05
1755690675.2958925,1.148,0.043,-9.6,1.540843734776502,173.17602520205145,6.468972431077694,1,0.05
1755690675.3238566,0.993,-0.067,-9.667,1.54164345342884,174.12187193347717,6.476741854636591,1,0.05
1755690675.352288,0.993,-0.067,-9.667,1.54164345342884,174.12187193347717,6.476741854636591,1,0.05
1755690675.3803554,1.2,0.091,-9.648,1.5428105967681192,172.88992112134372,6.487117794486215,1,0.05
1755690675.4086218,1.2,0.091,-9.648,1.5428105967681192,172.88992112134372,6.487117794486215,1,0.05
1755690675.436571,1.162,0.024,-9.676,1.543904189870602,173.150643158517,6.489022556390977,1,0.05
1755690675.4646337,1.162,0.024,-9.676,1.543904189870602,173.150643158517,6.489022556390977,1,0.05
1755690675.4928675,1.11,0.005,-9.612,1.544901419994169,173.41255912292925,6.491629072681704,1,0.05
1755690675.5216,1.11,0.005,-9.612,1.544901419994169,173.41255912292925,6.491629072681704,1,0.05
1755690675.549833,1.226,0.065,-9.671,1.5461171001900211,172.76506977902505,6.497443609022556,1,0.05
1755690675.5787392,1.226,0.065,-9.671,1.5461171001900211,172.76506977902505,6.497443609022556,1,0.05
1755690675.607482,1.164,-0.053,-9.667,1.5472121145789932,173.12704460426463,6.500551378446115,1,0.05
1755690675.6358445,1.133,0.014,-9.569,1.5482488656543558,173.24692527758194,6.502105263157893,1,0.05
1755690675.6640482,1.133,0.014,-9.569,1.5482488656543558,173.24692527758194,6.502105263157893,1,0.05
1755690675.692736,1.133,0.014,-9.569,1.5482488656543558,173.24692527758194,6.502105263157893,1,0.05
1755690675.7210448,1.312,0.13,-9.648,1.549637993210027,172.2185773537369,6.511077694235588,1,0.05
1755690675.7493875,1.136,0.079,-9.752,1.5506786095126224,173.33971909026806,6.519899749373432,1,0.05
1755690675.7777984,1.136,0.079,-9.752,1.5506786095126224,173.33971909026806,6.519899749373432,1,0.05
1755690675.8065062,1.141,0.007,-9.59,1.5517276992114306,173.21482632461087,6.520150375939847,1,0.05
1755690675.8352563,1.141,0.007,-9.59,1.5517276992114306,173.21482632461087,6.520150375939847,1,0.05
1755690675.8635368,1.381,0.058,-9.657,1.5532632600431904,171.85451332003888,6.532180451127817,1,0.05
1755690675.8923113,1.381,0.058,-9.657,1.5532632600431904,171.85451332003888,6.532180451127817,1,0.05
1755690675.9203322,1.164,-0.077,-9.693,1.5543532400969864,173.1375081332343,6.543057644110275,1,0.05
1755690675.948887,1.164,-0.077,-9.693,1.5543532400969864,173.1375081332343,6.543057644110275,1,0.05
1755690675.9767747,1.138,0.017,-9.621,1.5553943567468669,173.2534851887125,6.5443609022556375,1,0.05
1755690676.0054018,1.138,0.017,-9.621,1.5553943567468669,173.2534851887125,6.5443609022556375,1,0.05
1755690676.033552,1.248,0.058,-9.612,1.5566455489288498,172.5943362647262,6.549874686716791,1,0.05
1755690676.062135,1.248,0.058,-9.612,1.5566455489288498,172.5943362647262,6.549874686716791,1,0.05
1755690676.090216,1.091,-0.029,-9.6,1.5576010617292222,173.51412004999582,6.557744360902254,1,0.05
1755690676.1186826,1.091,-0.029,-9.6,1.5576010617292222,173.51412004999582,6.557744360902254,1,0.05
1755690676.146873,1.11,0.082,-9.574,1.558589528227365,173.368849997509,6.558696741854637,1,0.05
1755690676.1756718,1.215,0.063,-9.626,1.5597730219490271,172.79656894234316,6.563959899749372,1,0.05
1755690676.2046306,1.215,0.063,-9.626,1.5597730219490271,172.79656894234316,6.563959899749372,1,0.05
1755690676.2335021,1.021,0.039,-9.686,1.5606082091607745,173.9783242799715,6.573684210526315,1,0.05
1755690676.2622201,1.021,0.039,-9.686,1.5606082091607745,173.9783242799715,6.573684210526315,1,0.05
1755690676.3001356,1.193,-0.01,-9.788,1.5617477725292264,173.05059919386966,6.582305764411028,1,0.05
1755690676.3277402,1.193,-0.01,-9.788,1.5617477725292264,173.05059919386966,6.582305764411028,1,0.05
1755690676.353605,1.2,-0.01,-9.638,1.5628999024249761,172.90254469580947,6.58265664160401,1,0.05
1755690676.3819225,1.2,-0.01,-9.638,1.5628999024249761,172.90254469580947,6.58265664160401,1,0.05
1755690676.4105442,0.986,0.005,-9.645,1.5636772668936514,174.16290500917802,6.593383458646617,1,0.05
1755690676.438856,0.986,0.005,-9.645,1.5636772668936514,174.16290500917802,6.593383458646617,1,0.05
1755690676.4672377,1.265,0.127,-9.602,1.564955960242971,172.45758650390835,6.607368421052632,1,0.05
1755690676.4958415,1.265,0.127,-9.602,1.564955960242971,172.45758650390835,6.607368421052632,1,0.05
1755690676.5239182,1.234,0.005,-9.743,1.5661717809678477,172.78157650348345,6.60892230576441,1,0.05
1755690676.5522833,1.234,0.005,-9.743,1.5661717809678477,172.78157650348345,6.60892230576441,1,0.05
1755690676.580305,1.138,0.01,-9.743,1.5672050464122427,173.33768121314625,6.613734335839598,1,0.05
1755690676.6082814,1.138,0.01,-9.743,1.5672050464122427,173.33768121314625,6.613734335839598,1,0.05
1755690676.636473,1.272,0.067,-9.617,1.5684950167278184,172.45513836817207,6.620451127819548,1,0.05
1755690676.6647496,1.15,0.017,-9.619,1.569548619030325,173.18162205812092,6.6265664160401005,1,0.05
1755690676.6931562,1.15,0.017,-9.619,1.569548619030325,173.18162205812092,6.6265664160401005,1,0.05
1755690676.7220237,1.122,0.043,-9.536,1.570550883448225,173.2845846745317,6.62796992481203,1,0.05
1755690676.7502642,1.122,0.043,-9.536,1.570550883448225,173.2845846745317,6.62796992481203,1,0.05
1755690676.778295,1.35,0.099,-10.054,1.5720007402988079,172.332064759442,6.639398496240601,1,0.05
1755690676.8065953,1.35,0.099,-10.054,1.5720007402988079,172.332064759442,6.639398496240601,1,0.05
1755690676.8344069,1.129,0.024,-9.662,1.5730139637015306,173.33374734086482,6.650476190476191,1,0.05
1755690676.8626325,1.129,0.024,-9.662,1.5730139637015306,173.33374734086482,6.650476190476191,1,0.05
1755690676.890565,1.153,0.046,-9.712,1.574070027825954,173.22424929089271,6.651679197994986,1,0.05
1755690676.918306,1.153,0.046,-9.712,1.574070027825954,173.22424929089271,6.651679197994986,1,0.05
1755690676.946525,1.324,0.0,-9.683,1.57546148556542,172.21397495807417,6.660250626566416,1,0.05
1755690676.9749002,1.324,0.0,-9.683,1.57546148556542,172.21397495807417,6.660250626566416,1,0.05
1755690677.0026827,1.052,0.039,-9.579,1.5763393202289917,173.7284184381909,6.673884711779449,1,0.05
1755690677.0311334,1.052,0.039,-9.579,1.5763393202289917,173.7284184381909,6.673884711779449,1,0.05
1755690677.058987,1.143,0.048,-9.56,1.5773749633489178,173.17608968720208,6.67844611528822,1,0.05
1755690677.0875428,1.143,0.048,-9.56,1.5773749633489178,173.17608968720208,6.67844611528822,1,0.05
1755690677.1148834,1.203,-0.012,-9.652,1.578521395958889,172.8950916332184,6.681453634085212,1,0.05
1755690677.1430943,1.203,-0.012,-9.652,1.578521395958889,172.8950916332184,6.681453634085212,1,0.05
1755690677.1716752,1.102,-0.019,-9.564,1.57948276581291,173.42618267867908,6.686516290726816,1,0.05
1755690677.200739,1.102,-0.019,-9.564,1.57948276581291,173.42618267867908,6.686516290726816,1,0.05
1755690677.2293272,1.281,0.075,-9.664,1.5807808861445662,172.43646361139741,6.695488721804511,1,0.05
1755690677.2585292,1.217,0.0,-9.683,1.5819516214157752,172.83638887148302,6.698696741854637,1,0.05
1755690677.2870953,1.217,0.0,-9.683,1.5819516214157752,172.83638887148302,6.698696741854637,1,0.05
1755690677.3161838,1.088,0.024,-9.857,1.582886696039865,173.69976028518704,6.7051629072681695,1,0.05
1755690677.3453069,1.088,0.024,-9.857,1.582886696039865,173.69976028518704,6.7051629072681695,1,0.05
1755690677.3740537,1.293,0.06,-9.733,1.5842063991159736,172.42468722032535,6.715438596491228,1,0.05
1755690677.4023402,1.293,0.06,-9.733,1.5842063991159736,172.42468722032535,6.715438596491228,1,0.05
1755690677.430402,1.048,-0.012,-9.674,1.5850727664684672,173.81676523326823,6.7277192982456135,1,0.05
1755690677.4569416,1.048,-0.012,-9.674,1.5850727664684672,173.81676523326823,6.7277192982456135,1,0.05
1755690677.485178,1.112,-0.019,-9.702,1.5860476143546258,173.46059869356722,6.730927318295739,1,0.05
1755690677.5133877,1.112,-0.019,-9.702,1.5860476143546258,173.46059869356722,6.730927318295739,1,0.05
1755690677.5420158,1.238,-0.005,-9.783,1.587255066144065,172.78772281301335,6.737243107769423,1,0.05
1755690677.5705492,1.238,-0.005,-9.783,1.587255066144065,172.78772281301335,6.737243107769423,1,0.05
1755690677.5994906,1.019,-0.002,-9.669,1.5880725888636198,173.98388800405857,6.748220551378446,1,0.05
1755690677.62827,1.019,-0.002,-9.669,1.5880725888636198,173.98388800405857,6.748220551378446,1,0.05
1755690677.6569452,1.2,0.034,-9.686,1.5892056341141005,172.93479799480883,6.757293233082707,1,0.05
1755690677.6857467,1.2,0.034,-9.686,1.5892056341141005,172.93479799480883,6.757293233082707,1,0.05
1755690677.714044,1.229,-0.019,-9.595,1.5903932375359244,172.70000581261468,6.758746867167919,1,0.05
