timestamp,ax,ay,az,gx,gy,gz,rms_acc,tilt_now,jerk_acc,tilt_crosses,freq_acc,rms_gyro,ang_speed_now,jerk_gyro,max_ang_speed
1755687370.051567,9.798,-0.781,1.863,0.0449,-0.4093,-0.2068,0.6928232242065793,79.26749168557522,0.9847236180904522,1,0.1,0.003174909447527599,0.4607697255679891,0.004512562814070352,0.4607697255679891
1755687370.1157954,9.442,-1.23,0.817,-0.1116,-0.5397,-0.2413,0.9621646636620991,85.0958446928669,1.020502512562814,1,0.1,0.008506047848442895,0.6016280744779119,0.02024120603015075,0.6016280744779119
1755687370.2114437,9.85,-0.819,0.896,-0.0406,-0.0181,-0.1089,1.1878018942567823,84.82020088781927,1.0615075376884422,1,0.1,0.008977452311207229,0.1176230419603234,0.027376884422110552,0.6016280744779119
1755687370.2984197,9.225,-0.524,0.57,-0.0129,0.1079,-0.1033,1.3551296856758765,86.46994384216457,1.124321608040201,1,0.1,0.009023674417885433,0.14993235141222858,0.030160804020100497,0.6016280744779119
1755687370.3823996,10.542,-0.548,0.851,0.0546,0.1572,-0.0563,1.5466238343566285,85.39101787249288,1.256683417085427,1,0.1,0.009814912123906153,0.17567780167112748,0.036944723618090446,0.6016280744779119
1755687370.466806,9.495,-0.743,0.872,0.018,0.1154,-0.0036,1.6860665496948808,84.76870294219938,1.3619095477386933,1,0.1,0.00989709553353912,0.11685084509750025,0.04062311557788944,0.6016280744779119
1755687370.5540078,9.686,-0.541,0.877,0.0013,0.0653,0.0151,1.8198663110239717,84.83437989207349,1.3811055276381907,1,0.1,0.009897522417251704,0.06703573673795195,0.04230150753768843,0.6016280744779119
1755687370.638991,10.048,-0.454,0.927,0.0103,0.0032,-0.0122,1.9536440080014579,84.73431656274226,1.4174874371859296,1,0.1,0.009924283349441409,0.01628404126744955,0.043206030150753756,0.6016280744779119
1755687370.7396631,9.7,-0.661,0.896,0.0041,0.0312,-0.0363,2.0705494222548757,84.7346420397767,1.452462311557789,1,0.1,0.009928517009100604,0.04804102413562808,0.04382914572864321,0.6016280744779119
1755687370.8236732,9.433,-0.548,0.905,0.0079,-0.0111,-0.0066,2.1753349983393364,84.52899625845897,1.4792964824120602,1,0.1,0.009944219426380334,0.015138692149588087,0.0442110552763819,0.6016280744779119
1755687370.9075453,9.974,-0.517,1.007,0.0143,0.0026,-0.0419,2.2868068862499085,84.24248830833182,1.5336683417085426,1,0.1,0.009995496485918047,0.04434929537208004,0.04485427135678392,0.6016280744779119
1755687370.9910882,9.364,-0.565,1.112,0.0159,0.0417,0.0177,2.3807369058759935,83.23986942282197,1.5949748743718593,1,0.1,0.010058528719449978,0.04801031139244985,0.04501507537688442,0.6016280744779119
1755687371.0744317,9.848,-0.514,0.96,0.0065,0.013,0.0174,2.4804886081173603,84.43982099733292,1.6436180904522613,1,0.1,0.01006902428242181,0.022671788636982305,0.045959798994974876,0.6016280744779119
1755687371.1586514,9.907,-0.514,1.1,0.006,0.0487,-0.0276,2.577511780768422,83.6726926318496,1.6495477386934674,1,0.1,0.010077958622657666,0.0562978685209307,0.04601005025125628,0.6016280744779119
1755687371.242015,9.564,-0.533,1.05,0.0052,-0.0652,-0.0088,2.6647546716348955,83.7444065511444,1.6840201005025128,1,0.1,0.010084664099512686,0.06599636353618281,0.046090452261306536,0.6016280744779119
1755687371.3260484,9.826,-0.497,1.048,-0.0047,-0.0572,-0.0054,2.753846190330898,83.9198011513647,1.7103517587939698,1,0.1,0.010090138750284855,0.05764624879382873,0.0470854271356784,0.6016280744779119
1755687371.4094052,9.748,-0.514,0.917,-0.0092,-0.0493,-0.0427,2.838800162040294,84.63337940172462,1.7181909547738694,1,0.1,0.0101110879731115,0.06586668353576032,0.04753768844221106,0.6016280744779119
1755687371.4938757,9.686,-0.464,0.936,-0.0032,-0.0473,-0.0131,2.920253300657325,84.48668326301906,1.724422110552764,1,0.1,0.01011361953011878,0.04918475373527858,0.04814070351758793,0.6016280744779119
1755687371.5795333,9.8,-0.543,0.889,-0.0171,-0.0192,-0.004,3.001346254599759,84.82453652004283,1.7358793969849249,1,0.1,0.010185644309517194,0.02602018447282801,0.049537688442211056,0.6016280744779119
1755687371.6645038,9.81,-0.509,0.703,-0.0139,-0.0303,-0.0111,3.080464224755743,85.90658893887381,1.736884422110553,1,0.1,0.010232956562010806,0.03513559448764173,0.04985929648241205,0.6016280744779119
1755687371.766307,9.702,-0.514,0.879,0.0065,-0.0323,0.0174,3.1559315360127824,84.83035355707429,1.7477386934673371,1,0.1,0.01024327340257986,0.03725989801381641,0.05190954773869346,0.6016280744779119
1755687371.850283,9.674,-0.567,0.858,-0.0149,-0.0499,-0.0015,3.229215886248549,84.9402604658361,1.7505527638190959,1,0.1,0.010297315184066185,0.05209865641261778,0.054060301507537684,0.6016280744779119
1755687371.9335682,9.867,-0.396,0.843,-0.0005,-0.074,-0.0332,3.3037287547557534,85.120628086114,1.7699497487437188,1,0.1,0.010297375879319936,0.08110789110807899,0.05550753768844221,0.6016280744779119
1755687372.0190074,9.745,-0.493,0.772,0.0011,0.0482,0.0097,3.374825745131147,85.47624275142,1.7822110552763826,1,0.1,0.010297669639292184,0.04917865390593768,0.055668341708542714,0.6016280744779119
1755687372.1027472,9.96,-0.471,0.851,-0.0285,0.1405,0.011,3.447529087622032,85.12183323322168,1.8038190954773876,1,0.1,0.01049300957780941,0.14378282233980527,0.05864321608040201,0.6016280744779119
1755687372.1866803,10.494,-0.36,0.767,-0.0252,0.5879,0.0894,3.526482240136763,85.82216885579254,1.8574874371859302,1,0.1,0.01064323494056201,0.5951922462532588,0.0589748743718593,0.6016280744779119
1755687372.2702494,9.395,-0.642,1.509,-0.0597,1.078,0.174,3.588510431223518,80.89611186752188,1.9679396984924629,1,0.1,0.01144984279368062,1.0935831427010934,0.062442211055276385,1.0935831427010934
1755687372.3539612,9.571,-0.723,1.777,-0.0528,1.0216,0.1489,3.651770436377402,79.51116197386173,1.9856281407035181,1,0.1,0.01204317649127505,1.0337434933289786,0.0631356783919598,1.0935831427010934
1755687372.4374282,9.569,-0.798,2.661,-0.0107,0.8212,0.1327,3.7139273182172,74.51069628629286,1.9858291457286434,1,0.1,0.012066919656648087,0.8319214025375234,0.06736683417085428,1.0935831427010934
1755687372.5219488,9.147,-0.855,2.73,0.0037,0.5556,0.0827,3.7698268090192157,73.44999132909967,2.028241206030151,1,0.1,0.01206975558990322,0.5617333353113378,0.0688140703517588,1.0935831427010934
1755687372.6063266,9.197,-0.887,2.87,-0.0139,0.2215,-0.0252,3.825508883142216,72.74431656865612,2.0332663316582917,1,0.1,0.012109708914751006,0.22336181410438088,0.07058291457286432,1.0935831427010934
1755687372.690405,9.166,-0.798,3.267,-0.0309,0.1954,-0.0004,3.880025257005423,70.45092616954123,2.036381909547739,1,0.1,0.012305246848397637,0.19782853686968419,0.07229145728643216,1.0935831427010934
1755687372.7931166,9.442,-0.831,3.027,0.002,0.0602,-0.04,3.937048744300736,72.28888915515337,2.064120603015075,1,0.1,0.012306059483035177,0.0723051865359602,0.07559798994974874,1.0935831427010934
1755687372.8766127,9.211,-0.829,3.343,-0.0015,0.1155,-0.001,3.9905595372077833,70.12636561708369,2.0873366834170852,1,0.1,0.012306516566437475,0.11551406840727237,0.0759497487437186,1.0935831427010934
1755687372.9603682,9.337,-0.762,3.414,0.0009,0.2277,-0.0182,4.044806950275872,69.97671847697373,2.1000000000000005,1,0.1,0.012306681112306437,0.22842797551963728,0.07619095477386935,1.0935831427010934
1755687373.0442173,9.156,-0.853,3.398,-0.01,0.0617,-0.0151,4.0962940501140785,69.71958830219418,2.118190954773869,1,0.1,0.01232697854301694,0.06430318810136866,0.07728643216080401,1.0935831427010934
1755687373.1278763,8.966,-0.786,3.45,-0.0031,0.0238,-0.0179,4.145065828789695,69.02732830276673,2.1372864321608045,1,0.1,0.012328927366158015,0.02994094186895262,0.07797989949748743,1.0935831427010934
1755687373.2117946,9.357,-0.798,3.203,0.0095,-0.3996,-0.0541,4.197539513810442,71.1669049967667,2.1765829145728643,1,0.1,0.012347214260714844,0.40335743454162337,0.07924623115577889,1.0935831427010934
1755687373.2979846,8.801,-0.74,3.006,-0.0139,-0.9917,-0.0207,4.243421493912666,71.2039351521888,2.2324623115577893,1,0.1,0.012386272643535666,0.9920134021272092,0.08159798994974875,1.0935831427010934
1755687373.3816407,9.862,-0.661,2.364,-0.0296,-1.8806,-0.1233,4.3003396604221855,76.54916738874239,2.3390954773869352,1,0.1,0.012561868889619889,1.8848701308047724,0.08317587939698491,1.8848701308047724
1755687373.4647968,9.314,-0.574,1.067,-0.0047,-1.6633,-0.0933,4.350479763773186,83.4770261502907,2.3941708542713567,1,0.1,0.012566264361376455,1.6659213276742693,0.085678391959799,1.8848701308047724
1755687373.5494912,7.919,-0.63,0.998,-0.0372,-2.0426,-0.2347,4.386368313308859,82.83949715911928,2.5343718592964826,1,0.1,0.012838621421320905,2.056376106163462,0.08894472361809044,2.056376106163462
1755687373.6339052,10.396,-0.315,-0.917,-0.0432,-1.7557,-0.1545,4.447539888522642,95.0385421153971,2.7833165829145736,1,0.1,0.013197022391433609,1.7630141746452297,0.08954773869346734,2.056376106163462
1755687373.7179127,10.084,-0.476,-1.364,0.0324,-1.302,0.0333,4.5043363928552225,97.6948253590242,2.8146733668341715,1,0.1,0.013394409281487558,1.3028287109209713,0.09714572864321606,2.056376106163462
1755687373.8189914,9.488,-0.32,-2.355,0.0775,-1.3173,0.1241,4.554026466765427,103.93196989230098,2.8745728643216086,1,0.1,0.014472092108606829,1.3254004489210043,0.101678391959799,2.056376106163462
1755687373.9033306,9.845,-0.569,-3.362,0.0941,-1.1157,0.2007,4.60692708700713,108.8254862799895,2.910452261306533,1,0.1,0.01592844939094826,1.1375068307487213,0.10334673366834173,2.056376106163462
1755687373.986622,9.605,-0.399,-2.158,0.3116,-0.9894,0.9209,4.656721734224625,102.65207916411312,2.9345728643216082,1,0.1,0.027188017581280175,1.3871062432272447,0.12520603015075377,2.056376106163462
1755687374.071009,10.336,-0.75,-2.892,0.1563,0.0445,0.399,4.7137269532716894,105.5925604430743,3.0080402010050253,1,0.1,0.029348539145926836,0.430825881302412,0.14081407035175877,2.056376106163462
1755687374.1551702,10.694,-0.685,-2.963,0.1592,0.5542,0.71,4.7739951790926645,105.4563658813914,3.0440201005025127,1,0.1,0.03143342090832622,0.914648719454633,0.14110552763819095,2.056376106163462
1755687374.2393599,9.307,-1.35,-2.726,0.354,0.6266,0.9171,4.819142165883882,106.16498703373864,3.1834170854271355,1,0.1,0.04018258266960947,1.1657684032431141,0.16068341708542713,2.056376106163462
1755687374.3241282,11.035,-1.557,-1.965,1.1347,0.1293,0.9368,4.88190406911074,99.99979467368416,3.357085427135678,1,0.1,0.08973494525545775,1.4771109707804624,0.2391457286432161,2.056376106163462
1755687374.4080381,8.069,-3.249,-3.826,1.865,0.102,0.7551,4.91513287155088,113.74197934248836,3.655175879396985,1,0.1,0.15951014199730373,2.014647614348475,0.3125427135678392,2.056376106163462
1755687374.492209,8.238,-3.883,-2.495,2.1793,0.9135,0.5426,4.949530721694734,105.32067934735738,3.6721608040200997,1,0.1,0.22178870090696687,2.424509331803035,0.34413065326633163,2.424509331803035
1755687374.5766025,6.572,-3.53,-2.393,2.2928,1.6971,0.6035,4.971298651760926,107.7849985236504,3.8395979899497483,1,0.1,0.2747269317886399,2.915697600918175,0.3555376884422111,2.915697600918175
1755687374.6603663,7.919,-4.34,-0.257,2.411,1.0352,0.071,5.002735560670781,91.63018458909981,3.9749748743718585,1,0.1,0.3233256749007106,2.624804952753633,0.36741708542713575,2.915697600918175
1755687374.7441654,8.296,-5.445,-0.245,1.3901,0.5376,-0.2309,5.037011134591625,91.41431096564148,4.01286432160804,1,0.1,0.337936949888585,1.5082130419804753,0.47002010050251264,2.915697600918175
1755687374.8434389,8.329,-3.028,1.787,1.4871,0.7615,-0.2754,5.071325504737396,78.59975575145504,4.016180904522614,1,0.1,0.3539190785334975,1.6932790142206335,0.4797688442211056,2.915697600918175
1755687374.9268153,7.487,-1.23,-0.314,1.5966,-1.4404,-0.8074,5.0988840171159024,92.36981092115627,4.100804020100503,1,0.1,0.3714893968204207,2.2969062845488497,0.4907738693467337,2.915697600918175
1755687375.0112035,12.83,-7.875,-0.174,2.3667,-1.0775,-0.4858,5.178963479307418,90.66221511380253,4.637788944723618,1,0.1,0.4074441267216893,2.645425633050379,0.5681708542713568,2.915697600918175
1755687375.0944963,11.901,-2.648,0.088,1.0798,-0.7483,1.145,5.246887813266071,89.58645613692505,4.731155778894473,1,0.1,0.41453655640968506,1.7426835427007394,0.6975075376884422,2.915697600918175
1755687375.1782868,8.956,-3.943,-2.806,2.0302,-1.0407,1.0369,5.284967493277513,106.00019377357333,5.02713567839196,1,0.1,0.438690228749171,2.505978878602132,0.7930251256281404,2.915697600918175
1755687375.2621598,8.031,-2.975,-1.122,2.9553,-1.045,0.7846,5.315389563334,97.4637352691512,5.120100502512563,1,0.1,0.4859198568179736,3.2313186549766333,0.886,3.2313186549766333
1755687375.3463206,6.14,-2.033,0.765,2.8555,-0.5684,-0.165,5.333091430868216,83.25451564736979,5.310150753768844,1,0.1,0.5262010152973862,2.916193376647029,0.8960301507537686,3.2313186549766333
1755687375.4305205,8.186,-2.18,4.617,2.2743,-2.3891,-0.9184,5.364412101060097,61.40889020259806,5.515778894472364,1,0.1,0.550226963125218,3.4239885893501456,0.9544422110552763,3.4239885893501456
1755687375.5150557,9.969,-2.526,-1.661,1.9129,-1.7523,-0.7905,5.410528809183073,99.17474144101,5.694974874371861,1,0.1,0.5666088977416432,2.71194246804758,0.9907638190954773,3.4239885893501456
1755687375.6002574,12.494,-0.291,1.841,2.9346,0.9306,-1.4485,5.482182245693771,81.61998408929206,5.948743718592967,1,0.1,0.6034111606525023,3.4023588537954077,1.0934472361809042,3.4239885893501456
1755687375.6851048,10.93,0.156,5.94,1.8194,-0.0725,0.6086,5.536392929968032,61.48020921368276,6.105929648241207,1,0.1,0.6169733467500845,1.9198610809118455,1.2055276381909545,3.4239885893501456
1755687375.785741,15.1,0.055,-0.787,2.2178,0.4587,1.6002,5.638412602408589,92.98349121292247,6.525025125628143,1,0.1,0.636591937429308,2.7730276900889397,1.2455678391959797,3.4239885893501456
1755687375.8703792,11.686,-0.11,4.296,1.3479,0.4993,3.7843,5.69864103580845,69.81641636529199,6.868140703517589,1,0.1,0.6436873983930399,4.048093550055384,1.3329949748743717,4.048093550055384
1755687375.9554152,9.757,-1.151,0.378,2.5062,0.0422,3.4492,5.740253034492469,87.79665270579953,7.062010050251258,1,0.1,0.6676366220108061,4.263777658368222,1.4494070351758792,4.263777658368222
1755687376.0430818,5.132,-4.174,3.809,1.88,1.7353,3.9447,5.7517120946723335,60.06654030858205,7.526834170854272,1,0.1,0.6807427260353209,4.701736294178992,1.5123417085427133,4.701736294178992
1755687376.1285214,5.635,-5.518,1.338,1.9392,0.5465,2.5921,5.7654972157655235,80.37141018035857,7.577386934673367,1,0.1,0.6944156840466666,3.2830079652659996,1.5182914572864321,4.701736294178992
1755687376.214558,0.27,-5.513,7.326,1.8795,0.3256,2.8764,5.765528826135552,36.99536415729817,8.116582914572865,1,0.1,0.7070189131133622,3.451407331799595,1.5242914572864321,4.701736294178992
1755687376.3012567,-2.159,-6.188,6.107,1.8449,1.1103,0.966,5.767549657350165,47.021240935457946,8.36070351758794,1,0.1,0.7189534223786684,2.3599953601649304,1.5277688442211055,4.701736294178992
1755687376.388167,0.919,-5.037,9.343,1.5156,-0.8552,-0.2157,5.767915728840012,28.72361571553218,8.67005025125628,1,0.1,0.7268969943190026,1.7535497968406828,1.5608643216080402,4.701736294178992
1755687376.4730453,2.566,-3.742,12.967,0.7317,0.5533,-0.3881,5.770768894610145,19.285444953133336,8.835577889447235,1,0.1,0.7287360048741931,0.9960659566514659,1.6396482412060303,4.701736294178992
1755687376.558201,-4.283,-1.35,15.799,-2.0087,-0.0881,-1.8036,5.778710416693331,15.867319915247238,9.52391959798995,1,0.1,0.7424490172732401,2.701038737226847,1.915065326633166,4.701736294178992
1755687376.644545,2.149,-1.245,9.039,-3.5928,-0.4421,-3.3292,5.780708008972604,15.363676755710404,10.17035175879397,1,0.1,0.7847111586118806,4.918052143887863,2.07427135678392,4.918052143887863
1755687376.7346427,2.833,-0.574,7.098,-4.3122,-0.3652,-3.9388,5.784177947643036,22.15794802205257,10.239095477386936,1,0.1,0.8418710985952659,5.851716442207364,2.146572864321608,5.851716442207364
1755687376.8373148,6.708,2.538,2.79,-4.3122,0.037,-4.3167,5.803593787473413,68.7435379560438,10.628542713567839,1,0.1,0.8953894632225688,6.101666717381407,2.146572864321608,6.101666717381407
1755687376.9232755,10.189,0.817,-0.202,-3.4627,0.3239,-4.2949,5.848143248502041,91.13212458817416,10.978391959798994,1,0.1,0.9282638349628838,5.526424568380537,2.2319497487437188,6.101666717381407
1755687377.0115263,15.613,-1.504,-5.808,-3.3842,1.2843,-3.8847,5.951437498621656,110.31876706964081,11.523517587939697,1,0.1,0.9586124323729586,5.309720352334951,2.2398391959798993,6.101666717381407
1755687377.097759,13.133,-3.251,-3.8,-0.0317,0.7834,-0.7581,6.023453058254875,105.68844825677307,11.772763819095475,1,0.1,0.9586150530583171,1.0906126993575675,2.576773869346733,6.101666717381407
1755687377.1828384,9.612,-1.846,-2.925,1.2648,-0.2389,-0.5282,6.061677941378939,106.63855102974742,12.126633165829144,1,0.1,0.9627779677319169,1.3913258029663649,2.707075376884422,6.101666717381407
1755687377.268526,10.105,-1.228,-0.447,2.1767,-2.0198,-0.4173,6.103646007920185,92.51438351488285,12.176180904522612,1,0.1,0.9750033485070705,2.998625388407161,2.798723618090451,6.101666717381407
1755687377.355097,6.755,2.139,11.401,-0.0464,-2.6399,-0.1786,6.122307139877907,31.860413183686326,12.51286432160804,1,0.1,0.97500886888274,2.6463414235506346,3.0221507537688437,6.101666717381407
1755687377.4402134,11.839,-0.846,-8.191,-1.659,0.6414,-2.109,6.179276197096226,124.60979556735893,13.023819095477386,1,0.1,0.9820405793041346,2.758904847942386,3.1842211055276373,6.101666717381407
1755687377.525934,14.618,1.747,-1.816,1.0657,-0.0674,-0.0793,6.265132396047189,97.03206182029794,13.303115577889447,1,0.1,0.9849275515742263,1.0707696951258943,3.4580603015075373,6.101666717381407
1755687377.6112206,5.878,1.267,-0.563,1.3936,-0.1459,-0.1074,6.27890423242782,95.34903562464199,14.181507537688441,1,0.1,0.989844880094856,1.4053264851983684,3.4910150753768834,6.101666717381407
1755687377.6965847,8.114,1.264,6.508,-0.0913,-0.0511,-1.0523,6.3050633097535185,51.60275258416305,14.406231155778896,1,0.1,0.9898659328919245,1.0574886240522874,3.6402512562814064,6.101666717381407
1755687377.781353,10.372,-1.461,-0.364,-1.3102,1.14,-0.895,6.347575541889991,91.9903086174104,14.633165829145726,1,0.1,0.994191976079067,1.9537781450308016,3.7627537688442207,6.101666717381407
1755687377.8839447,9.464,1.951,-1.221,-0.7005,-0.8402,-0.7387,6.382754244054834,97.20162468667328,14.724422110552764,1,0.1,0.9954251285506107,1.3199674162645076,3.824030150753768,6.101666717381407
1755687377.9679465,6.069,-0.274,-2.132,-1.1983,-0.6859,0.4278,6.3971646488893805,109.33780777429833,15.065628140703515,1,0.1,0.9990249251144838,1.4454738115925863,3.874060301507537,6.101666717381407
1755687378.0526624,10.944,3.35,1.832,-0.1744,-2.7692,0.9984,6.443800992038783,80.90600965987876,15.555577889447235,1,0.1,0.9991010348308124,2.948844953536893,3.976964824120602,6.101666717381407
1755687378.137187,8.722,1.106,-1.576,-0.1342,-1.5792,0.674,6.473247843625331,100.16273634019258,15.778894472361808,1,0.1,0.999146098426051,1.722253837272543,3.981005025125628,6.101666717381407
1755687378.222382,8.417,0.62,-2.2,-0.2177,1.1431,0.2666,6.500551291236767,104.61014445159434,15.809547738693464,1,0.1,0.9992646758742151,1.1937949823985692,3.9893969849246225,6.101666717381407
1755687378.308556,10.608,1.538,-2.186,-1.0159,1.7116,0.6016,6.543685155170593,101.52675178253605,16.029748743718592,1,0.1,1.0018433792265136,2.0793147741503692,4.069618090452261,6.101666717381407
1755687378.3933387,10.065,0.86,1.236,-0.7087,0.4676,0.7792,6.582274419606038,83.0241939128638,16.084321608040202,1,0.1,1.0030959250988911,1.1524140271621133,4.100492462311557,6.101666717381407
1755687378.4786444,9.564,3.802,-0.062,-0.4385,-0.084,0.5306,6.616924286630458,90.34515106451363,16.13467336683417,1,0.1,1.0035750326707016,0.6934512311619325,4.12764824120603,6.101666717381407
1755687378.5640986,11.645,0.041,-0.262,-0.1788,2.5276,0.0383,6.667961992993061,91.28886810293434,16.343819095477386,1,0.1,1.003654668399445,2.5342056132050534,4.153748743718592,6.101666717381407
1755687378.6487353,10.58,0.031,0.691,-0.0376,0.2478,-0.0484,6.709798740647889,86.26322648505376,16.450854271356786,1,0.1,1.0036581899232426,0.2552668407764706,4.167939698492462,6.101666717381407
1755687378.7335236,9.383,-0.202,0.853,0.0044,-0.0004,-0.0024,6.742521975121772,84.80676781817282,16.571155778894475,1,0.1,1.0036582381468304,0.005027922035990614,4.1721608040201,6.101666717381407
1755687378.8178213,9.564,-0.187,0.855,0.0104,-0.0042,-0.0103,6.776352489724838,84.89243793892442,16.589346733668343,1,0.1,1.0036585075612123,0.015227934856703321,4.1727638190954774,6.101666717381407
1755687378.920359,9.676,-0.19,0.653,0.0025,0.0056,-0.0006,6.810805968826304,86.13990075402576,16.600603015075375,1,0.1,1.0036585231292563,0.006161980201201559,4.1735577889447235,6.101666717381407
1755687379.0047593,9.655,-0.171,0.824,0.0007,0.0014,0.0001,6.8449377696221605,85.1227088079838,16.602713567839196,1,0.1,1.003658524349791,0.001568438714135812,4.173738693467336,6.101666717381407
1755687379.089996,9.891,-0.175,0.744,0.0049,-0.0032,0.003,6.880576463858243,85.69898879648545,16.62643216080402,1,0.1,1.0036585841559866,0.006576473218982953,4.174160804020099,6.101666717381407
1755687379.1752763,9.676,-0.219,0.777,0.0036,-0.0031,-0.0,6.91451063742041,85.41006898659232,16.648040201005024,1,0.1,1.0036586164378802,0.004750789408087881,4.174291457286431,6.101666717381407
1755687379.2592716,9.788,-0.154,0.734,0.0017,0.001,-0.0008,6.9490633955231695,85.71195749321248,16.65929648241206,1,0.1,1.003658623636543,0.002128379665379276,4.174482412060301,6.101666717381407
1755687379.344091,9.752,-0.187,0.779,0.0045,-0.0012,-0.0032,6.983193366576641,85.43368668675393,16.66291457286432,1,0.1,1.003658674076999,0.005650663677834666,4.174763819095477,6.101666717381407
1755687379.4287863,9.743,-0.067,0.646,0.0044,-0.0011,-0.0004,7.017094829058532,86.20670166760401,16.663819095477383,1,0.1,1.0036587223005637,0.004553020975132884,4.174773869346733,6.101666717381407
1755687379.5146077,9.836,-0.264,0.725,0.0036,-0.0027,0.0004,7.0514788746758645,85.78593095989325,16.673165829145727,1,0.1,1.0036587545824527,0.004517742799230607,4.174854271356783,6.101666717381407
1755687379.5990052,9.717,-0.149,0.689,0.0053,-0.005,-0.0012,7.084875070528767,85.94461109172599,16.685125628140703,1,0.1,1.0036588245514508,0.007384443106964803,4.17502512562814,6.101666717381407
1755687379.684988,9.786,-0.108,0.746,0.0068,-0.0003,0.0028,7.118587201474742,85.64096099694545,16.692060301507535,1,0.1,1.0036589397300262,0.007360027173862879,4.175175879396984,6.101666717381407
1755687379.7698352,9.831,-0.183,0.772,0.0067,-0.003,0.0008,7.152448989681786,85.51071685004806,16.696582914572865,1,0.1,1.0036590515458923,0.007384443106964804,4.175185929648241,6.101666717381407
1755687379.8552659,9.798,-0.101,0.687,0.004,0.0014,0.0005,7.185925867276951,85.98940562021815,16.69989949748744,1,0.1,1.003659091400063,0.004267317658670373,4.17545728643216,6.101666717381407
1755687379.9586468,9.838,-0.173,0.717,0.0031,0.0022,-0.0007,7.219519498553903,85.83225728226344,16.70391959798995,1,0.1,1.0036591153374734,0.0038652296180175377,4.175547738693466,6.101666717381407
1755687380.0426843,9.631,-0.207,0.751,0.0043,-0.0019,0.0013,7.251568285205622,85.54227395590371,16.724723618090454,1,0.1,1.0036591613939465,0.0048774993593028795,4.175668341708541,6.101666717381407
1755687380.127593,9.831,-0.108,0.734,0.0072,-0.0019,0.0016,7.284811967374312,85.73037378238557,16.744824120603017,1,0.1,1.0036592905214399,0.007616429609731846,4.175959798994975,6.101666717381407
1755687380.2114604,9.781,-0.173,0.675,0.0041,-0.0023,0.0014,7.317569624199008,86.05281569324845,16.749849246231157,1,0.1,1.003659332393218,0.004905099387372289,4.17627135678392,6.101666717381407
1755687380.29607,9.724,-0.118,0.805,0.0055,-0.0026,0.002,7.3498031323974935,85.26791489911399,16.75557788944724,1,0.1,1.0036594077424872,0.006403905058634146,4.176412060301508,6.101666717381407
1755687380.3804188,9.843,-0.122,0.82,0.0045,0.0018,-0.0022,7.382684425735668,85.23816759239709,16.76753768844221,1,0.1,1.0036594581829037,0.005322593352868506,4.17651256281407,6.101666717381407
1755687380.4641204,9.69,-0.245,0.668,0.0028,-0.006,0.0012,7.414412305098766,86.05769311544796,16.78291457286432,1,0.1,1.0036594777114398,0.006729041536504289,4.176683417085427,6.101666717381407
1755687380.5494483,9.795,-0.127,0.786,0.0045,-0.0024,0.0028,7.446691879955824,85.4125134501892,16.793467336683417,1,0.1,1.0036595281518528,0.005818075283115542,4.176854271356784,6.101666717381407
1755687380.634617,9.841,-0.161,0.701,0.0057,-0.0079,-0.0004,7.4791340648500215,85.92609813585172,16.798090452261306,1,0.1,1.0036596090806882,0.009749871794028883,4.17697487437186,6.101666717381407
1755687380.720062,9.698,-0.12,0.646,0.0027,-0.0008,0.0012,7.510506133410717,86.18935301777172,16.81246231155779,1,0.1,1.003659627239235,0.0030610455730027933,4.1772763819095475,6.101666717381407
1755687380.80527,9.831,-0.125,0.694,0.0048,-0.0036,0.0001,7.542608645886382,85.96234176440969,16.825829145728644,1,0.1,1.0036596846292074,0.006000833275470999,4.177487437185929,6.101666717381407
1755687380.910267,9.667,-0.226,0.848,0.002,-0.0012,0.0028,7.573519632905166,84.98814551834533,16.842311557788946,1,0.1,1.0036596945927438,0.0036441734316577192,4.177768844221106,6.101666717381407
1755687380.9951174,9.85,-0.144,0.855,0.0037,-0.0082,-0.0012,7.605479086158873,85.03957206506026,16.86070351758794,1,0.1,1.0036597286929472,0.009075791976461339,4.177939698492462,6.101666717381407
1755687381.0790372,9.774,-0.132,0.734,0.0052,-0.0058,-0.0014,7.636816582189203,85.70569904179743,16.868341708542715,1,0.1,1.0036597960464493,0.007914543574963752,4.178090452261307,6.101666717381407
1755687381.163681,9.721,-0.209,0.672,0.0056,0.0004,0.0002,7.667689137869376,86.04641974866979,16.87366834170854,1,0.1,1.0036598741605645,0.005617828762075255,4.178130653266332,6.101666717381407
1755687381.2483132,9.821,-0.127,0.803,0.0004,-0.0075,0.0037,7.6990724714084875,85.3260795416784,16.883718592964822,1,0.1,1.0036598745591059,0.008372574275573792,4.178653266331659,6.101666717381407
1755687381.3331954,9.705,-0.199,0.618,0.0027,-0.0038,-0.0006,7.72959585263033,86.35717299540657,16.895376884422106,1,0.1,1.0036598927176477,0.0047,4.178884422110554,6.101666717381407
1755687381.4171147,9.75,-0.178,0.784,0.0032,-0.0023,-0.0019,7.760281215587487,85.40348567805488,16.899899497487436,1,0.1,1.0036599182242958,0.004374928570845472,4.178934673366835,6.101666717381407
1755687381.5022388,9.729,-0.151,0.751,0.0036,0.0005,0.0008,7.790714456967345,85.58651255457927,16.902010050251253,1,0.1,1.0036599505061463,0.003721558813185679,4.17897487437186,6.101666717381407
1755687381.586775,9.781,-0.125,0.758,0.0029,-0.0039,0.001,7.821353562843199,85.56895580799863,16.907236180904526,1,0.1,1.003659971454476,0.0049618544920221105,4.179045226130654,6.101666717381407
1755687381.6715991,9.926,-0.149,0.729,0.0049,-0.0063,-0.0016,7.852782878381396,85.80001145662553,16.92180904522613,1,0.1,1.0036600312605857,0.008140024569987489,4.17924623115578,6.101666717381407
1755687381.7560015,9.652,-0.195,0.746,0.0048,-0.0026,-0.0028,7.882385708337293,85.5813120393587,16.949346733668342,1,0.1,1.0036600886505351,0.0061351446600711864,4.179256281407036,6.101666717381407
1755687381.8412113,9.726,-0.115,0.656,0.0051,-0.0026,-0.0004,7.912330872442077,86.14162294683605,16.956783919597992,1,0.1,1.0036601534384035,0.005738466694161429,4.179286432160804,6.101666717381407
1755687381.9441102,9.805,-0.173,0.782,0.0051,-0.0022,-0.0004,7.942648799991096,85.44072092260836,16.964723618090453,1,0.1,1.003660218226268,0.005568662316930342,4.179286432160804,6.101666717381407
1755687382.028671,9.752,-0.103,0.689,0.004,-0.0008,-0.0004,7.972526417642027,85.95886879562333,16.97005025125628,1,0.1,1.0036602580803926,0.004098780306383839,4.179396984924623,6.101666717381407
1755687382.1134887,9.829,-0.132,0.713,0.0005,0.0025,-0.0003,8.002763503003196,85.8513789562586,16.977788944723617,1,0.1,1.003660258703113,0.002567099530598687,4.179748743718593,6.101666717381407
1755687382.1970174,9.688,-0.159,0.741,0.0063,0.0009,0.001,8.032030279138644,85.62675612770349,16.991959798994976,1,0.1,1.0036603575662437,0.006442049363362562,4.180331658291457,6.101666717381407
1755687382.2812397,9.85,-0.12,0.734,0.0017,-0.0018,-0.0007,8.062172344039787,85.73863810980832,17.00824120603015,1,0.1,1.0036603647648938,0.002572936066053721,4.180793969849248,6.101666717381407
1755687382.3653207,9.814,-0.264,0.756,0.0029,-0.0007,-0.0004,8.091983433312256,85.5966310691859,17.01185929648241,1,0.1,1.0036603857132154,0.003009983388658482,4.180914572864322,6.101666717381407
1755687382.450596,9.729,-0.137,0.694,0.0039,-0.0022,0.0038,8.121173750757952,85.92022712387153,17.020402010050248,1,0.1,1.0036604235995361,0.00587281874401041,4.1810150753768855,6.101666717381407
1755687382.5361326,9.833,-0.163,0.76,0.0031,-0.0027,0.001,8.150883543211743,85.58095742795454,17.03085427135678,1,0.1,1.0036604475369146,0.004230839160261236,4.181095477386934,6.101666717381407
1755687382.6200845,9.669,-0.243,0.696,0.0075,-0.0027,0.0025,8.1795079521937,85.88409583458304,17.047336683417083,1,0.1,1.0036605876490319,0.008354040938372281,4.181537688442211,6.101666717381407
1755687382.7057567,9.767,-0.144,0.627,0.0049,-0.0011,-0.0019,8.208612658969846,86.32729208253393,17.05718592964824,1,0.1,1.0036606474551046,0.00536935750346352,4.181798994974875,6.101666717381407
1755687382.7904396,9.798,-0.161,0.701,0.0061,-0.0043,-0.0018,8.23779860187174,85.90828459652924,17.060301507537684,1,0.2,1.0036607401408109,0.007677239087067695,4.181919597989951,6.101666717381407
1755687382.875003,9.698,-0.163,0.668,0.0047,-0.0004,0.001,8.266291902963506,86.06023472350836,17.07035175879397,1,0.2,1.0036607951643823,0.004821825380496477,4.182060301507538,6.101666717381407
1755687382.977354,9.874,-0.147,0.729,0.0052,-0.0028,0.0013,8.295725477919337,85.77796483022,17.088040201005022,1,0.2,1.0036608625178127,0.006047313453096341,4.182110552763819,6.101666717381407
1755687383.0615034,9.674,-0.168,0.672,0.0029,-0.0026,0.0001,8.32388086081246,86.02695509696312,17.108140703517588,1,0.2,1.0036608834661238,0.0038961519477556314,4.182341708542714,6.101666717381407
1755687383.1454613,9.712,-0.118,0.76,0.0084,-0.0031,-0.0003,8.352161834219928,85.52584028020296,17.111959798994977,1,0.2,1.003661059222684,0.008958794561770015,4.18289447236181,6.101666717381407
1755687383.2287917,9.709,-0.161,0.715,0.0036,0.001,0.0037,8.380329988132925,85.78874614415186,17.112261306532663,1,0.2,1.003661091504498,0.005258326730053962,4.1833768844221115,6.101666717381407
1755687383.3133125,9.75,-0.159,0.665,0.0016,-0.0026,-0.0006,8.408640984725178,86.098693995402,17.11638190954774,1,0.2,1.0036610978811522,0.003111269837220809,4.183577889447236,6.101666717381407
1755687383.3982773,9.907,-0.192,0.751,0.0033,-0.0004,0.0026,8.43777141519015,85.665795870462,17.132160804020103,1,0.2,1.0036611250068421,0.0042201895692018385,4.183748743718594,6.101666717381407
1755687383.4832625,9.712,-0.178,0.703,0.0049,0.002,-0.0032,8.465671926964806,85.86057686194029,17.151758793969847,1,0.2,1.003661184812883,0.00618465843842649,4.183909547738693,6.101666717381407
1755687383.5678444,9.786,-0.11,0.796,0.0063,-0.0027,0.0028,8.493905471277627,85.35005195359696,17.1591959798995,1,0.2,1.0036612836759222,0.007404052944165108,4.184050251256282,6.101666717381407
1755687383.652874,9.793,-0.161,0.694,0.0061,-0.0014,0.0029,8.522085683680961,85.94694580501293,17.159899497487437,1,0.2,1.0036613763615694,0.006897825744392214,4.184070351758794,6.101666717381407
1755687383.7384977,9.743,-0.137,0.82,0.01,-0.0012,0.0016,8.549887405398973,85.18962694027421,17.164924623115578,1,0.2,1.0036616254495336,0.01019803902718557,4.184462311557789,6.101666717381407
1755687383.824168,9.841,-0.154,0.801,0.0008,-0.0074,-0.0012,8.578158371701935,85.34728282160337,17.174773869346733,1,0.2,1.0036616270436964,0.007539230729988306,4.1853869346733665,6.101666717381407
1755687383.9088674,9.676,-0.122,0.694,-0.0033,0.002,0.0006,8.60540097438812,85.89787601638768,17.1913567839196,1,0.2,1.003661654169372,0.003905124837953327,4.185798994974875,6.101666717381407
1755687384.0099635,9.757,-0.156,0.703,0.0008,0.0065,0.0013,8.633013446937287,85.87943750730365,17.199497487437185,1,0.2,1.0036616557635347,0.006676825593049439,4.186211055276382,6.101666717381407
1755687384.0945196,9.686,-0.19,0.765,0.0041,-0.0091,0.0026,8.660139384270902,85.4850200945862,17.206633165829146,1,0.2,1.003661697635214,0.010314068062602651,4.18654271356784,6.101666717381407
1755687384.1796405,9.821,-0.094,0.66,0.0009,-0.0042,-0.0018,8.687938441310457,86.15551200881902,17.220201005025125,1,0.2,1.0036616996528263,0.004657252408878007,4.18686432160804,6.101666717381407
1755687384.2637131,9.738,-0.211,0.808,-0.0015,-0.0019,-0.0014,8.715183163881298,85.25791792582339,17.22854271356784,1,0.2,1.0036617052573042,0.0027964262908219124,4.187105527638191,6.101666717381407
1755687384.3477826,9.829,-0.113,0.715,0.0052,-0.0043,0.0021,8.74285215390264,85.83968281098532,17.237688442211056,1,0.2,1.003661772610674,0.007066823897621901,4.187778894472362,6.101666717381407
1755687384.4325886,9.867,-0.101,0.744,0.0025,-0.0014,-0.0003,8.770647195617892,85.68811944701578,17.241507537688445,1,0.2,1.0036617881786674,0.002880972058177587,4.188050251256281,6.101666717381407
1755687384.517977,9.681,-0.161,0.744,-0.0025,0.0005,-0.0011,8.797321242003159,85.60597311590826,17.260201005025127,1,0.2,1.0036618037466605,0.002776688675382964,4.188552763819096,6.101666717381407
1755687384.602944,9.852,-0.12,0.732,0.0012,0.0014,0.0001,8.82486093686467,85.75106629138804,17.27738693467337,1,0.2,1.003661807333526,0.0018466185312619387,4.188924623115577,6.101666717381407
1755687384.687461,9.752,-0.154,0.796,-0.0015,-0.0002,-0.0014,8.851761297899984,85.33419723270903,17.28743718592965,1,0.2,1.0036618129380035,0.00206155281280883,4.189195979899496,6.101666717381407
1755687384.7721195,9.821,-0.067,0.734,0.0037,-0.0052,0.0041,8.878960427887941,85.72588459249238,17.294371859296486,1,0.2,1.0036618470381347,0.007585512507405153,4.189718592964824,6.101666717381407
1755687384.8564446,9.738,-0.154,0.679,0.0063,0.0001,0.0013,8.905620781281897,86.0118988249476,17.302713567839195,1,0.2,1.0036619459011087,0.006433506042586733,4.189979899497487,6.101666717381407
1755687384.9595184,9.731,-0.151,0.767,0.0024,-0.0044,0.0004,8.932163416832454,85.49378924637627,17.303417085427135,1,0.2,1.0036619602485688,0.005027922035990614,4.190371859296483,6.101666717381407
1755687385.0440483,9.955,-0.098,0.758,0.0048,0.0024,0.0002,8.95985789117216,85.64596004877471,17.325929648241207,1,0.2,1.003662017638408,0.005370288632839021,4.190613065326633,6.101666717381407
1755687385.1282403,9.655,-0.216,0.575,0.0067,-0.0012,0.002,8.985830432130355,86.59264689131646,17.35608040201005,1,0.2,1.0036621294539312,0.007094363960215179,4.190804020100503,6.101666717381407
1755687385.2122183,9.85,-0.115,0.715,0.0019,-0.0058,-0.0012,9.012783202485235,85.8485300344153,17.3756783919598,1,0.2,1.0036621384460012,0.006220128616033594,4.191286432160804,6.101666717381407
1755687385.3108943,9.736,-0.183,0.763,0.0059,-0.0092,-0.0004,9.039038086820964,85.5197373993273,17.38713567839196,1,0.2,1.0036622251534626,0.01093663568013491,4.191688442211055,6.101666717381407
1755687385.3966455,9.702,-0.149,0.801,-0.0013,0.0029,-0.0034,9.065034669266302,85.2809013540248,17.390552763819098,1,0.2,1.0036622293630462,0.004654030511288038,4.192412060301507,6.101666717381407
1755687385.4815593,9.764,-0.171,0.791,0.0055,0.0008,-0.0006,9.091288799449723,85.369182637387,17.39678391959799,1,0.2,1.0036623047120978,0.005590169943749474,4.193095477386934,6.101666717381407
1755687385.566118,9.738,-0.185,0.736,-0.0032,0.0088,0.0005,9.117328295888,85.67856777543709,17.39939698492462,1,0.2,1.0036623302186847,0.00937709976485267,4.193969849246232,6.101666717381407
1755687385.6500123,9.869,-0.135,0.696,0.0027,0.0022,-0.0014,9.143995902230053,85.96633551985227,17.412562814070352,1,0.2,1.003662348377182,0.003753664875824692,4.194562814070352,6.101666717381407
1755687385.7341335,9.676,-0.202,0.777,0.0055,-0.0012,0.0017,9.169557565117303,85.4098943809919,17.431959798994974,1,0.2,1.0036624237262248,0.005880476171195663,4.1948442211055275,6.101666717381407
1755687385.818333,9.724,-0.132,0.81,0.0017,-0.005,-0.0004,9.19530134470861,85.23874548148123,17.436783919597985,1,0.2,1.0036624309248603,0.005296225070746144,4.195226130653267,6.101666717381407
1755687385.9033215,9.76,-0.214,0.786,-0.0004,0.0052,-0.0,9.22116342008968,85.3968493294433,17.44040201005025,1,0.2,1.0036624313234006,0.005215361924162118,4.195437185929648,6.101666717381407
1755687386.0170872,9.757,-0.178,0.708,0.0089,-0.0047,0.0005,9.246937334328594,85.85039208439049,17.440703517587938,1,0.5,1.0036626286257748,0.0100772019926168,4.196371859296482,6.101666717381407
1755687386.1026223,9.855,-0.228,0.706,0.0023,-0.006,0.0034,9.273157778772019,85.90349394263737,17.450552763819093,1,0.5,1.0036626418025132,0.007269800547470336,4.197035175879397,6.101666717381407
1755687386.187229,9.562,-0.142,0.684,0.0048,-0.0042,0.0008,9.297774702045645,85.90887121539765,17.48,1,0.5,1.0036626991923134,0.006428063471995279,4.197286432160803,6.101666717381407
1755687386.2739484,9.903,-0.106,0.722,0.0068,-0.0055,0.0008,9.324106469522963,85.83034102972982,17.51427135678392,1,0.5,1.0036628143704438,0.008782368700982668,4.197487437185929,6.101666717381407
1755687386.3586552,9.643,-0.149,0.805,0.0041,-0.0043,0.001,9.34900522515631,85.2285659907602,17.54040201005025,1,0.5,1.0036628562420749,0.006024948132556827,4.197758793969848,6.101666717381407
1755687386.444141,9.76,-0.125,0.739,0.0036,-0.0043,0.0045,9.374443274136336,85.6703391659045,17.552160804020097,1,1.0,1.003662888523831,0.0071902712048990194,4.197809045226131,6.101666717381407
1755687386.530232,9.833,-0.19,0.827,0.0085,-0.006,-0.0008,9.400192878074364,85.19337165965985,17.559497487437188,1,1.0,1.0036630684896202,0.010435037134576953,4.198301507537688,6.101666717381407
1755687386.614366,9.748,-0.149,0.789,0.0097,-0.0016,0.0022,9.42543068856803,85.37312356585038,17.568040201005026,1,1.0,1.0036633028560922,0.010074224535913423,4.198422110552764,6.101666717381407
1755687386.6989791,9.843,-0.137,0.805,0.0101,-0.009,-0.0018,9.45109342404359,85.32497789384811,17.577587939698493,1,1.0,1.0036635569502361,0.013647344063956181,4.198462311557789,6.101666717381407
1755687386.7835124,9.566,-0.269,0.603,0.0057,0.01,-0.0027,9.475268264803905,86.39451127362331,17.605427135678394,1,1.0,1.0036636378787467,0.011822859214251009,4.1989045226130655,6.101666717381407
1755687386.8724992,9.798,-0.084,0.739,0.0056,-0.0192,0.0014,9.500563810111482,85.68687312231647,17.628743718592965,1,1.0,1.003663715992563,0.020048940121612412,4.198914572864321,6.101666717381407
1755687386.95842,9.712,-0.166,0.713,0.0088,-0.0127,0.0042,9.525351827098042,85.80181213924644,17.63738693467337,1,1.0,1.0036639088858381,0.016011558325159984,4.199236180904522,6.101666717381407
1755687387.059371,9.79,-0.173,0.808,0.0023,-0.0035,0.0005,9.550473701864217,85.28262273290774,17.645226130653267,1,1.1,1.0036639220625598,0.004217819341792628,4.19988944723618,6.101666717381407
1755687387.1447477,9.824,-0.125,0.682,-0.0004,0.0029,-0.0004,9.575703776224492,86.02911429023558,17.6486432160804,1,1.1,1.0036639224610995,0.0029546573405388314,4.200160804020101,6.101666717381407
1755687387.229177,9.681,-0.221,0.763,-0.0071,0.0048,-0.0008,9.600141228909083,85.49476485257058,16.67829145728643,1,1.0,1.0036640480260315,0.008607554821202127,4.196321608040201,6.101666717381407
1755687387.3134866,9.924,-0.041,0.72,0.0047,-0.0022,0.0016,9.600788325705343,85.85041740775281,16.666934673366832,1,1.0,1.0036590814116115,0.005430469592954186,4.1817788944723615,6.101666717381407
1755687387.398453,9.688,-0.228,0.675,0.0028,-0.0101,0.0021,9.602013662508506,86.01552461948542,16.64964824120603,1,1.0,1.0036280775765491,0.010689246933250254,4.174834170854271,6.101666717381407
1755687387.4838507,9.814,-0.149,0.772,-0.0009,0.0068,-0.0019,9.60182934940004,85.50271261223146,16.599497487437187,1,1.0,1.0036239735827357,0.007117583859709698,4.1724221105527635,6.101666717381407
1755687387.5680518,9.821,-0.132,0.765,-0.0061,0.0114,-0.0027,9.604784429387262,85.54637929540188,16.467839195979902,1,1.0,1.003623651749001,0.013208330704521294,4.166160804020101,6.101666717381407
1755687387.652904,9.707,-0.178,0.772,0.008,-0.0075,0.0056,9.600382511129439,85.45358518288498,16.374070351758796,1,1.0,1.0036163851542081,0.012313001258832064,4.163899497487438,6.101666717381407
1755687387.7405374,9.845,-0.089,0.784,0.0079,-0.0024,0.0005,9.602145039521117,85.44708258865765,16.368743718592967,1,1.0,1.0036157335355,0.008271638289964087,4.162231155778894,6.101666717381407
1755687387.8244536,9.712,-0.178,0.77,-0.0019,0.0061,-0.0023,9.60227634990787,85.46763834043402,16.34572864321608,1,1.0,1.0036157383182072,0.006790434448545984,4.162311557788945,6.101666717381407
1755687387.9093337,9.833,-0.18,0.739,-0.0012,-0.001,-0.0014,9.601163420388177,85.70272772265275,16.322914572864324,1,1.0,1.0036154776357327,0.002097617696340303,4.161758793969849,6.101666717381407
1755687387.9954455,9.79,-0.168,0.71,0.0015,-0.0043,0.0002,9.601620151047426,85.85260973540368,16.30040201005025,1,1.0,1.0036154413668614,0.004558508528016592,4.16164824120603,6.101666717381407
1755687388.098361,9.774,-0.187,0.627,0.0044,-0.0035,0.0014,9.603325333445703,86.33018722558688,16.247638190954774,1,1.0,1.0036153341295657,0.00579396237474839,4.161296482412061,6.101666717381407
1755687388.1825323,9.819,-0.115,0.756,0.0032,0.0029,-0.0003,9.602526640681608,85.59757942350133,16.190854271356784,1,1.0,1.0036148502538211,0.004328972164382673,4.161256281407036,6.101666717381407
1755687388.2673948,9.676,-0.175,0.713,0.0028,-0.0052,0.0013,9.60407310910324,85.7863221086575,16.156582914572866,1,1.0,1.0036142400344865,0.006047313453096341,4.160351758793969,6.101666717381407
1755687388.3525074,9.817,-0.127,0.677,0.0008,-0.0014,-0.0035,9.603914421213883,86.05534310448229,16.164824120603015,1,1.0,1.0036141363840985,0.003853569773599539,4.160502512562814,6.101666717381407
1755687388.4368267,9.931,-0.091,0.725,0.0064,-0.0054,-0.0007,9.604038357378629,85.82477643379461,16.141809045226132,1,1.0,1.0036141487394445,0.008402975663418287,4.160984924623116,6.101666717381407
1755687388.5220008,9.667,-0.207,0.813,0.0079,-0.0042,-0.001,9.604553958149229,85.1938026492399,16.142010050251255,1,1.0,1.0036142368460106,0.009002777349240623,4.160140703517588,6.101666717381407
1755687388.6073916,9.862,-0.139,0.744,-0.0036,0.0044,-0.0006,9.604738443861967,85.68614328396743,16.153768844221105,1,1.0,1.003614214103208,0.005716642371182581,4.160844221105528,6.101666717381407
1755687388.6919897,9.779,-0.159,0.758,0.0011,0.0006,-0.0027,9.604896004642633,85.56827613936079,16.155879396984925,1,1.0,1.0036140062793066,0.0029765752132274435,4.1607135678391955,6.101666717381407
1755687388.7769911,9.729,-0.132,0.689,0.0011,0.001,-0.0011,9.605113298915324,85.94949343650896,16.149447236180904,1,1.0,1.0036139837855989,0.001849324200890693,4.159316582914572,6.101666717381407
1755687388.861899,9.876,-0.139,0.77,0.0064,-0.0035,0.0038,9.605502504554355,85.54229064443338,16.16321608040201,1,1.0,1.003613357424063,0.008224962005991274,4.159527638190955,6.101666717381407
1755687388.9472415,9.705,-0.204,0.682,0.0035,0.0024,-0.0028,9.604969182147332,85.98114358216972,16.169547738693467,1,1.0,1.003612906652759,0.005084289527554464,4.157768844221106,6.101666717381407
1755687389.0324502,9.943,-0.159,0.675,0.0112,-0.0067,0.0012,9.606201393631096,86.1168177445891,16.19065326633166,1,1.0,1.0036131138790485,0.013106105447462263,4.156391959798995,6.101666717381407
1755687389.1319745,9.702,-0.211,0.846,0.0055,-0.0062,0.0009,9.606342584719744,85.01767057568532,16.195477386934673,1,1.0,1.0036126362048259,0.008336666000266533,4.155517587939698,6.101666717381407
1755687389.2160153,9.8,-0.118,0.717,0.0068,-0.0038,-0.0003,9.605999656985212,85.81581161632899,16.193065326633167,1,1.0,1.0036127507659516,0.007795511529078768,4.15548743718593,6.101666717381407
1755687389.301099,9.807,-0.197,0.753,0.0011,0.0001,-0.0004,9.606315137970439,85.61021865435328,16.1721608040201,1,1.0,1.0036127507659516,0.001174734012447073,4.153085427135679,6.101666717381407
1755687389.3864412,9.771,-0.149,0.717,0.0031,0.0006,-0.0031,9.605344592204904,85.8036204113457,16.122110552763818,1,1.0,1.00361075138721,0.004424929377967517,4.1529547738693475,6.101666717381407
1755687389.4700458,9.8,-0.089,0.751,0.0043,0.0018,-0.0011,9.601678215551695,85.6180171875151,16.014572864321607,1,1.0,1.0036092155565333,0.004789572005931219,4.149608040201005,6.101666717381407
1755687389.554136,9.647,-0.238,0.758,0.0001,-0.0002,-0.0007,9.602927547107706,85.50865306428994,16.01226130653266,1,1.0,1.0036003373604454,0.0007348469228349534,4.1493366834170855,6.101666717381407
1755687389.638005,9.907,-0.135,0.67,0.0112,-0.0026,0.001,9.604631201404873,86.13139598631724,16.038190954773867,1,1.0,1.0035937052164088,0.011541230437002807,4.146221105527639,6.101666717381407
1755687389.7226055,9.626,-0.19,0.739,0.0095,-0.0018,0.0004,9.604915985577385,85.61079451242753,16.02402010050251,1,1.0,1.0035936448334057,0.009677293009927932,4.1449447236180905,6.101666717381407
1755687389.808124,9.812,-0.118,0.741,0.0109,-0.0016,-0.0023,9.608197009064709,85.68154476572577,16.037688442211053,1,1.0,1.0035939066923434,0.011254332499086741,4.143316582914573,6.101666717381407
1755687389.893153,9.771,-0.132,0.725,0.0041,-0.0023,-0.0003,9.611029493503805,85.75686319693527,16.03869346733668,1,1.1,1.0035934672714844,0.004710626285325551,4.142291457286433,6.101666717381407
1755687389.9785523,9.683,-0.106,0.729,0.0063,-0.0031,0.0002,9.613563990009116,85.6947757566203,16.019798994974874,1,1.1,1.0035911876605932,0.007024243731534378,4.1392060301507545,6.101666717381407
1755687390.0814884,9.852,-0.086,0.691,0.0069,-0.0079,-0.0015,9.61562089986913,85.98810876671571,16.01356783919598,1,1.1,1.0035912962954592,0.010595753866525968,4.138914572864322,6.101666717381407
1755687390.1662877,9.616,-0.178,0.756,0.0101,-0.0044,-0.0011,9.617603129938352,85.50547821479962,16.02462311557789,1,1.1,1.0035915448029642,0.011071585252347561,4.138994974874373,6.101666717381407
1755687390.2506082,9.891,-0.055,0.791,0.0057,-0.001,0.0022,9.6203716937029,85.42776077783361,16.034070351758793,1,1.1,1.0035916237195286,0.006191122676865643,4.138341708542714,6.101666717381407
1755687390.335143,9.678,-0.202,0.732,0.0076,-0.0058,0.0033,9.622926179962102,85.67558104171151,16.036381909547735,1,1.1,1.0035915184974413,0.010113851887386921,4.1378391959798995,6.101666717381407
1755687390.4193525,9.726,-0.135,0.741,0.0021,0.0001,0.0001,9.626616117047568,85.64361035913528,16.00190954773869,1,1.1,1.0035915055439637,0.0021047565179849186,4.137125628140704,6.101666717381407
1755687390.5043497,9.676,-0.144,0.736,0.0043,-0.0028,0.006,9.628192743189139,85.65068167625428,15.951055276381908,1,1.1,1.0035913267859582,0.007894935085230278,4.134994974874372,6.101666717381407
1755687390.5887191,9.86,-0.103,0.708,0.0056,-0.006,-0.0016,9.63332266121093,85.893133204806,15.862914572864321,1,1.1,1.0035909236088176,0.008361817984146749,4.133547738693468,6.101666717381407
1755687390.6727514,9.662,-0.243,0.758,0.0028,0.0008,0.0009,9.63230925038228,85.51565057709585,15.827738693467335,1,1.1,1.003588760573772,0.0030479501308256344,4.13132663316583,6.101666717381407
1755687390.757504,9.802,-0.163,0.668,0.0003,0.0046,-0.0016,9.634730122582573,86.10189480541855,15.701608040201002,1,1.1,1.0035887057704467,0.0048795491595023405,4.128311557788945,6.101666717381407
1755687390.842318,9.762,-0.142,0.746,-0.0012,0.0006,-0.0022,9.643181785593384,85.63048109363672,15.456683417085426,1,1.0,1.0035852621227555,0.002576819745345025,4.127859296482412,6.101666717381407
1755687390.926624,9.819,-0.135,0.713,0.0027,0.0036,-0.0024,9.640157398870622,85.84718658320516,15.431055276381908,1,1.0,1.0035806313396047,0.0051,4.12065326633166,6.101666717381407
1755687391.0116823,9.826,-0.127,0.632,0.0025,-0.0054,0.0016,9.638825176078255,86.32015976130253,15.371859296482413,1,1.1,1.0035780318689722,0.006161980201201559,4.116140703517589,6.101666717381407
1755687391.1147196,9.581,-0.197,0.656,0.0079,-0.009,-0.0026,9.639285132207679,86.08396241278315,15.360603015075375,1,1.1,1.0035632251383069,0.012254386969571346,4.115015075376885,6.101666717381407
1755687391.198772,9.874,-0.115,0.71,0.0049,0.0013,0.0001,9.639433443672921,85.88744541956432,15.365929648241204,1,1.1,1.0035412262832055,0.0050705029336348875,4.0934572864321614,6.101666717381407
1755687391.284151,9.752,-0.144,0.789,-0.0032,0.003,-0.0002,9.640171394223238,85.37497724560356,15.304723618090451,1,1.1,1.0032993427935653,0.004390899680020029,4.078663316582914,6.101666717381407
1755687391.3687649,9.719,-0.142,0.893,0.0071,-0.0024,0.0017,9.636961908973179,84.75085316167483,15.272060301507537,1,1.0,1.0032385931821004,0.00768505042273634,4.07940703517588,6.101666717381407
1755687391.4538746,9.838,-0.178,0.753,0.0031,-0.007,-0.0035,9.63240145939734,85.62383132590199,15.144623115577888,1,1.0,1.0031754580829815,0.008417838202293984,4.060231155778895,6.101666717381407
1755687391.5387878,9.748,-0.178,0.744,0.004,0.0046,-0.0046,9.634582199036966,85.63618064318432,14.979999999999997,1,1.0,1.0028631510330808,0.007636753236814713,3.9818592964824124,6.101666717381407
1755687391.623554,9.843,-0.13,0.637,0.0028,0.0024,-0.0023,9.628122416650092,86.29752948390292,14.691457286432163,1,1.0,0.9996483473952228,0.004346262762420146,3.908582914572864,6.101666717381407
1755687391.708464,9.681,-0.147,0.675,0.0071,-0.0039,-0.0,9.635549090217951,86.01201060346244,14.690753768844221,1,1.0,0.9909116739144816,0.008100617260431455,3.877427135678393,6.101666717381407
1755687391.7921512,9.845,-0.106,0.691,0.0048,-0.0054,0.0024,9.643085770384912,85.9853450306768,14.539798994974872,1,1.1,0.9788561274518334,0.007613146524269712,3.8662512562814073,6.101666717381407
1755687391.877073,9.755,-0.187,0.746,0.0053,0.0021,0.0045,9.656549455162542,85.62769714615581,14.413467336683418,1,1.1,0.9653366249656127,0.007262919523166975,3.854422110552764,6.101666717381407
1755687391.9615488,9.781,-0.115,0.72,0.0008,0.0049,-0.0007,9.665078084526787,85.79022044676438,14.37819095477387,1,1.1,0.9501632479211137,0.00501398045468867,3.7522713567839197,6.101666717381407
1755687392.046844,9.838,-0.197,0.717,0.0031,-0.0014,-0.0006,9.672308282928125,85.83244772882726,14.380603015075376,1,1.2000000000000002,0.9450652653124015,0.0034539832078341087,3.742753768844221,6.101666717381407
1755687392.1467226,9.752,-0.161,0.729,0.0051,-0.0031,-0.0015,9.67895623685736,85.7254490792939,14.304623115577888,1,1.2000000000000002,0.9391970792650496,0.006153860576906175,3.7319497487437188,6.101666717381407
1755687392.231535,9.888,-0.118,0.689,0.0071,-0.0039,-0.0002,9.689725522944393,86.01433160356835,13.781306532663315,1,1.2000000000000002,0.9323871234363976,0.008103085831953159,3.654753768844222,6.101666717381407
1755687392.3155956,9.69,-0.183,0.739,0.0033,-0.006,0.002,9.671464041705372,85.63960043139217,13.707839195979897,1,1.2000000000000002,0.917245582137085,0.0071337227308047235,3.5257989949748745,6.101666717381407
1755687392.4000432,9.788,-0.079,0.703,0.0067,0.0005,-0.0006,9.659610366106905,85.89205333890533,13.421708542713569,1,1.2000000000000002,0.9140622747931346,0.006745368781616022,3.4306231155778897,6.101666717381407
1755687392.4846547,9.74,-0.192,0.741,0.0041,-0.0048,-0.001,9.663403165810687,85.6502724186938,13.333567839195979,1,1.2000000000000002,0.9027188743180237,0.006391400472509918,3.3379095477386937,6.101666717381407
1755687392.5694637,5.663,-1.096,-8.348,-2.6101,-0.2793,0.3913,9.655010294401555,145.3573140272994,13.55326633165829,1,1.2000000000000002,0.8973825748531113,2.654005687635202,3.5906130653266333,6.101666717381407
1755687392.654367,5.871,-0.978,-9.419,-0.9864,0.3165,0.4938,9.654173656507325,147.71105639765227,13.368542713567837,1,1.2000000000000002,0.8771493653876744,1.1476043089845909,3.695386934673367,6.101666717381407
1755687392.7390811,8.896,-2.396,-7.937,0.7353,-0.4186,1.0276,9.657313813374813,130.74485657999918,13.493366834170855,1,1.2000000000000002,0.8638472881244693,1.3311099916986575,3.8321005025125627,6.101666717381407
1755687392.8240335,5.148,-1.365,-5.563,0.1519,-0.2131,0.9415,9.638429063130568,136.2474292514895,13.616281407035176,1,1.3,0.8532593821341784,0.9771936706712748,3.788050251256281,6.101666717381407
1755687392.9092457,5.921,-2.703,-6.851,-0.4066,-1.0932,0.4899,9.606982139569118,136.46727146774774,13.53678391959799,1,0.1,0.8281417784413486,1.2650738357898326,3.732100502512562,6.101666717381407
1755687392.9956844,6.77,-2.386,-7.041,-0.4377,-0.6486,0.5098,9.58780192901376,134.44735768403885,13.203015075376884,1,0.1,0.8186730909526708,0.9338946889237565,3.6951859296482406,6.101666717381407
1755687393.080682,5.365,-2.538,-7.309,-0.3866,0.3617,0.232,9.535712451358838,140.92279014736008,13.001105527638192,1,0.1,0.803977452078104,0.5780228801699808,3.612894472361809,6.101666717381407
1755687393.1805134,5.828,-1.992,-6.86,-0.1845,0.0539,0.1031,9.508776309021052,138.08194177748015,12.853768844221106,1,0.1,0.7984145368478708,0.2181171015761946,3.5167939698492456,6.101666717381407
1755687393.2646692,6.345,-2.329,-6.304,-0.1869,0.5317,0.1995,9.49432076427798,133.00538048954078,12.440904522613067,1,0.1,0.7786110957981526,0.5978601425082625,3.4541005025125626,6.101666717381407
1755687393.350014,6.267,-2.665,-8.771,0.1021,1.7508,0.1015,9.497726891209286,142.173015129063,12.398190954773868,1,0.1,0.7672127218379529,1.7567092246584237,3.4771959798994967,6.101666717381407
1755687393.4348862,7.487,-2.168,-5.432,0.1932,3.669,-0.022,9.504121517531223,124.87244741380876,11.981608040201007,1,0.1,0.7549831180562914,3.6741490497800986,3.4803517587939696,6.101666717381407
1755687393.5192297,8.794,-2.177,-3.952,0.4113,4.3774,-0.2208,9.52442300089617,113.56823653460407,11.868844221105528,1,0.1,0.7437625600620132,4.402221154144803,3.4987939698492463,6.101666717381407
1755687393.6041727,9.242,-2.797,-1.692,0.6199,4.3774,-0.1938,9.545595838657741,99.9389406556311,11.604522613065328,1,0.1,0.7335433496051886,4.425320916046655,3.4866633165829146,6.101666717381407
1755687393.688551,8.179,-1.886,1.692,0.6102,4.3774,-0.3738,9.562879133137676,78.60297036222165,11.545829145728643,1,0.1,0.7269541589054979,4.4355046206717,3.4088542713567835,6.101666717381407
1755687393.7729895,8.911,-2.033,3.227,0.3284,3.6073,-0.0852,9.581897783842196,70.55367178585361,10.931055276381908,1,0.1,0.7254823619496203,3.6232194095859,3.161758793969849,6.101666717381407
1755687393.8579168,7.573,-2.437,5.444,0.31,2.5892,-0.4879,9.592069450332394,55.61576781623597,10.419095477386932,1,0.1,0.711780007481244,2.6529423382350394,3.004402010050251,6.101666717381407
1755687393.9425159,7.769,-1.725,6.242,0.2149,1.3692,-0.2877,9.606585873243418,51.89120801787406,10.37005025125628,1,0.1,0.6650718982937108,1.415507661582939,2.9416582914572857,6.101666717381407
1755687394.0269744,7.456,-1.783,7.169,0.113,1.0068,-0.1369,9.618956407791856,46.919640778474616,10.012060301507535,1,0.1,0.5911083916677211,1.02232912997723,2.951899497487437,6.101666717381407
1755687394.129481,6.827,-1.608,6.727,0.0534,0.7338,0.007,9.619375016080825,46.1957712562653,9.725427135678391,1,0.1,0.5064069947186749,0.7357737423963973,2.8725125628140704,5.526424568380537
1755687394.213592,6.527,-1.622,7.509,0.1207,0.4486,-0.0339,9.60345280302871,41.84956877976715,9.21045226130653,1,0.1,0.4433615119741451,0.46578928712455375,2.8713869346733665,5.309720352334951
1755687394.2981477,6.665,-1.528,7.818,0.0298,0.0403,0.0337,9.551418115651728,41.174133595685944,8.975075376884423,1,0.1,0.37324231043653133,0.06039718536488269,2.5435879396984924,4.4355046206717
1755687394.38275,6.553,-1.61,7.297,0.1135,0.0082,-0.0697,9.517453368417415,42.76102508857459,8.632462311557788,1,0.1,0.37332185724921063,0.13344504486866493,2.4216984924623115,4.4355046206717
1755687394.4673634,6.465,-1.533,7.219,0.0512,-0.3467,-0.0164,9.504154198296659,42.62604337511988,8.591758793969849,1,0.1,0.36246892432317557,0.3508436831410821,2.336311557788945,4.4355046206717
1755687394.5514016,6.934,-1.463,7.005,0.0581,-0.3021,-0.0521,9.489931173617647,45.332013452501066,8.30221105527638,1,0.1,0.3281927554045031,0.3120167142958851,2.113577889447236,4.4355046206717
1755687394.6361125,9.855,-0.932,2.367,-0.261,-2.5799,-0.6202,9.503486132993512,76.55218159588863,8.084824120603013,1,0.1,0.3286948811588036,2.6662057403733868,1.9835778894472362,4.4355046206717
1755687394.71999,10.036,-0.56,1.205,-0.4455,-3.2788,-0.5585,9.493105158745479,83.16393264744462,7.823718592964824,1,0.1,0.30866044636460954,3.3557297179600147,1.728281407035176,4.4355046206717
1755687394.8049982,10.737,-0.399,-0.62,-0.6363,-2.9123,0.2335,9.467155421772688,93.30255729701258,7.015778894472361,1,0.1,0.3026831299395459,2.9901323097816257,1.7145025125628142,4.4355046206717
1755687394.8891747,10.246,-0.601,-1.951,-0.4634,-0.192,0.9175,9.48573560352596,100.76289076645881,6.840402010050251,1,0.1,0.28806278855485656,1.0456623785907189,1.582643216080402,4.4355046206717
1755687394.9741929,10.062,-0.795,-0.78,-0.344,0.4883,1.9754,9.495062621173174,94.41895184947333,6.631959798994976,1,0.1,0.2890158675574751,2.063729161009264,1.472140703517588,4.4355046206717
1755687395.058409,9.45,-2.122,-1.26,-0.3901,0.0262,2.5464,9.490249457206064,97.41219815265922,6.602211055276383,1,0.1,0.2751507614926769,2.576240945641537,1.415497487437186,4.4355046206717
1755687395.1615043,8.637,-3.09,-0.863,-0.0437,0.3732,2.5187,9.486305240977648,95.374531504565,6.342713567839196,1,0.1,0.2706732139499585,2.5465737020553716,1.4002814070351761,4.4355046206717
1755687395.245798,7.342,-5.378,-2.146,0.2025,0.3788,1.2562,9.490803345344375,103.26791426154251,5.982914572864323,1,0.1,0.2574672902525678,1.3276046587745918,1.3221206030150756,4.4355046206717
1755687395.330534,7.48,-5.373,-0.608,0.2955,0.0044,-0.0323,9.473977225009568,93.77701362689696,5.773467336683417,1,0.1,0.2580192434683894,0.297292616793623,1.327427135678392,4.4355046206717
1755687395.4154882,6.796,-4.422,-1.473,0.216,-0.9172,-1.3521,9.466087159962136,100.29675934210432,5.811557788944723,1,0.1,0.2582966546434545,1.6480552933685204,1.327025125628141,4.4355046206717
1755687395.4999292,7.442,-3.235,-1.516,0.0292,-1.6282,-2.3243,9.462002615461484,100.58207456967833,5.656281407035175,1,0.1,0.25784580382468897,2.838002531711344,1.2655778894472363,4.4355046206717
1755687395.584873,8.987,-2.124,-1.813,-0.2912,-1.5951,-2.4972,9.453606508629392,101.10744771970565,5.756984924623115,1,0.1,0.24849181415088906,2.9774400564914822,1.2669045226130653,4.4355046206717
1755687395.669944,9.214,-1.168,-2.939,-0.4278,0.0332,-2.1793,9.449266843252973,107.55939380643093,5.729447236180904,1,0.1,0.2452589803656535,2.22114015091349,1.2534773869346734,4.4355046206717
1755687395.7531374,10.665,-0.202,-2.733,-0.749,-1.0288,-1.4357,9.45515756188124,104.37078061424931,5.666130653266332,1,0.1,0.24898907847534196,1.9185059108587599,1.2596582914572862,4.4355046206717
1755687395.8378544,9.724,0.224,-4.558,-0.7536,-0.3311,-0.636,9.444297500343792,115.10839097058292,5.653668341708541,1,0.1,0.2543133476638613,1.0402096759788384,1.245929648241206,4.4355046206717
1755687395.9212584,9.626,0.094,-4.071,-0.1244,0.2828,0.1177,9.439193432439025,112.92335302808593,5.543216080402009,1,0.1,0.25445154116255614,0.33061229559712385,1.3049447236180902,4.4355046206717
1755687396.0055695,9.631,0.267,-3.324,0.1484,-0.3275,0.3947,9.44044225738392,109.03458524942857,5.525527638190955,1,0.1,0.2546676320226032,0.5339165665157807,1.3317587939698492,4.4355046206717
1755687396.089335,9.354,-0.743,-4.845,0.4612,-0.1968,-0.1795,9.439390134696204,117.30884183916633,5.54211055276382,1,0.1,0.2567461571280084,0.5325935880199836,1.362402010050251,4.4355046206717
1755687396.19199,8.823,0.039,-3.381,0.374,0.7401,-0.525,9.435210007201746,110.96679489754615,5.593366834170854,1,0.1,0.2581045097436308,0.9814525001241782,1.3709849246231156,4.4355046206717
1755687396.2754197,8.491,0.887,-2.961,-0.1511,0.6791,-0.6851,9.429611771435768,109.12832930873495,5.603015075376884,1,0.1,0.2583255534204853,0.9764066929307685,1.4233366834170855,4.4355046206717
1755687396.3589773,8.708,1.846,-2.797,0.133,0.3304,-0.429,9.423776582400498,107.44356113928092,5.60321608040201,1,0.1,0.25849645355400913,0.5575788374750247,1.4517587939698495,4.4355046206717
1755687396.442847,8.882,2.139,-2.424,-0.0217,0.0629,-0.5288,9.419866762061977,104.85967745216934,5.6094472361809045,1,0.1,0.2585008823002351,0.5329697364766597,1.4671155778894474,4.4355046206717
1755687396.5271761,8.749,1.548,-2.968,0.0065,0.0682,-0.952,9.414753852331987,108.47190734599592,5.619195979899498,1,0.1,0.25850126295629583,0.9544618850430854,1.469668341708543,4.4355046206717
1755687396.6128273,9.688,2.036,-2.623,0.0518,0.2828,-1.0459,9.414423471461223,104.84005580156668,5.712663316582915,1,0.1,0.2585270158029911,1.0846962201464518,1.474211055276382,4.4355046206717
1755687396.697358,11.254,-1.55,3.669,0.1868,-0.0357,0.0678,9.42284466788029,72.10117383267622,5.86070351758794,1,0.1,0.258864042114775,0.2019048538297185,1.4876984924623116,4.4355046206717
1755687396.782146,9.643,-1.651,1.685,-0.5902,-3.6391,0.401,9.421847186194436,80.22770792462428,6.010653266331658,1,0.1,0.26220642192745774,3.708393971788866,1.5656180904522612,4.4355046206717
1755687396.867497,8.246,-1.432,-1.68,-0.6272,-3.7015,-0.1029,9.414833324865608,101.35018969998121,6.144120603015076,1,0.1,0.26593037895283794,3.7556717774587276,1.5691859296482416,4.4355046206717
1755687396.9513931,8.143,-1.757,-3.98,-0.4515,-2.4827,-0.2718,9.407008015304335,115.53699703930384,6.149949748743719,1,0.1,0.26783949764737836,2.5380163080642326,1.5868341708542713,4.4355046206717
1755687397.0356314,7.592,-1.074,-3.253,-0.3425,-0.784,-0.3499,9.396634999562343,112.98924197625172,6.202010050251256,1,0.1,0.26893178187042155,0.9243334138718562,1.5975175879396988,4.4355046206717
1755687397.119458,7.731,-0.98,-4.123,-0.1713,0.8203,-0.4189,9.3869903110635,117.88213695130975,6.211959798994975,1,0.1,0.26920427513321554,0.9368633785136443,1.6146331658291457,4.4355046206717
1755687397.2213287,9.307,-1.002,-3.814,-0.1415,0.9218,-0.2011,9.384282451258594,112.16817149310369,6.349547738693467,1,0.1,0.2693900609710759,0.954032861069261,1.6175075376884422,4.4355046206717
1755687397.305483,9.354,-1.077,-3.545,-0.0831,0.2362,-0.0802,9.382881375142713,110.63110111632487,6.334170854271358,1,0.1,0.269453967404453,0.26292221283109574,1.6230854271356785,4.4355046206717
1755687397.389868,10.184,-1.031,-3.239,-0.2348,1.4409,-0.08,9.384763682426959,107.55896019967174,6.412562814070353,1,0.1,0.2699645097971213,1.462095704801844,1.6380201005025126,4.4355046206717
1755687397.4746041,9.95,-0.92,-0.832,-0.0325,0.5589,0.1239,9.385651925678898,94.75963561166205,6.430351758793971,1,0.1,0.2699741353352206,0.5733905039325293,1.6582110552763818,4.4355046206717
1755687397.5588462,10.286,-1.31,-2.134,0.1522,0.8353,0.3357,9.388646876414088,101.62933305422374,6.4521608040201,1,0.1,0.27018828009371537,0.9130089922886849,1.6766733668341707,4.4355046206717
1755687397.6432695,9.74,-1.211,-0.758,0.0897,1.0636,0.533,9.388109763152539,94.41611702504072,6.491658291457287,1,0.1,0.27026253143933954,1.1930549232956547,1.6827839195979897,4.4355046206717
1755687397.728119,9.616,-1.451,-0.746,-0.0625,0.5334,0.3506,9.38772931570782,94.38660468438991,6.493567839195981,1,0.1,0.27029859035888437,0.6413596261069135,1.6979095477386932,4.4355046206717
1755687397.812356,9.378,-1.468,0.306,0.0482,0.8894,0.2512,9.385599927548585,88.15359618092266,6.512864321608041,1,0.1,0.27031988994522765,0.9254496420659527,1.7089145728643214,4.4355046206717
1755687397.8976884,9.044,-1.363,0.527,-0.1697,-0.4293,0.3663,9.381589911896597,86.70226380772426,6.532060301507539,1,0.1,0.27058579212515943,0.5892981164062889,1.73051256281407,4.4355046206717
1755687397.983091,8.575,-1.814,-0.673,-0.449,-2.6163,0.2893,9.376120006697867,94.39082117565991,6.565829145728645,1,0.1,0.27244199281681963,2.6702661253141042,1.7583718592964823,4.4355046206717
1755687398.0697048,8.398,-1.87,-3.857,-0.259,-2.097,-0.4817,9.369152341327363,114.14652940708797,6.567135678391962,1,0.1,0.2730566411021713,2.167146716306951,1.7771859296482415,4.4355046206717
1755687398.1556454,9.512,-1.608,-2.326,-0.1946,0.393,-0.6551,9.36835908097037,103.55597526541443,6.660703517587941,1,0.1,0.2734030999275612,0.7883363305087493,1.78348743718593,4.4355046206717
1755687398.2566116,11.574,-1.971,-1.823,-0.0281,0.3867,-0.1798,9.378210210375967,98.82599597153875,6.86030150753769,1,0.1,0.273410194853813,0.4273810243798851,1.800070351758794,4.4355046206717
1755687398.3407183,11.614,-1.468,-1.307,-0.0213,0.1678,0.4895,9.388695135640521,96.37058985570876,6.858994974874372,1,0.1,0.2734140960155493,0.5179003572116938,1.8007135678391961,4.4355046206717
1755687398.425317,8.603,-1.764,-2.008,-0.3421,-0.022,0.6906,9.38323852355891,102.87927079475033,7.151557788944724,1,0.1,0.27448182662974246,0.7710024448729069,1.8324321608040204,4.4355046206717
1755687398.5097363,8.765,-1.281,-3.648,-0.4201,0.4368,0.592,9.378007843353512,112.38312829789035,7.156180904522614,1,0.1,0.27608457472303666,0.847196700890649,1.8400402010050254,4.4355046206717
1755687398.5945134,8.794,-2.148,-2.873,-0.4955,1.2982,-0.0813,9.373514184392107,107.60786427896535,7.154572864321608,1,0.1,0.2782988630950547,1.3919242723654186,1.8475678391959798,4.4355046206717
1755687398.6795766,6.727,-2.812,-2.685,0.203,2.3335,-0.2349,9.36021999260701,110.21663894643726,7.360201005025125,1,0.1,0.27866871191434467,2.3540622888955167,1.9177286432160803,4.4355046206717
1755687398.7647724,10.184,0.298,0.976,0.2485,-0.6823,-0.091,9.362639605634728,84.52801391239963,7.702412060301506,1,0.1,0.27922203969242826,0.7318241182142059,1.9222311557788943,4.4355046206717
1755687398.8493664,9.39,0.01,0.725,0.3601,-1.0986,0.1056,9.360637856471106,85.58496624393666,7.767638190954772,1,0.1,0.2803805725259865,1.1609243429267904,1.9332462311557794,4.4355046206717
1755687398.933956,8.203,-0.211,-0.962,0.4387,-1.5884,-0.0651,9.35229168412748,96.68657086142454,7.85939698492462,1,0.1,0.2820911800287276,1.6491544075677085,1.94113567839196,4.4355046206717
1755687399.0189762,8.074,-0.565,-1.678,0.5893,-0.6694,0.2494,9.344811480441967,101.71266620279332,7.864924623115576,1,0.1,0.2851520490896041,0.9260514078602764,1.9562412060301513,4.4355046206717
1755687399.1038826,8.846,-0.291,-1.055,0.6779,-1.6774,-0.9889,9.340438148448925,96.7974964905345,7.934572864321607,1,0.1,0.28915273317055123,2.0618298620400277,1.9651457286432161,4.4355046206717
1755687399.20738,11.276,-0.276,-1.3,0.9038,-0.4992,-0.717,9.348734436275318,96.57459249871756,8.173467336683414,1,0.1,0.2961307907833969,1.2570378196378977,1.9877386934673373,4.4355046206717
1755687399.2920532,11.173,0.149,-2.243,-1.069,1.6377,2.3095,9.356682514919484,101.35036236415648,8.176080402010047,1,0.1,0.3056258664609395,3.026319966560046,2.1856582914572864,4.4355046206717
1755687399.3761446,8.913,2.146,-3.624,-1.8182,4.3774,1.0693,9.35209438174145,111.56891264523404,8.389045226130653,1,0.1,0.33156662256626496,4.859103259861843,2.2603718592964825,4.859103259861843
1755687399.4613688,9.228,-2.276,0.487,-0.5125,3.3136,0.789,9.349768046588109,87.06680358046896,8.404422110552764,1,0.1,0.3335408640631609,3.4445786694456553,2.3911356783919597,4.859103259861843
1755687399.546483,6.333,-4.037,2.338,-0.1076,3.7703,0.1521,9.334537185634861,72.70828121306661,8.69175879396985,1,0.1,0.3336276102932729,3.7749005629287775,2.431708542713568,4.859103259861843
1755687399.6321232,8.882,-1.497,5.296,0.5247,1.8283,-0.0805,9.32986929758397,59.54577368560279,8.939396984924624,1,0.1,0.33568421283998445,1.9038044095967421,2.4951557788944725,4.859103259861843
1755687399.7165706,8.296,-4.441,4.191,0.3071,-0.1233,0.1189,9.322945456506758,65.9926552231709,8.9878391959799,1,0.1,0.3363857410027958,0.35163974462509207,2.5169447236180904,4.859103259861843
1755687399.8021877,11.319,-2.252,7.97,0.8026,-3.4153,0.0102,9.331370282279018,55.37141939979093,9.275175879396986,1,0.1,0.3411394912642041,3.508353586798229,2.5663015075376885,4.859103259861843
1755687399.888,9.779,-1.716,2.782,1.1139,-4.3539,0.6637,9.331943406654371,74.34682253240234,9.420100502512563,1,0.1,0.3501138918980508,4.5428753130589,2.597326633165829,4.859103259861843
1755687399.9764223,9.435,-1.629,1.887,-0.1509,-4.184,-1.0334,9.330235389581551,78.85080260045271,9.451557788944724,1,0.1,0.3502762785288207,4.312370852558949,2.724321608040201,4.859103259861843
1755687400.0677743,9.631,-0.384,-4.227,-0.1752,-0.8199,-0.2762,9.329365959699512,113.67969943206272,9.461206030150755,1,0.1,0.3504950220045928,0.8827329664173644,2.72662311557789,4.859103259861843
1755687400.1560535,11.431,1.072,-3.557,-0.5027,1.2982,1.8767,9.339172982389822,107.21360878338164,9.624422110552764,1,0.1,0.3522927567379154,2.3366714403184714,2.7594874371859297,4.859103259861843
1755687400.267992,8.033,-1.934,-2.291,-1.8524,3.4897,3.0133,9.330343941141718,105.49740442045321,9.945829145728643,1,0.1,0.37585499870295724,4.968839778056846,2.894904522613065,4.968839778056846
1755687400.3531327,6.729,-4.535,-1.671,-1.5581,2.4839,1.9481,9.31739147428077,101.63607657368205,10.073065326633166,1,0.1,0.39166990700078047,3.520302320824165,2.923929648241206,4.968839778056846
1755687400.440271,6.326,-5.496,-2.88,-0.0699,1.3268,0.6187,9.302809282415716,108.96659959386405,10.11326633165829,1,0.1,0.39170064245543434,1.4656309016938747,3.073015075376884,4.968839778056846
1755687400.5270364,7.34,-6.109,-0.235,0.9868,0.6517,-1.1269,9.291948941960452,91.40966589820277,10.21105527638191,1,0.1,0.39786706284888673,1.6335209640528032,3.1790150753768844,4.968839778056846
1755687400.612833,6.305,-3.682,0.573,1.9292,-0.0874,-2.7214,9.277055985871812,85.51272079858668,10.299296482412062,1,0.1,0.42060343567308145,3.336985070389138,3.273557788944723,4.968839778056846
1755687400.6992686,11.118,0.615,3.445,1.962,-0.3544,-2.8698,9.283914806804294,72.8087212415819,10.763417085427136,1,0.1,0.4428932327886711,3.4943948546207544,3.276693467336683,4.968839778056846
1755687400.7858882,11.152,0.298,2.637,0.3644,0.7855,-1.4493,9.29200166487286,76.700788545655,10.759396984924622,1,0.1,0.443642009282259,1.688273704113169,3.4371155778894464,4.968839778056846
1755687400.870961,9.001,-2.47,2.167,0.3655,1.8227,-0.2752,9.288032943793857,76.92930481849478,10.974874371859297,1,0.1,0.4443939527041294,1.8792446833768082,3.437206030150753,4.968839778056846
1755687400.9569416,9.259,-2.156,3.296,0.4189,1.2068,-0.4059,9.285294132390206,70.87842994455087,10.99577889447236,1,0.1,0.4453798212761777,1.3403724333184415,3.442180904522612,4.968839778056846
1755687401.0423136,9.559,-1.593,4.491,0.3557,0.7494,-0.5126,9.284337848495175,65.13567604717427,11.016080402010052,1,0.1,0.44608888985268397,0.9751315859923726,3.447608040201004,4.968839778056846
1755687401.1364355,9.507,-1.11,4.111,0.2654,0.1373,-0.3372,9.28259759577027,66.75644535881688,11.004723618090452,1,0.1,0.44648346021997276,0.4505466568514298,3.456271356783919,4.968839778056846
1755687401.2278728,8.849,-1.276,3.894,-0.2004,0.1792,-0.0856,9.278470630982241,66.46471123555402,11.062713567839198,1,0.1,0.4467082119236225,0.2821350031456572,3.502673366834171,4.968839778056846
1755687401.3395984,8.608,-1.697,2.771,0.384,-0.5291,-0.2566,9.272783310581566,72.47227019365654,11.079798994974874,1,0.1,0.4475326841695476,0.7023150076710593,3.5610753768844225,4.968839778056846
1755687401.4380856,9.328,-1.079,3.06,0.5344,-1.0318,-0.3668,9.270947916205763,71.95067611596704,11.13859296482412,1,0.1,0.4491250785137699,1.2184977800554255,3.575869346733669,4.968839778056846
1755687401.530544,10.475,-0.586,2.371,0.5612,-1.1821,-0.4055,9.274526574709892,77.26536095022765,11.245527638190955,1,0.1,0.45087477119484076,1.3699401811758058,3.578321608040201,4.968839778056846
1755687401.6180499,8.341,-0.089,2.203,0.3724,-0.6703,-0.5408,9.267716081646006,75.20586028740841,11.450854271356786,1,0.1,0.45164306354686773,0.9383221674883312,3.596623115577889,4.968839778056846
1755687401.7048466,10.31,0.411,2.374,-0.0549,-0.7455,-0.1491,9.270328778689567,77.04292907165559,11.64492462311558,1,0.1,0.45165959715254583,0.76224344536375,3.63929648241206,4.968839778056846
1755687401.7907794,10.439,-0.38,0.808,-0.4327,-0.8113,0.527,9.273460563619171,85.57693184260107,11.6391959798995,1,0.1,0.45269471711077,1.0597952538108482,3.6767638190954783,4.968839778056846
1755687401.8765903,9.628,-0.654,0.511,-0.3766,-0.3632,0.5894,9.273184670866852,86.96888507057999,11.703517587939698,1,0.1,0.45347724689338054,0.7881206506620672,3.6820301507537687,4.968839778056846
1755687401.9619184,9.814,-1.089,0.656,-0.1247,-0.1073,0.3545,9.272983198518155,86.19911013389056,11.712160804020101,1,0.1,0.4535629578129149,0.39081150187782343,3.7070753768844225,4.968839778056846
1755687402.0479395,9.304,-1.442,0.14,0.1292,0.0325,-0.0275,9.270681310453941,89.14808840626038,11.7564824120603,1,0.1,0.45365494447873045,0.13603359879088697,3.732070351758793,4.968839778056846
1755687402.13599,9.748,-0.997,1.297,0.2543,-0.3062,-0.1154,9.270296072672114,82.46002024231,11.792763819095478,1,0.1,0.4540111041042939,0.41442018531919994,3.7443819095477386,4.968839778056846
1755687402.2267635,9.55,-0.625,0.261,0.1953,-0.5048,-0.1021,9.269318127834431,88.43784519333921,11.811959798994975,1,0.1,0.4542208654938696,0.5508080790983372,3.7499195979899493,4.968839778056846
1755687402.3144877,9.843,-0.526,0.439,0.0502,-0.2091,-0.0138,9.269909384400691,87.44992154793445,11.818894472361807,1,0.1,0.454234703705034,0.2154838509030317,3.764261306532663,4.968839778056846
1755687402.4178174,10.282,-0.606,0.211,0.0063,0.2143,0.0934,9.271693884614612,88.82641715376941,11.832864321608039,1,0.1,0.45423479534267297,0.2338540998143928,3.768482412060301,4.968839778056846
1755687402.502962,9.664,-0.94,0.473,-0.0143,0.6872,0.1035,9.27174076670611,87.211061959754,11.87537688442211,1,0.1,0.4542356737421666,0.6950975327247249,3.770070351758794,4.968839778056846
1755687402.588022,9.783,-0.606,0.223,0.1295,2.2801,-0.2296,9.271386077065285,88.69668645243745,11.87587939698492,1,0.1,0.45432794378070124,2.2952870016623197,3.784120603015076,4.968839778056846
1755687402.688285,8.925,-0.514,2.694,0.2014,1.6317,-0.4727,9.267304324073965,73.22985068312194,11.958693467336682,1,0.1,0.4545508951151675,1.7106876219812897,3.7906231155778896,4.968839778056846
1755687402.781816,9.209,-0.447,3.45,0.2857,0.3553,-0.4673,9.264788924740813,69.48450491446786,11.981005025125627,1,0.1,0.4549995936811373,0.6528643580407801,3.798412060301508,4.968839778056846
1755687402.8669856,9.445,-0.896,3.502,0.3701,-1.3379,-0.3242,9.263135293463009,69.73983841101686,12.002110552763817,1,0.1,0.45575141146243314,1.4255020378799885,3.806020100502513,4.968839778056846
1755687402.9621189,10.198,-0.058,2.119,0.2378,-2.1343,0.0318,9.265609978031668,78.26196309287937,12.06462311557789,1,0.1,0.4560614454763744,2.147742202872589,3.8187236180904525,4.968839778056846
1755687403.062229,9.397,-0.949,-1.143,-0.0481,0.8764,0.2768,9.263156076899492,96.90032197173329,12.125728643216078,1,0.1,0.45607408789581544,0.9203308155223315,3.847175879396984,4.968839778056846
1755687403.1674898,9.297,-1.134,0.1,0.0373,1.1202,0.083,9.261215183225147,89.38827474558705,12.130954773869346,1,0.1,0.45608154846474547,1.1238898211123722,3.85537688442211,4.968839778056846
1755687403.265942,9.309,-1.156,0.323,0.0354,0.9101,-0.1423,9.25908274047705,88.02790639224742,12.128542713567839,1,0.1,0.4560884017380841,0.9218375453408263,3.8553567839195972,4.968839778056846
1755687403.3516068,9.771,-1.014,1.152,-0.0052,0.6396,-0.196,9.25914074847121,83.31146599005675,12.174673366834172,1,0.1,0.4560885490779175,0.6689777275814195,3.858502512562814,4.968839778056846
1755687403.455671,9.771,-0.93,1.057,0.0729,0.1408,-0.1021,9.25921456496176,83.85347298554062,12.164824120603013,1,0.1,0.45611724435719375,0.18858276697514015,3.865688442211055,4.968839778056846
1755687403.560439,9.957,-0.887,1.121,0.0946,0.0125,-0.1241,9.259760174000188,83.60158101638531,12.154070351758794,1,0.1,0.4561662634939151,0.15654462622523968,3.867618090452261,4.968839778056846
1755687403.6825252,9.643,-0.887,1.11,0.0381,-0.0581,-0.0712,9.260180155104974,83.4609815486999,12.151356783919598,1,0.1,0.456174092644464,0.09948195816327703,3.8730954773869346,4.968839778056846
1755687403.777761,9.881,-0.743,0.879,-0.0069,-0.1602,-0.0416,9.260062649086128,84.9306654837329,12.149145728643216,1,0.1,0.4561741001525624,0.1656569044742778,3.877346733668341,4.968839778056846
1755687403.8630188,9.552,-0.916,1.034,-0.0221,-0.4493,-0.0774,9.259591056844789,83.84980923221832,12.170452261306531,1,0.1,0.45617668468478306,0.45645334920449426,3.878824120603015,4.968839778056846
1755687403.949999,9.552,-0.536,0.185,0.0314,-0.7232,-0.0727,9.258506470268301,88.89219517727483,12.163115577889446,1,0.1,0.4561820170173305,0.7275228450021346,3.8837085427135674,4.968839778056846
1755687404.0583446,9.779,-0.752,-0.152,0.037,-0.4761,-0.0166,9.258220499642466,90.8878849270965,12.177386934673363,1,0.1,0.45618912350033075,0.47782399479306187,3.8841507537688438,4.968839778056846
1755687404.1630774,9.714,-0.745,-0.349,0.018,-0.1269,0.0563,9.258041816712646,92.0515910819695,12.174371859296482,1,0.1,0.45619038344752516,0.1399903568107461,3.886020100502512,4.968839778056846
1755687404.2485423,9.786,-0.702,-0.147,0.0266,0.1953,0.0108,9.257739681747376,90.8583960326483,12.153768844221103,1,0.1,0.4561937019512654,0.19739880952021976,3.8864422110552765,4.968839778056846
1755687404.3331957,9.707,-0.711,0.036,0.0372,0.496,0.0175,9.258473496208756,89.78807790254798,12.138391959798994,1,0.1,0.45620110746248743,0.49770080369635733,3.887497487437186,4.968839778056846
1755687404.4172795,9.738,-0.673,0.658,0.0137,0.6837,-0.0299,9.258156980738661,86.143551462112,12.132864321608036,1,0.1,0.4562019641562276,0.6844906062174995,3.8895376884422106,4.968839778056846
1755687404.5083246,9.6,-0.884,0.782,0.0079,0.2161,-0.0576,9.25757289790364,85.3625968803248,12.138894472361805,1,0.1,0.45620188179138416,0.2237842264325169,3.8894673366834174,4.968839778056846
1755687404.6387079,9.771,-0.711,0.758,0.0907,0.0988,-0.0788,9.257472531150173,85.5757292793435,12.152663316582913,1,0.1,0.4562469319896847,0.15555503849120414,3.897517587939698,4.968839778056846
1755687404.724224,9.535,-0.971,1.186,0.1543,-0.712,0.0345,9.255961533519898,82.94585856006829,12.162010050251256,1,0.1,0.4563773708237515,0.7293440477579836,3.903236180904522,4.968839778056846
1755687404.8099349,9.464,-0.692,-0.164,0.0394,-1.1872,0.0147,9.254839360302263,90.99012641622339,12.14472361809045,1,0.1,0.45638559831572245,1.1879445652049594,3.913597989949748,4.968839778056846
1755687404.9140072,10.167,-0.401,-1.172,0.1142,-1.4537,0.1797,9.25615806639018,96.57067743003334,12.191658291457285,1,0.1,0.45645691154806717,1.4692097944133098,3.920924623115577,4.968839778056846
1755687405.0159142,9.631,-0.747,-1.345,0.0791,-0.4396,-0.0118,9.255860642587484,97.92661839045692,12.23286432160804,1,0.1,0.4564911356751629,0.4468156331195228,3.9240804020100493,4.968839778056846
1755687405.1023405,9.786,-0.594,-1.404,0.0145,0.1058,0.0108,9.255712410992468,98.14972861038522,12.247738693467337,1,0.1,0.45649228268394637,0.10733373188331803,3.9300502512562816,4.968839778056846
1755687405.188915,9.807,-0.848,-1.041,0.0129,0.114,0.0562,9.255638188423314,96.03682242574659,12.238391959798996,1,0.1,0.4564929902528625,0.1277530821546001,3.9287939698492464,4.968839778056846
1755687405.2770815,10.062,-0.61,-1.167,-0.0476,0.7102,0.1195,9.257533594321977,96.60364248156792,12.250150753768843,1,0.1,0.45650504811009485,0.7217548406488176,3.934864321608041,4.968839778056846
1755687405.3836195,9.278,-1.461,-0.63,0.0923,-0.6297,-0.0443,9.254605045327434,93.83742519328719,12.315577889447237,1,0.1,0.45655135894004306,0.6379685493815507,3.9479396984924615,4.968839778056846
1755687405.475734,9.311,-1.367,-0.252,0.2073,-0.5617,-0.2255,9.252544159851386,91.53388301143306,12.306733668341709,1,0.1,0.45678659322488874,0.6397893637752975,3.9594271356783914,4.968839778056846
1755687405.5620885,9.7,-1.35,-0.568,0.1065,-0.566,-0.09,9.251842194125448,93.3193046984641,12.341507537688443,1,0.1,0.4568486574348227,0.5829221646154827,3.9692864321608035,4.968839778056846
1755687405.6479714,9.674,-0.906,-1.393,0.1447,-0.1034,-0.0904,9.251232072810627,98.1587206121647,12.34251256281407,1,0.1,0.4569632096788537,0.19950390973612522,3.9728341708542705,4.968839778056846
1755687405.7509055,10.153,-0.673,-1.991,0.1813,0.899,-0.2474,9.25327274697985,101.07120156596484,12.386130653266333,1,0.1,0.4571428952198645,0.9498828611992113,3.9763919597989945,4.968839778056846
1755687405.836058,11.366,0.995,-0.863,0.0477,2.4977,-0.1086,9.262123002044403,94.32555470945637,12.493668341708542,1,0.1,0.4571552820432025,2.500514854984869,3.9897788944723613,4.968839778056846
1755687405.9243078,11.893,1.24,0.062,0.5244,1.2049,0.8866,9.27502101722686,89.70292152183966,12.53246231155779,1,0.1,0.45865661392811075,1.5851936569391136,4.03748743718593,4.968839778056846
1755687406.0101724,9.624,-1.129,0.218,0.6955,1.0803,0.6167,9.274009613160858,88.71120961752841,12.749045226130653,1,0.1,0.46128568973034484,1.425162176736388,4.054120603015076,4.968839778056846
1755687406.1015596,10.1,-2.456,1.209,1.2772,-0.635,0.1993,9.27492212905316,83.3655390372182,12.770351758793968,1,0.1,0.4700430639313806,1.440203225242882,4.11243216080402,4.968839778056846
1755687406.1935065,7.297,-4.102,-0.803,1.6316,-2.418,0.0289,9.264078858688542,95.47945261881966,13.032462311557786,1,0.1,0.4839945895358749,2.9171351991294476,4.146894472361808,4.968839778056846
1755687406.2799654,9.6,-2.442,-1.804,1.9722,-2.8899,-0.4437,9.262702730844817,100.3214148187396,13.255577889447235,1,0.1,0.5036849830002875,3.5267498550365035,4.1806532663316585,4.968839778056846
1755687406.3665364,7.161,-1.588,-0.594,2.0471,-1.8762,-0.9039,9.25072522994819,94.62982447300294,13.495678391959796,1,0.1,0.5240721783304281,2.9202363020824187,4.188180904522613,4.968839778056846
1755687406.4636052,10.193,0.087,0.314,1.398,-0.0224,-0.9003,9.253223023357862,88.23559968923729,13.785628140703515,1,0.1,0.5333138494826475,1.6629629731295883,4.252884422110553,4.968839778056846
1755687406.5707102,9.214,0.236,1.868,1.2419,0.1279,-0.8806,9.249808020710484,78.54312996659318,13.866834170854272,1,0.1,0.540495176019176,1.527786104138927,4.268281407035175,4.968839778056846
1755687406.672639,10.93,0.978,3.158,0.1338,1.8831,-0.2792,9.256637499383888,73.94524993701714,14.015376884422109,1,0.1,0.5405779187591738,1.9083816940014908,4.378874371859296,4.968839778056846
1755687406.75937,9.678,0.505,2.668,-0.3941,1.8454,0.3971,9.25523311267739,74.60764966714693,14.116984924623114,1,0.1,0.5412951441681331,1.9283423917966436,4.431356783919598,4.968839778056846
1755687406.8641825,7.108,-0.983,1.851,-0.1507,-0.2024,0.188,9.243447098891192,75.5355501230085,14.365427135678393,1,0.1,0.5413998839120673,0.3146748321680652,4.455688442211056,4.968839778056846
1755687406.9551365,5.125,-0.882,-1.198,-0.3637,-0.6499,0.3739,9.224556487712565,102.97286989820033,14.564020100502512,1,0.1,0.5420101397114264,0.8333360126623595,4.476522613065327,4.968839778056846
1755687407.0612261,19.198,0.92,-4.406,0.4727,-1.8506,-0.1478,9.298084327967779,102.91140070289256,15.974773869346732,1,0.1,0.5430397885514467,1.9157271439325592,4.560381909547739,4.968839778056846
1755687407.1616714,3.778,-1.451,1.157,-0.3886,1.6011,0.498,9.276226408675027,74.04547522227575,17.521608040201002,1,0.1,0.5437345066298441,1.721201664535565,4.646824120603015,4.968839778056846
1755687407.2485797,11.011,0.745,2.44,-0.7298,0.6885,-0.8421,9.283016050293137,77.53296550287374,18.233165829145726,1,0.1,0.5461777745844296,1.309875070378851,4.680693467336683,4.968839778056846
1755687407.3341792,8.868,1.081,0.423,-0.8172,0.73,-0.4357,9.279130943412751,87.28912091838667,18.422412060301504,1,0.1,0.5492260378022877,1.1792159810653857,4.688361809045226,4.968839778056846
1755687407.4197943,9.724,1.401,0.839,-0.3139,-0.0762,-0.4124,9.278163002448276,85.11880926918725,18.480201005025123,1,0.1,0.5496737936722107,0.5238448338964506,4.738773869346733,4.968839778056846
1755687407.506111,10.532,1.226,0.554,-0.0839,0.2017,-0.166,9.28308270134442,87.00908485080684,18.54271356783919,1,0.1,0.5497053976904357,0.27436854776012504,4.761748743718592,4.968839778056846
1755687407.5924778,9.712,1.098,0.841,-0.1199,-0.4558,0.014,9.28255689128809,85.08205527638329,18.621005025125626,1,0.1,0.5497702340523721,0.47151420975406455,4.764683417085426,4.968839778056846
1755687407.6811054,10.484,1.218,0.235,-0.3633,-0.0626,0.2319,9.286445580252975,88.72449996316043,18.68974874371859,1,0.1,0.5503700215763937,0.43552641710922657,4.788924623115578,4.968839778056846
1755687407.7669675,9.562,0.673,0.273,-0.3802,0.2103,0.3276,9.285818665578173,88.36865383405471,18.765427135678387,1,0.1,0.5510260632674284,0.5441506133415637,4.790562814070351,4.968839778056846
1755687407.8528054,8.639,0.161,0.734,-0.3693,0.3578,0.298,9.279778034791565,85.14445035176469,18.83447236180904,1,0.1,0.5516442665341497,0.5943124851456514,4.791336683417086,4.968839778056846
1755687407.954398,9.376,0.437,0.095,-0.014,0.0665,-0.0535,9.278549993129314,89.4201140263727,18.880904522613065,1,0.1,0.5516446924878368,0.08648988380151751,4.826603015075376,4.968839778056846
1755687408.040647,10.0,0.5,1.062,0.0093,0.0798,0.0044,9.279134149800832,83.94541759762227,18.922211055276378,1,0.1,0.5516449372105213,0.08046048719713297,4.828753768844221,4.968839778056846
1755687408.1263118,9.481,0.457,0.625,0.0247,0.1196,0.0053,9.278117209595921,86.23280492475764,18.969547738693464,1,0.1,0.5516474403094788,0.12223886452352214,4.829748743718592,4.968839778056846
1755687408.211471,9.786,0.505,1.226,0.0466,0.0056,-0.042,9.278432656165586,82.86852238586894,18.995175879396985,1,0.1,0.5516572614857889,0.06298348990013176,4.8317286432160795,4.968839778056846
1755687408.2968097,9.752,0.483,0.715,-0.0602,0.0016,0.0054,9.278830486381352,85.81178981376281,18.98010050251256,1,0.1,0.551673600872835,0.06046288117514744,4.842331658291457,4.968839778056846
1755687408.3828523,9.578,0.502,0.694,0.0152,0.0559,-0.0048,9.27735348119279,85.86138193456328,18.977688442211054,1,0.1,0.5516745057549787,0.0581282203408981,4.849628140703516,4.968839778056846
1755687408.4678771,9.738,0.512,0.998,-0.0257,0.0515,0.0153,9.27775078426878,84.15648064343003,18.979698492462308,1,0.1,0.5516774633334227,0.05955526844872752,4.85348743718593,4.968839778056846
1755687408.5523245,9.459,0.461,0.867,0.036,-0.0734,-0.0339,9.27597040745603,84.76914857639952,19.00371859296482,1,0.1,0.5516833358911614,0.08850293780434637,4.85953768844221,4.968839778056846
1755687408.6381302,10.012,0.577,0.858,0.0153,-0.1634,-0.0256,9.277302652172127,85.10995594074876,19.053567839195974,1,0.1,0.551684390163434,0.16609939795194922,4.861226130653266,4.968839778056846
1755687408.7244825,9.705,0.478,0.694,-0.0317,0.0812,0.0835,9.27670285284594,85.91470350940841,19.083718592964818,1,0.1,0.551688910845596,0.12070865751883748,4.865929648241206,4.968839778056846
1755687408.8096642,9.9,0.548,0.991,-0.0529,0.0998,0.0482,9.277096228885416,84.29235640915724,19.07869346733668,1,0.1,0.5517015634833746,0.12280753234227941,4.867517587939698,4.968839778056846
1755687408.914763,9.733,0.389,0.77,0.0187,-0.0128,0.0703,9.277887317703314,85.48021388433634,19.066030150753765,1,0.1,0.551702865272603,0.07386216893647249,4.874412060301506,4.968839778056846
1755687408.9993832,9.497,0.315,0.808,0.0433,-0.0469,0.0421,9.27591929379509,85.13967481136754,19.077487437185926,1,0.1,0.5517112523322322,0.07646509007383696,4.876070351758794,4.968839778056846
1755687409.0870101,9.903,0.5,0.865,0.0193,-0.084,0.0162,9.27671915442092,85.0143585193482,19.114974874371857,1,0.1,0.5517128938134399,0.08769794752444325,4.877447236180905,4.968839778056846
1755687409.1775339,9.65,0.344,0.717,-0.0131,0.053,0.0696,9.276358982111462,85.75338939845348,19.128442211055273,1,0.1,0.5517134430118592,0.08845773001835396,4.8803015075376885,4.968839778056846
1755687409.2639024,9.74,0.245,1.1,0.008,0.063,0.0169,9.275841888745193,83.55854657916323,19.128442211055273,1,0.1,0.5517136894712691,0.06571613196164242,4.8823316582914575,4.968839778056846
1755687409.3577497,9.719,0.267,0.736,0.0092,0.0073,-0.0256,9.275689733383713,85.6710004954424,19.121005025125626,1,0.1,0.5517140005020716,0.028165404310962767,4.8823316582914575,4.968839778056846
1755687409.4511554,9.781,0.397,0.881,0.0208,0.0537,0.0114,9.275361803724964,84.85732150028491,19.110954773869345,1,0.1,0.5517159254090822,0.058705110510073995,4.883065326633166,4.968839778056846
1755687409.5482411,9.81,0.353,0.955,-0.0097,0.0856,-0.0018,9.276039471940598,84.44337047278664,19.097386934673363,1,0.1,0.5517161233369929,0.08616664087684978,4.885899497487437,4.968839778056846
1755687409.6469576,9.65,0.288,0.972,-0.027,0.0411,0.0049,9.275014860365454,84.25080229090104,19.10442211055276,1,0.1,0.5517193222554382,0.049418822325102,4.887587939698493,4.968839778056846
1755687409.7466373,9.786,0.341,1.2,0.0093,0.0098,0.0094,9.275178139259644,83.01325264393839,19.11547738693467,1,0.1,0.5517195868826844,0.016458736281987144,4.8907839195979905,4.968839778056846
1755687409.865911,9.745,0.38,1.319,0.0048,0.0069,-0.0007,9.274988670343484,82.29755971450568,19.11386934673367,1,0.1,0.5517196883835124,0.008434453153583817,4.891005025125628,4.968839778056846
1755687409.9669354,9.733,0.308,1.157,0.0049,0.0242,0.0038,9.274434756900282,83.2241982187212,19.10643216080402,1,0.1,0.5517197536340348,0.024981793370372752,4.890814070351759,4.968839778056846
1755687410.0910215,9.621,0.272,1.29,-0.0055,0.012,-0.0042,9.273750629869234,82.36624583520184,19.104020100502513,1,0.1,0.551719772846687,0.013852436608770315,4.891658291457286,4.968839778056846
1755687410.1844888,9.914,0.5,1.323,0.0281,-0.0148,-0.016,9.273889421650445,82.40845718957269,19.113567839195976,1,0.1,0.55172312236302,0.03556191783354773,4.894653266331659,4.968839778056846
1755687410.2790456,9.54,0.296,1.338,-0.0063,0.0278,-0.002,9.273111802679832,82.02004383171014,19.141306532663314,1,0.1,0.5517232528632449,0.028574989063864922,4.897768844221106,4.968839778056846
1755687410.3733406,9.729,0.308,1.359,0.0004,-0.0508,-0.0104,9.272801356116716,82.05199574536127,19.15547738693467,1,0.1,0.55172305018007,0.0518551829617831,4.898180904522613,4.968839778056846
1755687410.4673722,9.69,0.382,1.064,0.0039,-0.0149,-0.0016,9.27253943049044,83.73862674134948,18.749648241206028,1,0.1,0.5517230429300556,0.015484831287424478,4.6357989949748735,4.968839778056846
1755687410.5741088,9.671,0.365,1.247,0.0097,-0.0884,-0.0287,9.289094727151832,82.65786647800954,18.730653266331657,1,0.1,0.519938146802098,0.09344699032071606,4.473195979899497,4.968839778056846
1755687410.6740243,9.526,0.363,0.988,0.0541,-0.2873,-0.0604,9.304228126233793,84.0829380000164,18.441206030150752,1,0.1,0.5152527396821874,0.29852346641428373,4.304623115577889,4.968839778056846
1755687410.7680066,9.876,0.418,0.996,0.0449,-0.1672,-0.0455,9.309169878404841,84.24627736794316,18.09969849246231,1,0.1,0.5126325539311759,0.17900307259932718,4.246914572864322,4.968839778056846
1755687410.8701487,10.015,0.49,1.024,-0.0081,0.1207,0.0373,9.328967543624536,84.16891441895045,18.035979899497484,1,0.1,0.5125203365233422,0.1265914294097353,4.196110552763819,4.968839778056846
1755687410.965606,9.438,0.344,0.931,0.0012,0.0609,0.0109,9.343432102016903,84.37006780210804,18.0086432160804,1,0.1,0.511713283734163,0.061879398833537484,4.193919597989949,4.968839778056846
1755687411.0590222,9.738,0.505,1.024,0.0159,0.0661,0.0057,9.356532593060317,84.00511653961796,17.897587939698493,1,0.1,0.5107776838801789,0.06822396939492748,4.190261306532663,4.968839778056846
1755687411.1539264,9.926,0.51,1.074,-0.0055,0.0401,-0.0036,9.375148714553813,83.83265445067993,17.869949748743718,1,0.1,0.5100457781415312,0.04063520641020542,4.1721005025125635,4.968839778056846
1755687411.2714982,9.76,0.454,1.048,-0.0059,0.026,-0.002,9.391478770672911,83.8778004321941,17.834673366834167,1,0.1,0.5098790725260255,0.026735930879623396,4.171899497487437,4.968839778056846
1755687411.3653038,9.702,0.406,1.243,-0.0168,0.0098,0.0066,9.405807907617506,82.70547208167159,17.832663316582913,1,2.0,0.5097091540771069,0.020538743875904385,4.143949748743719,4.968839778056846
1755687411.4570277,9.7,0.483,1.076,-0.0039,-0.0004,-0.0026,9.420366019959097,83.67795047791037,17.710251256281403,1,2.0,0.5096580969139998,0.00470425339453563,4.136090452261307,4.968839778056846
1755687411.5504422,9.86,0.464,1.088,-0.0035,-0.0014,0.0069,9.431284011469488,83.71008615736544,17.594974874371857,1,2.0,0.5094750296138173,0.007862569554541314,4.114211055276383,4.968839778056846
1755687411.6649547,9.545,0.327,1.017,0.0171,0.0302,0.005,9.43493407767113,83.92173761264584,17.581608040201,1,2.0,0.508645681589847,0.035063513799960214,4.095316582914573,4.968839778056846
1755687411.756068,9.745,0.411,1.167,-0.0093,-0.0015,-0.0007,9.43746434986644,83.17714569128344,17.494874371859293,1,2.0,0.5067538670794729,0.00944616324229049,4.096994974874371,4.968839778056846
1755687411.8504477,9.857,0.445,0.965,0.0065,0.0072,0.0016,9.445478039517111,84.41421635720353,17.432562814070348,1,2.0,0.5049138271527133,0.00983107318658548,4.070261306532664,4.968839778056846
1755687411.9479814,9.566,0.457,1.076,0.0005,0.0505,0.0042,9.448680731721227,83.58949852959515,17.327336683417084,1,2.0,0.5043795607476576,0.05067681915826999,4.069015075376884,4.968839778056846
1755687412.0447752,9.826,0.339,1.221,-0.0093,0.001,-0.0182,9.45904684970954,82.9207811341018,17.3337688442211,1,2.0,0.5039034369301325,0.020462893246068602,4.0604422110552765,4.968839778056846
1755687412.1404746,9.752,0.473,1.34,-0.0137,-0.008,0.0155,9.468225177930655,82.18518636825432,17.30974874371859,1,2.0,0.5036751950910427,0.022179720467129425,4.050643216080402,4.968839778056846
1755687412.232714,9.812,0.344,1.205,-0.004,-0.1095,-0.0008,9.478961180424783,83.0028877650474,17.252562814070348,1,2.0,0.5036118913905826,0.10957595539168252,4.045628140703518,4.968839778056846
1755687412.3219972,9.514,0.288,1.06,-0.0117,-0.0096,0.0195,9.490534568452928,83.64551031125254,17.252361809045222,1,2.0,0.5035984152079909,0.024684002916869056,4.039638190954774,4.968839778056846
1755687412.429068,9.898,0.493,1.556,0.127,-0.5737,-0.0291,9.505108614318933,81.07690367501222,17.277085427135674,1,2.0,0.503606161946019,0.5883090174389646,4.0444422110552765,4.968839778056846
1755687412.516055,8.882,0.113,1.661,0.1058,-0.4502,-0.0942,9.514169867360998,79.40844854067157,17.36793969849246,1,2.0,0.5036573183723234,0.471961142468318,4.0381608040201,4.968839778056846
1755687412.6015058,10.515,0.759,0.314,0.049,-0.3502,-0.1455,9.531922437000839,88.29397198809012,17.52321608040201,1,2.0,0.5036052899841303,0.382375849132761,4.037608040201005,4.968839778056846
1755687412.7149513,9.674,0.663,0.314,-0.0246,0.0421,0.0666,9.545496089779723,88.14528610447408,17.560603015075376,1,2.0,0.5035952806569974,0.08254168643782366,4.044311557788944,4.968839778056846
1755687412.8169234,9.7,0.399,0.297,-0.0236,0.4861,0.2025,9.557538585849393,88.24771472741271,17.269648241206028,1,2.0,0.5035812878274967,0.5271208779777178,4.012341708542713,4.968839778056846
1755687412.9274645,9.86,0.337,0.767,-0.0274,0.191,0.0342,9.55756437043455,85.55455871719667,17.26753768844221,1,2.0,0.5032467210524079,0.19596275156263754,3.9941809045226124,4.968839778056846
1755687413.0268629,9.45,0.303,0.746,-0.0711,0.2832,0.0498,9.554577055788497,85.48863749243924,17.23829145728643,1,2.0,0.5022849659804681,0.29620514850353297,3.9793969849246222,4.968839778056846
1755687413.1315427,10.134,0.507,1.031,-0.0085,0.1914,-0.0123,9.551283507989908,84.1981087626934,17.257688442211055,1,2.0,0.5002660890466193,0.191983072170439,3.9683115577889447,4.968839778056846
1755687413.2344458,9.316,0.089,0.884,-0.0722,-0.0087,0.0341,9.54652048392502,84.57965059099682,17.321407035175877,1,2.0,0.4992179145924152,0.08032023406340397,3.9627135678391956,4.968839778056846
1755687413.3327813,9.709,0.466,0.82,0.0107,0.0709,-0.0377,9.544692637010371,85.1779108604942,17.29939698492462,1,2.0,0.49862552953092965,0.08100981422025359,3.966412060301508,4.968839778056846
1755687413.4291172,9.776,0.166,1.174,-0.0044,-0.0308,-0.0212,9.546334161079843,83.15311994461564,17.224422110552762,1,2.0,0.49786205463963606,0.03764890436652839,3.933115577889447,4.968839778056846
1755687413.544629,9.712,0.49,0.889,-0.0149,0.0822,0.0167,9.551498405485916,84.7765415670598,17.100703517587934,1,2.0,0.49785357993088686,0.08519237055041959,3.909427135678391,4.968839778056846
1755687413.6373644,9.862,0.346,1.195,-0.0233,-0.0749,0.0695,9.562839128104162,83.09523561843605,17.10190954773869,1,2.0,0.49765034939202046,0.10480052480784627,3.900924623115577,4.968839778056846
1755687413.7293868,9.647,0.363,0.803,0.0497,-0.0701,-0.0216,9.572536927847288,85.24511465691191,17.054773869346732,1,2.2,0.4972239127898014,0.08860395025053905,3.90027135678392,4.968839778056846
1755687413.8232543,9.969,0.356,1.126,0.0047,-0.1049,0.0082,9.586419558938571,83.55981605923849,17.02221105527638,1,2.2,0.49698938610396903,0.10532492582480178,3.8860201005025123,4.968839778056846
1755687413.917835,9.423,0.06,0.292,0.0009,0.0783,0.0253,9.595128336035948,88.22512185802928,16.92180904522613,1,2.2,0.4969851011348328,0.08229088649419206,3.854201005025125,4.968839778056846
1755687414.0088913,9.867,0.409,1.404,0.0448,0.1905,0.0008,9.599450264728704,81.90846168591453,16.94361809045226,1,2.2,0.4965684633059172,0.1956985692334004,3.844884422110552,4.968839778056846
1755687414.100122,9.531,0.108,1.404,-0.0434,0.0709,0.0439,9.600997667430192,81.62062629548194,16.83155778894472,1,2.2,0.4956557195776117,0.09400840387965323,3.8214673366834164,4.968839778056846
1755687414.1880398,9.969,0.358,0.908,0.0286,0.0747,0.014,9.597257415011853,84.79905944204637,16.78100502512563,1,2.2,0.4928221557012225,0.08120375607076313,3.828241206030151,4.968839778056846
1755687414.273594,9.781,0.231,1.221,-0.0051,0.0787,0.0562,9.597547020723578,82.88631972883724,16.790050251256282,1,2.2,0.489932895813294,0.09684079718796205,3.7683919597989948,4.968839778056846
1755687414.3590512,9.688,0.221,1.2,0.0244,0.0301,0.0283,9.597858935981504,82.94086472952458,16.798894472361805,1,2.2,0.48985696116315425,0.04798187157666945,3.743939698492462,4.968839778056846
1755687414.444801,8.212,-1.0,5.879,2.4846,0.3339,-0.55,9.591261651628528,54.60034601995514,16.919396984924624,1,2.2,0.5203036761353892,2.5665592473192587,3.9597587939698484,4.968839778056846
1755687414.5310404,9.907,0.149,6.024,0.8985,-1.6185,-0.3742,9.594037561683818,58.70097795764415,17.03638190954774,1,2.2,0.5231528452087401,1.8886159323695224,4.110402010050251,4.968839778056846
1755687414.633314,12.034,3.917,-1.084,0.5168,0.1211,-0.2067,9.611473137349966,94.89571446333552,17.216783919597987,1,2.2,0.5237603752194318,0.5696247361201935,4.095989949748744,4.968839778056846
1755687414.7189176,12.494,3.203,3.987,0.7999,0.4676,0.571,9.633298014958324,72.8227364970367,17.241206030150753,1,2.2,0.5266972324305492,1.0883615070370691,4.09588944723618,4.968839778056846
1755687414.8084762,8.484,2.038,4.194,0.3102,1.9232,0.8403,9.632298562908025,64.32787238424004,17.626733668341707,1,2.2,0.5270698718860717,2.1215622474959344,4.129557788944723,4.968839778056846
1755687414.9008548,9.388,0.952,8.488,-1.2971,0.6661,1.2996,9.634697644711016,48.02799193892824,17.704221105527637,1,2.2,0.5349884460901937,1.953232648713409,4.288261306532663,4.968839778056846
1755687414.991689,6.813,-1.648,3.75,-1.5699,-0.9537,0.509,9.626876884275607,61.85369039175022,17.8686432160804,1,2.2,0.5463838909137054,1.906098292323877,4.311125628140703,4.968839778056846
1755687415.0835705,3.646,0.425,3.785,-2.0928,-1.7751,-0.9163,9.605932458902675,44.12158925915984,18.029547738693466,1,2.2,0.566057416919874,2.8931639324448932,4.350110552763819,4.968839778056846
1755687415.1726635,8.887,1.908,-2.051,-2.7648,2.2582,-2.1656,9.593517064664033,102.71553572209586,18.39437185929648,1,2.2,0.5987212400190927,4.175333476502207,4.339557788944723,4.968839778056846
1755687415.2596424,10.706,-0.341,-1.858,-0.0653,-1.3338,-0.3831,9.599152285748987,99.84058611563877,18.43678391959799,1,2.2,0.5972828170138498,1.3892631644148636,4.607145728643215,4.968839778056846
1755687415.3451579,9.171,-0.067,-0.604,0.7216,-0.3925,-1.3787,9.603347240936362,93.76794521678205,18.58070351758794,1,2.2,0.5978155209594345,1.6048602742918152,4.668572864321608,4.968839778056846
1755687415.43024,11.366,-0.646,3.481,0.3889,0.6961,0.3288,9.61970195822095,72.99789675420298,18.745929648241205,1,2.2,0.5975954751334719,0.8625009333328284,4.69105527638191,4.968839778056846
1755687415.517657,7.568,-0.526,2.723,0.1861,-1.1308,1.0745,9.619607401812196,70.25498224527514,19.113668341708543,1,2.2,0.5972495179571098,1.5709526090878745,4.694231155778893,4.968839778056846
1755687415.6041722,8.162,-2.47,3.158,-0.646,-1.3285,-0.6398,9.62138742489876,69.67894657684707,19.014974874371855,1,2.2,0.5988713119276963,1.609836106564889,4.77486432160804,4.968839778056846
1755687415.708806,14.912,2.422,-2.89,-0.336,-0.2735,1.6061,9.65659533453691,100.82966552479247,19.6886432160804,1,3.5,0.5992588897963883,1.6635069762402561,4.800150753768844,4.968839778056846
1755687415.7938068,9.492,-0.911,1.49,-0.1459,0.0727,0.3909,9.657268619801355,81.11898952597834,20.14994974874372,1,3.5,0.5993188825658674,0.42352675240178156,4.8040100502512555,4.968839778056846
1755687415.880657,8.138,-0.774,-0.722,-0.3809,0.0666,0.7996,9.64755943930899,95.04732480144348,20.26251256281407,1,3.5,0.5996939985109072,0.8881894673998335,4.80729648241206,4.968839778056846
1755687415.9718626,5.747,0.219,1.694,-0.1063,-0.9358,0.1321,9.630448103800779,73.58773113128899,20.469045226130653,1,3.5,0.599736699769157,0.9510371917017757,4.816331658291456,4.968839778056846
1755687416.061728,9.714,1.581,2.314,0.8964,0.0398,0.0754,9.627477898182887,76.76897720120232,20.812864321608043,1,3.5,0.6029808866373793,0.9004455341662815,4.9108241206030145,4.968839778056846
1755687416.1545906,9.7,-0.187,0.634,0.0009,-0.0036,-0.0032,9.627275974022973,86.26111250477288,20.80180904522613,1,3.5,0.6029475294335321,0.0049,4.985527638190955,4.968839778056846
1755687416.24778,9.698,-0.235,0.546,0.0101,0.0118,0.0056,9.627687231105922,86.7785776920108,20.778090452261306,1,3.5,0.6029317557153546,0.016510905486980414,4.975326633165829,4.968839778056846
1755687416.3415773,9.705,-0.132,0.696,-0.0015,0.0041,-0.0018,9.629307458223566,85.8983989817659,20.74522613065326,1,3.5,0.6029221318711065,0.004722287581247039,4.95459296482412,4.968839778056846
1755687416.4341087,9.76,-0.127,0.611,-0.0041,-0.0015,-0.0027,9.63280231526631,86.41812047463777,20.70361809045226,1,3.5,0.6028027792736195,0.00513322510708424,4.92678391959799,4.968839778056846
1755687416.5251858,9.85,-0.055,0.758,0.0048,0.0021,-0.0038,9.638897230492708,85.59958371233533,20.694874371859296,1,3.5,0.6019661958116918,0.006472248450113762,4.9085829145728646,4.968839778056846
1755687416.6162505,9.874,-0.159,0.67,0.0088,-0.0054,-0.0042,9.645889652074608,86.11864853839508,20.585326633165828,1,3.5,0.6016878618519739,0.011146299834474219,4.90251256281407,4.968839778056846
1755687416.7070932,9.714,-0.115,0.698,0.0028,0.0013,-0.0007,9.646896155759116,85.89035930423914,20.394170854271355,1,3.5,0.60153052831922,0.0031654383582688825,4.886381909547738,4.968839778056846
1755687416.817187,9.779,-0.103,0.634,0.0109,-0.0035,0.0026,9.636958143781678,86.29075056570217,20.396683417085423,1,3.5,0.6015277404243299,0.011739676315810415,4.88651256281407,4.968839778056846
1755687416.9035323,9.783,-0.094,0.67,0.0063,0.0005,0.0025,9.626789326146074,86.08233068349844,20.094472361809043,1,3.5,0.6015260198029675,0.006796322535018479,4.854733668341708,4.968839778056846
1755687416.9996212,9.726,-0.139,0.722,-0.0035,0.0037,-0.0023,9.632133204280347,85.7549234717048,20.083919597989947,1,9.8,0.6010394759913862,0.005588380803059147,4.847879396984924,4.968839778056846
1755687417.090264,9.814,-0.089,0.641,0.0091,-0.0032,-0.0018,9.637190302157574,86.26319557342055,20.08984924623115,1,9.8,0.6003052937464403,0.009812746812182612,4.84156783919598,4.968839778056846
1755687417.1802638,9.652,-0.178,0.753,0.0092,-0.0023,-0.0015,9.641295050977332,85.5398652142611,19.898391959798992,1,9.8,0.5992822937898299,0.009601041610158765,4.77137688442211,4.968839778056846
1755687417.271296,9.869,-0.086,0.653,0.0055,-0.0018,0.0004,9.654806752079505,86.21458380037166,19.572763819095474,1,3.5,0.5991104855533744,0.00580086200490927,4.7671758793969845,4.968839778056846
1755687417.3623238,9.771,-0.091,0.63,0.0113,-0.002,-0.0002,9.652672497552167,86.31103403169314,19.502814070351757,1,3.5,0.5988532801112473,0.01147736903649961,4.756542713567839,4.968839778056846
1755687417.4514768,9.776,-0.142,0.713,0.0039,-0.0076,0.002,9.654588376777127,85.82903026476058,19.384020100502507,1,3.5,0.598311764133048,0.008773254812211943,4.749386934673367,4.968839778056846
1755687417.5385811,9.771,-0.079,0.641,-0.0017,0.005,0.0001,9.661883506076856,86.24676605986011,19.37155778894472,1,3.5,0.5975070653138757,0.005282045058497703,4.734814070351759,4.968839778056846
1755687417.6256425,9.795,-0.106,0.582,0.0008,-0.0012,-0.0026,9.669837414868981,86.59979192645142,19.296381909547733,1,3.5,0.5960522828158618,0.0029732137494637013,4.7261608040200995,4.968839778056846
1755687417.7146804,9.872,-0.11,0.646,0.0073,0.0001,0.0008,9.674801236717993,86.25627125364493,19.059899497487432,1,3.5,0.5941219136254781,0.007344385610791416,4.704110552763819,4.968839778056846
1755687417.8004236,9.583,-0.154,0.589,0.0073,-0.0018,-0.0044,9.665671602894442,86.48330645808763,19.078592964824114,1,9.8,0.5906749042409031,0.008711486669908874,4.5058391959799,4.968839778056846
1755687417.9037917,9.848,-0.067,0.717,0.0029,-0.0035,0.002,9.658464857833257,85.83592906704652,18.878090452261304,1,9.8,0.5858182990911089,0.004965883607174055,4.430984924623116,4.968839778056846
1755687417.9901974,9.731,-0.156,0.739,0.0004,0.0021,-0.003,9.662411571134816,85.6576863856324,18.858190954773864,1,9.8,0.5715363716772538,0.0036837480912787724,4.300010050251256,4.968839778056846
1755687418.075418,9.781,-0.098,0.677,0.0045,0.0032,-0.0003,9.66513100040553,86.04073833195396,18.57226130653266,1,9.8,0.5703863989875635,0.005529918625079396,4.25972864321608,4.968839778056846
1755687418.1610942,9.74,-0.207,0.632,0.0041,0.0046,0.002,9.679285139409831,86.28828542545787,18.320201005025122,1,7.4,0.5703357251654503,0.006478425734698207,4.196221105527639,4.968839778056846
1755687418.2459643,9.874,-0.154,0.715,0.0071,-0.0067,0.0018,9.684089558136067,85.85880618140874,18.27477386934673,1,7.4,0.569127877545987,0.009926731586982696,4.174653266331658,4.968839778056846
1755687418.3317513,9.788,-0.135,0.615,0.0055,0.0021,-0.0024,9.691052430463886,86.40505661637047,17.979597989949745,1,7.4,0.5687135836253606,0.006357672530100933,4.125015075376884,4.968839778056846
1755687418.4177303,9.719,-0.127,0.649,0.0049,-0.002,-0.001,9.682365062834597,86.17998994223697,17.831758793969847,1,7.4,0.5658749212060912,0.005386093203798092,4.093788944723618,4.968839778056846
1755687418.5040681,9.69,-0.079,0.494,-0.0045,0.003,0.0034,9.681917656383987,87.08166209665022,17.80010050251256,1,7.4,0.5603665422292805,0.006388270501473775,3.96761809045226,4.968839778056846
1755687418.589906,9.633,-0.192,0.71,-0.0059,0.0026,-0.0066,9.6828924823629,85.78547237006626,17.78613065326633,1,7.4,0.5602650994395421,0.009226592003551474,3.9653165829145727,4.968839778056846
1755687418.6747994,9.826,-0.067,0.658,-0.0003,0.0025,0.0001,9.683872025176706,86.16898560170145,17.624623115577887,1,7.4,0.560128116505501,0.0025199206336708304,3.932964824120603,4.968839778056846
1755687418.761015,9.764,-0.209,0.644,-0.0019,-0.0055,0.0018,9.674746357140325,86.22729398586543,17.289346733668342,1,7.4,0.5589990952586597,0.006090976933136425,3.7974773869346725,4.968839778056846
1755687418.865636,9.76,-0.149,0.772,0.0052,0.0025,-0.0015,9.68268349322645,85.47793875795752,17.158693467336683,1,7.4,0.5434364681358806,0.005961543424315552,3.7686130653266328,4.175333476502207
1755687418.951214,9.783,-0.089,0.432,0.0,-0.0039,0.0026,9.69569481110044,87.47166665654605,17.120502512562815,1,7.4,0.5321511221918075,0.004687216658103186,3.61956783919598,4.175333476502207
1755687419.0361717,9.862,-0.01,0.965,0.0005,-0.0078,-0.0015,9.71044292038216,84.41138277463146,17.02653266331658,1,7.4,0.5321281688183778,0.007958643100428615,3.5134170854271356,4.175333476502207
1755687419.1213613,9.743,-0.115,0.703,0.0057,0.0002,0.0001,9.72100580984293,85.87329787679181,16.934472361809043,1,7.4,0.527533581205974,0.005704384278780665,3.419226130653266,4.175333476502207
1755687419.207519,9.895,-0.034,0.748,0.0025,0.0046,-0.0004,9.735951106851347,85.67704541513078,16.466030150753767,1,9.8,0.509590666466724,0.005250714237130031,3.4162512562814067,4.175333476502207
1755687419.2923265,9.59,-0.173,0.677,0.0077,-0.0044,-0.0023,9.727822718111181,85.96259439467651,16.493266331658287,1,9.8,0.4903424556368743,0.009161877536837086,3.256211055276381,4.175333476502207
1755687419.3780463,9.781,-0.062,0.758,-0.0031,0.0006,-0.0038,9.720444389018436,85.56868408417768,16.29628140703517,1,9.8,0.48966502330675,0.00494064773081425,3.257185929648241,4.175333476502207
1755687419.464238,9.8,-0.106,0.634,0.0116,-0.0071,0.0074,9.724307127759797,86.29868800942046,16.27226130653266,1,9.8,0.4889831864185107,0.015483216720048841,3.2532964824120603,4.175333476502207
1755687419.5498152,9.852,-0.074,0.608,0.0045,0.003,0.0004,9.727220221111477,86.46866308541894,16.247336683417082,1,9.8,0.4880853120101034,0.005423098745182499,3.247658291457286,4.175333476502207
1755687419.635534,9.755,-0.185,0.672,-0.0004,-0.0004,-0.0024,9.7281930978985,86.05995468180213,16.251859296482408,1,9.8,0.487436826829898,0.0024657656011875906,3.2390753768844216,4.175333476502207
1755687419.7214575,9.721,-0.062,0.763,-0.0045,-0.0004,-0.0008,9.729250480381312,85.5121538989616,16.18914572864321,1,9.8,0.4870755337727404,0.004588027898781785,3.1926733668341702,4.175333476502207
1755687419.8073432,9.698,-0.163,0.582,0.0084,-0.0113,0.0036,9.733295789453848,86.56614704946766,16.16723618090452,1,9.8,0.4868697234373894,0.014533065746772083,3.1352361809045215,4.175333476502207
1755687419.9121273,9.7,-0.149,0.67,0.0064,-0.0051,0.0013,9.738429473226162,86.04919687928354,16.09507537688442,1,9.8,0.4861121808800927,0.00828613299434664,3.120321608040201,4.175333476502207
1755687419.9976041,9.855,-0.135,0.687,0.0033,0.0029,-0.0012,9.741024371697259,86.01268904178248,15.995376884422111,1,9.8,0.48464130039648906,0.00455411901469428,3.117939698492462,4.175333476502207
1755687420.0842235,9.762,-0.267,0.668,-0.0009,0.0052,-0.0024,9.737320519783664,86.086891150727,15.790251256281403,1,9.8,0.4830139406890861,0.005797413216254298,3.099386934673367,4.175333476502207
1755687420.169332,9.774,-0.014,0.696,-0.0059,0.0076,0.0038,9.743983009016386,85.92688537286797,15.593567839195979,1,9.8,0.482295793212008,0.01034456378974,3.05694472361809,4.175333476502207
1755687420.2565374,9.776,-0.209,0.587,0.0035,-0.0048,-0.0014,9.741230685082865,86.56458323571312,15.580804020100498,1,9.8,0.48228023321508834,0.006103277807866851,3.0199195979899494,4.175333476502207
1755687420.3432515,9.698,-0.118,0.829,0.0049,-0.0074,0.0005,9.737400457771058,85.11450562631904,15.507135678391958,1,9.8,0.4813088373902976,0.008889319434017433,3.014422110552764,4.175333476502207
1755687420.4283464,9.848,-0.12,0.62,0.0019,-0.0023,0.0008,9.738500463367037,86.39785389598615,15.503517587939694,1,9.8,0.48057161505856755,0.0030886890422961,2.9894070351758795,4.175333476502207
1755687420.513745,9.667,-0.163,0.896,0.0087,-0.0058,0.0018,9.7377652847047,84.7053347344755,15.470452261306528,1,9.8,0.48049110834645004,0.010609901036296238,2.9645728643216076,4.175333476502207
1755687420.5992768,9.957,-0.101,0.48,0.0123,-0.0083,0.0049,9.740993784260413,87.2402040782596,15.454974874371857,1,9.8,0.4804050358291428,0.015626579920123278,2.952361809045226,4.175333476502207
1755687420.6848752,9.731,-0.5,0.556,-0.0068,0.0018,-0.0048,9.740908796924442,86.73414638773004,15.457788944723616,1,9.8,0.4800686275940139,0.008515867542417507,2.9483517587939696,4.175333476502207
1755687420.7698677,9.824,0.12,0.981,0.0093,-0.0044,0.0018,9.742271119713308,84.29791382187844,15.437688442211053,1,9.8,0.4798704087563641,0.010444615837837215,2.9353869346733665,4.175333476502207
1755687420.854818,9.812,-0.154,0.525,0.0011,0.0014,-0.0006,9.742114762463025,86.93763408540657,15.39477386934673,1,9.8,0.4798572861278653,0.0018788294228055935,2.931798994974874,4.175333476502207
1755687420.9570858,9.533,-0.137,0.732,0.0064,-0.0058,0.0038,9.738305441399957,85.60955964226275,15.360703517587938,1,9.8,0.47985729274441585,0.00943610088966836,2.930261306532663,4.175333476502207
1755687421.042254,9.876,-0.161,0.67,0.0027,0.0021,0.0022,9.739368833245818,86.11944463980171,15.383216080402006,1,9.8,0.479856265354533,0.004066939881532551,2.9161809045226126,4.175333476502207
1755687421.127198,9.683,-0.209,0.587,0.0027,0.0022,-0.0008,9.738869147390778,86.53168332527298,15.316381909547735,1,9.8,0.47976892417079287,0.0035735136770411275,2.9089547738693464,4.175333476502207
1755687421.2112045,9.776,-0.091,0.729,0.0089,-0.0091,0.0034,9.74295360889089,85.73550945286938,15.297185929648238,1,9.8,0.4795579285654654,0.013174976280813563,2.9011055276381907,4.175333476502207
1755687421.2975235,9.831,-0.199,0.632,-0.0064,0.0002,-0.0019,9.74599196721401,86.32247109463052,15.278994974874369,1,9.8,0.47913243388441157,0.006679071791798618,2.8941608040200997,4.175333476502207
1755687421.383713,9.726,-0.13,0.57,-0.0003,-0.001,-0.0019,9.747373732447116,86.64627040276157,15.213869346733667,1,9.8,0.47841720244991187,0.0021679483388678798,2.8814773869346735,4.175333476502207
1755687421.4694297,9.893,-0.065,0.679,0.0041,-0.007,0.0024,9.745801963153161,86.07378117976218,15.15015075376884,1,9.8,0.47812169941344435,0.008459905436823748,2.8531859296482414,4.175333476502207
1755687421.5560977,9.631,-0.163,0.589,-0.0009,0.0057,-0.0006,9.746944068014344,86.50083885600797,15.166432160804016,1,9.8,0.4781096061051273,0.005801723881744115,2.845105527638191,4.175333476502207
1755687421.6414943,9.8,-0.053,0.677,0.006,0.0021,0.0025,9.7494075522567,86.04825000118664,15.182211055276378,1,9.8,0.478102519340779,0.0068308125431752265,2.8456080402010047,4.175333476502207
1755687421.7263093,9.793,-0.144,0.627,0.0101,-0.006,0.0022,9.751778015315976,86.3370142788677,15.136482412060301,1,9.8,0.47809649993489806,0.011951987282456418,2.841939698492462,4.175333476502207
1755687421.8124006,9.74,-0.219,0.694,0.004,0.0001,-0.0011,9.751622954923965,85.9254428429207,15.141809045226127,1,9.8,0.4780964422059633,0.004149698784249286,2.83470351758794,4.175333476502207
1755687421.8983123,9.75,0.024,0.782,0.0071,-0.0015,0.0033,9.751517858774601,85.41441452415823,15.124120603015074,1,9.8,0.47806891558644554,0.007971825386948713,2.832834170854271,4.175333476502207
1755687422.0023005,9.705,-0.178,0.568,0.0048,-0.0027,-0.0011,9.750247506089268,86.65105956342632,15.097085427135678,1,9.8,0.47802223530919563,0.005616048432839588,2.827386934673366,4.175333476502207
1755687422.086185,9.838,-0.041,0.613,-0.0007,-0.0056,-0.0027,9.751221482716922,86.43457400706355,15.086532663316584,1,9.8,0.47801464606223104,0.0062561969278468205,2.823417085427135,4.175333476502207
1755687422.1715932,9.717,-0.086,0.744,0.0093,0.0034,-0.0014,9.750397430105092,85.62175671851627,15.06562814070352,1,9.8,0.4780148494032377,0.010000499987500624,2.822894472361808,4.175333476502207
1755687422.2561944,9.905,-0.187,0.72,-0.0043,-0.003,-0.0027,9.752158307267166,85.84318825342004,15.084522613065328,1,9.8,0.47801239173268306,0.005897457079114692,2.818884422110552,4.175333476502207
1755687422.3405862,9.774,-0.103,0.744,0.0029,-0.0054,0.0012,9.753258097169375,85.64726227078229,15.074874371859295,1,9.8,0.478007279128676,0.006245798587850876,2.8190452261306533,4.175333476502207
1755687422.424317,9.745,-0.151,0.665,0.0091,-0.006,-0.001,9.753087943313133,86.09664821909301,15.071256281407035,1,9.8,0.478000552248635,0.010945775440780795,2.817758793969849,4.175333476502207
1755687422.5099404,9.883,-0.127,0.592,0.0064,-0.0047,-0.0027,9.75393684083509,86.5723130736582,15.077889447236181,1,9.8,0.47799907191332497,0.008386894538504703,2.817165829145728,4.175333476502207
1755687422.5940425,9.762,-0.082,0.649,0.0029,0.0018,-0.0022,9.753816593262352,86.19657701355166,15.08211055276382,1,9.8,0.4779954152499792,0.0040607881008493905,2.8164522613065324,4.175333476502207
1755687422.6793168,9.852,-0.166,0.663,-0.0056,0.0024,-0.0036,9.7545434752222,86.15057393346116,15.088040201005024,1,9.8,0.47798834148962255,0.007076722405181653,2.8149447236180904,4.175333476502207
1755687422.7645402,9.714,-0.139,0.568,0.0008,-0.0035,0.0022,9.754423825629067,86.65393562617393,15.088040201005024,1,9.8,0.4779873631697809,0.00421070065428546,2.8150050251256276,4.175333476502207
1755687422.8503506,9.74,-0.204,0.649,0.0079,0.0029,-0.0048,9.755117742498038,86.18871073680282,15.073467336683414,1,9.8,0.4779873631697809,0.009688137075826291,2.8073969849246225,4.175333476502207
1755687422.9373207,9.75,-0.077,0.592,0.0045,-0.0035,-0.0031,9.755012683999954,86.52549161319507,15.050753768844219,1,9.8,0.4779444404426105,0.006489221833163049,2.801346733668341,4.175333476502207
1755687423.0407307,9.817,-0.07,0.641,0.0081,-0.0004,0.0009,9.756411163178806,86.26427580328325,15.050351758793967,1,9.8,0.4778202316248235,0.00815965685553014,2.7901608040200996,4.175333476502207
1755687423.1255827,9.705,-0.202,0.618,0.0015,-0.0016,0.0008,9.757594858877878,86.35719618672212,14.990954773869346,1,9.8,0.4778121212359519,0.0023345235059857505,2.783306532663316,4.175333476502207
1755687423.210465,9.903,-0.094,0.639,0.0015,0.0012,-0.003,9.756237237275444,86.30822227824433,14.956984924623114,1,9.8,0.4777438919023455,0.0035623026261113752,2.7797788944723614,4.175333476502207
1755687423.295359,9.702,-0.166,0.644,-0.0059,0.0073,0.0008,9.756588965668278,86.2029420162216,14.961608040201003,1,9.8,0.47771133150680023,0.009420191080864549,2.7740301507537684,4.175333476502207
1755687423.3803904,9.814,-0.142,0.565,0.0036,0.004,0.0012,9.756729587571852,86.70541626663625,14.970753768844219,1,9.8,0.4777102990306991,0.005513619500836089,2.774824120603015,4.175333476502207
1755687423.4641943,9.752,-0.094,0.649,0.0055,-0.0027,0.0013,9.756453941878679,86.19273075485023,14.951356783919596,1,9.8,0.47770958646441253,0.006263385665915839,2.7689346733668336,4.175333476502207
1755687423.5479782,9.705,-0.163,0.615,0.0051,-0.0039,0.0021,9.754645530463934,86.37455930175132,14.877286432160801,1,9.8,0.47769786502558287,0.006754998149518621,2.754914572864321,4.175333476502207
1755687423.6331177,9.795,-0.142,0.675,0.0091,-0.0051,-0.0014,9.7571723941929,86.05823794873527,14.883015075376882,1,9.8,0.47765371122812394,0.010525207836427745,2.7437587939698487,4.175333476502207
1755687423.718533,9.752,-0.058,0.646,-0.0035,0.0064,0.0004,9.759326157322542,86.21016973464334,14.848241206030147,1,9.8,0.47742880374983665,0.007305477397131552,2.7348944723618094,4.175333476502207
1755687423.8040907,9.845,-0.101,0.539,0.0029,-0.0056,-0.0003,9.760052108979746,86.86642919150613,14.854974874371857,1,9.8,0.4773694517352362,0.006313477647065838,2.731698492462312,4.175333476502207
1755687423.8891082,9.624,-0.178,0.736,0.0051,0.0018,-0.0004,9.759804950407565,85.6275350943393,14.829045226130653,1,9.8,0.4772599218979109,0.005423098745182499,2.7282412060301504,4.175333476502207
1755687423.9931383,9.891,-0.072,0.736,0.0069,-0.0044,0.0006,9.758459664824157,85.74451431751734,14.73396984924623,1,9.8,0.47708796112457086,0.008205485969764375,2.714994974874372,4.175333476502207
