timestamp,ax,ay,az,rms,tilt_now,jerk,tilt_crosses,freq
1755690905.2944224,-1.129,-0.271,11.342,0.05645,5.84495186395662,0.05659147869674185,0,2.5
1755690905.32306,-1.689,-0.238,8.666,0.10157955010729275,11.13491275224437,0.08466165413533835,1,0.05
1755690905.351014,-0.428,-0.884,11.815,0.10380927222555797,4.751975054677722,0.14786967418546365,1,0.05
1755690905.3779883,-3.301,0.781,9.548,0.1949817106807713,19.55867639525911,0.2918796992481203,2,0.05
1755690905.4054816,-1.565,1.805,9.916,0.2100974297796144,13.545686564956931,0.37889724310776945,2,0.05
1755690905.4329088,-1.944,0.971,10.275,0.23149248367927627,11.941259484399735,0.3978947368421053,2,0.05
1755690905.460146,-2.509,0.262,10.177,0.2632992071769302,13.921693332950518,0.4262155388471179,2,0.05
1755690905.4877248,-1.434,0.454,9.59,0.2728870874555995,8.91398152263536,0.48010025062656647,2,0.05
1755690905.5150952,-1.439,0.635,8.203,0.2822129780857004,10.854393402626325,0.48035087719298253,3,0.05
1755690905.5424814,0.001,0.767,8.317,0.2822129825149793,5.268961182440722,0.5525313283208021,3,0.05
1755690905.5696528,0.338,0.719,8.856,0.2827185482065158,5.1263611207594355,0.5694235588972433,3,0.05
1755690905.59523,0.094,0.144,10.08,0.282757612629616,0.9773729637766514,0.581654135338346,3,0.05
1755690905.6208248,-1.815,0.769,9.545,0.29696368464847683,11.66842270604044,0.6773433583959899,4,0.05
1755690905.6482282,0.264,2.091,10.981,0.29725690908707236,10.86474016129351,0.7815538847117793,4,0.05
1755690905.6757555,0.264,2.091,10.981,0.29725690908707236,10.86474016129351,0.7815538847117793,4,0.05
1755690905.703489,-0.151,1.122,9.536,0.29735277449521136,6.7704730274651,0.8023558897243107,4,0.05
1755690905.730907,-0.151,1.122,9.536,0.29735277449521136,6.7704730274651,0.8023558897243107,4,0.05
1755690905.758055,2.15,0.192,9.928,0.3161881125216443,12.26640008659586,0.9176942355889725,5,0.5
1755690905.785652,2.15,0.192,9.928,0.3161881125216443,12.26640008659586,0.9176942355889725,5,0.5
1755690905.8128939,1.985,0.051,9.51,0.33139928334261676,11.793722151115855,0.9259649122807017,5,0.7000000000000001
1755690905.8405852,1.985,0.051,9.51,0.33139928334261676,11.793722151115855,0.9259649122807017,5,0.7000000000000001
1755690905.8675346,1.41,0.786,9.595,0.33881519298874424,9.550101599777852,0.9547869674185463,5,0.7000000000000001
1755690905.8949425,1.41,0.786,9.595,0.33881519298874424,9.550101599777852,0.9547869674185463,5,0.7000000000000001
1755690905.9221997,1.472,0.125,9.933,0.34671702438732366,8.45937790471092,0.9578947368421052,5,0.7000000000000001
1755690905.95005,1.472,0.125,9.933,0.34671702438732366,8.45937790471092,0.9578947368421052,5,0.7000000000000001
1755690905.9773815,-0.232,0.07,9.115,0.34691101885065573,1.5229003434091348,1.0433082706766916,5,0.7000000000000001
1755690906.004386,-0.232,0.07,9.115,0.34691101885065573,1.5229003434091348,1.0433082706766916,5,0.7000000000000001
1755690906.0308833,1.63,-1.576,9.873,0.3563558684798105,12.933559630661767,1.1366416040100251,6,0.7000000000000001
1755690906.058693,1.63,-1.576,9.873,0.3563558684798105,12.933559630661767,1.1366416040100251,6,0.7000000000000001
1755690906.0860422,0.915,-1.37,8.659,0.3592806249994564,10.772336770390753,1.1724812030075187,6,0.65
1755690906.1134868,0.915,-1.37,8.659,0.3592806249994564,10.772336770390753,1.1724812030075187,6,0.65
1755690906.1404955,0.452,-1.62,12.121,0.3599907325196025,7.899756078105798,1.1956892230576441,6,0.65
1755690906.1676288,0.452,-1.62,12.121,0.3599907325196025,7.899756078105798,1.1956892230576441,6,0.65
1755690906.1950629,1.475,0.637,9.766,0.3674675359810714,9.34243513379646,1.2469674185463657,6,0.6000000000000001
1755690906.2225695,1.475,0.637,9.766,0.3674675359810714,9.34243513379646,1.2469674185463657,6,0.6000000000000001
1755690906.2492056,1.515,-0.159,12.383,0.37519388654401076,7.013125099381446,1.2489724310776942,6,0.6000000000000001
1755690906.2766447,1.515,-0.159,12.383,0.37519388654401076,7.013125099381446,1.2489724310776942,6,0.6000000000000001
1755690906.303885,1.415,-0.961,9.978,0.38180625322275696,9.727394095083435,1.2539849624060149,6,0.55
1755690906.3316636,1.415,-0.961,9.978,0.38180625322275696,9.727394095083435,1.2539849624060149,6,0.55
1755690906.3587177,0.042,0.094,11.788,0.38181202835950573,0.5004081740620238,1.3228070175438595,6,0.55
1755690906.3862433,0.042,0.094,11.788,0.38181202835950573,0.5004081740620238,1.3228070175438595,6,0.55
1755690906.4131725,1.89,0.067,9.7,0.39333277895441154,11.032428995883228,1.415438596491228,7,0.5
1755690906.440755,1.89,0.067,9.7,0.39333277895441154,11.032428995883228,1.415438596491228,7,0.5
1755690906.4676907,0.843,-0.964,9.001,0.3955847538770927,8.097325716532907,1.467919799498747,7,0.5
1755690906.4954553,0.843,-0.964,9.001,0.3955847538770927,8.097325716532907,1.467919799498747,7,0.5
1755690906.522786,0.798,-1.156,6.749,0.3975918856063338,11.757250280829417,1.4701754385964914,8,0.5
1755690906.5498164,0.798,-1.156,6.749,0.3975918856063338,11.757250280829417,1.4701754385964914,8,0.5
1755690906.576572,1.358,-0.894,9.279,0.40334813437029804,9.938399130087426,1.498245614035088,8,0.45
1755690906.6039262,1.358,-0.894,9.279,0.40334813437029804,9.938399130087426,1.498245614035088,8,0.45
1755690906.6308413,-0.945,-0.228,10.491,0.4061062422568754,5.294017043801219,1.6136842105263158,8,0.5
1755690906.657946,-0.945,-0.228,10.491,0.4061062422568754,5.294017043801219,1.6136842105263158,8,0.5
1755690906.6849988,1.136,-1.74,9.94,0.4100591664625972,11.807890628668316,1.7179949874686717,9,0.45
1755690906.7122662,1.136,-1.74,9.94,0.4100591664625972,11.807890628668316,1.7179949874686717,9,0.45
1755690906.739647,0.39,0.687,8.616,0.41052255723650555,5.238665580020468,1.7553884711779448,9,0.45
1755690906.767355,0.39,0.687,8.616,0.41052255723650555,5.238665580020468,1.7553884711779448,9,0.45
1755690906.7948983,0.943,0.916,8.728,0.4132213601690987,8.565753091735706,1.7831077694235586,9,0.45
1755690906.8223734,0.695,0.094,9.526,0.41467994284749293,4.210662391503524,1.7955388471177944,9,0.4
1755690906.849604,0.695,0.094,9.526,0.41467994284749293,4.210662391503524,1.7955388471177944,9,0.4
1755690906.8766282,-0.158,-0.805,10.42,0.4147551868271209,4.501569934791913,1.8382957393483703,9,0.45
1755690906.9041188,-0.158,-0.805,10.42,0.4147551868271209,4.501569934791913,1.8382957393483703,9,0.45
1755690906.9309597,-0.158,-0.805,10.42,0.4147551868271209,4.501569934791913,1.8382957393483703,9,0.45
1755690906.9580555,0.7,-1.151,9.785,0.41622934182971766,7.838891850805124,1.8813032581453628,9,0.4
1755690906.9858067,0.7,-1.151,9.785,0.41622934182971766,7.838891850805124,1.8813032581453628,9,0.4
1755690907.0129466,0.686,-0.425,9.631,0.4176402219614389,4.789632193166379,1.8820050125313277,9,0.4
1755690907.0399122,0.686,-0.425,9.631,0.4176402219614389,4.789632193166379,1.8820050125313277,9,0.4
1755690907.0673947,0.173,-1.218,9.671,0.4177297900557249,7.249522992494035,1.9077192982456137,9,0.4
1755690907.0950315,-1.274,-1.473,10.249,0.42255871485510743,10.759059779086888,1.9802506265664155,10,0.4
1755690907.1223564,-1.274,-1.473,10.249,0.42255871485510743,10.759059779086888,1.9802506265664155,10,0.4
1755690907.1491723,1.399,1.233,9.443,0.42830931579875775,11.171029256473586,2.114235588972431,10,0.4
1755690907.1767478,1.399,1.233,9.443,0.42830931579875775,11.171029256473586,2.114235588972431,10,0.4
1755690907.203932,1.399,1.233,9.443,0.42830931579875775,11.171029256473586,2.114235588972431,10,0.4
1755690907.2308276,0.421,0.012,10.382,0.4288262730990255,2.323068318215274,2.1632581453634083,10,0.4
1755690907.2581246,0.698,0.014,10.016,0.4302440964150467,3.9872110479271248,2.177142857142857,10,0.35000000000000003
1755690907.2858539,0.698,0.014,10.016,0.4302440964150467,3.9872110479271248,2.177142857142857,10,0.35000000000000003
1755690907.3128376,0.698,0.014,10.016,0.4302440964150467,3.9872110479271248,2.177142857142857,10,0.35000000000000003
1755690907.3400257,0.483,-0.62,9.954,0.4309213443309579,4.514502296389958,2.1879197994987463,10,0.35000000000000003
1755690907.367411,0.29,-1.519,11.289,0.4311652293494919,7.8001708271697385,2.197593984962406,10,0.35000000000000003
1755690907.3949006,0.29,-1.519,11.289,0.4311652293494919,7.8001708271697385,2.197593984962406,10,0.35000000000000003
1755690907.4221926,1.275,-0.661,9.543,0.4358526327785574,8.558400472166536,2.2469674185463657,10,0.30000000000000004
1755690907.4502065,1.275,-0.661,9.543,0.4358526327785574,8.558400472166536,2.2469674185463657,10,0.30000000000000004
1755690907.4776871,2.088,-0.476,8.699,0.4481817460584489,13.830372488336115,2.287719298245614,11,0.30000000000000004
1755690907.5063245,2.088,-0.476,8.699,0.4481817460584489,13.830372488336115,2.287719298245614,11,0.30000000000000004
1755690907.5337512,0.843,-0.699,9.636,0.4501594162071921,6.483676767600074,2.3501253132832076,11,0.25
1755690907.5618699,0.843,-0.699,9.636,0.4501594162071921,6.483676767600074,2.3501253132832076,11,0.25
1755690907.5892344,-0.318,-0.55,10.315,0.45044012920697907,3.524468459199929,2.4083208020050124,11,0.30000000000000004
1755690907.6165037,-0.318,-0.55,10.315,0.45044012920697907,3.524468459199929,2.4083208020050124,11,0.30000000000000004
1755690907.6442094,0.469,-0.332,9.681,0.45105012193768446,3.3968146323326462,2.4477694235588974,11,0.25
1755690907.6720922,0.469,-0.332,9.681,0.45105012193768446,3.3968146323326462,2.4477694235588974,11,0.25
1755690907.6996212,0.783,-0.291,9.381,0.4527459939082841,5.088452668558148,2.4635087719298245,11,0.25
1755690907.7273283,0.783,-0.291,9.381,0.4527459939082841,5.088452668558148,2.4635087719298245,11,0.25
1755690907.7547927,0.724,-0.618,9.721,0.45419090149407443,5.592646887873649,2.4664661654135336,11,0.25
1755690907.7822344,0.724,-0.618,9.721,0.45419090149407443,5.592646887873649,2.4664661654135336,11,0.25
1755690907.8096898,1.108,-0.894,10.627,0.45755713850840535,7.630445456292031,2.4857142857142853,11,0.25
1755690907.8373568,1.108,-0.894,10.627,0.45755713850840535,7.630445456292031,2.4857142857142853,11,0.25
1755690907.8643267,1.236,-0.389,9.36,0.46171178780706906,7.881751182450108,2.4921303258145358,11,0.25
1755690907.8912804,1.236,-0.389,9.36,0.46171178780706906,7.881751182450108,2.4921303258145358,11,0.25
1755690907.9184103,0.946,-0.512,8.942,0.4641282850678248,6.859367849004142,2.506666666666666,11,0.2
1755690907.9464085,0.946,-0.512,8.942,0.4641282850678248,6.859367849004142,2.506666666666666,11,0.2
1755690907.9734647,0.936,-0.497,9.648,0.466481837802931,6.268417601190989,2.5071679197994983,11,0.2
1755690908.0011256,0.936,-0.497,9.648,0.466481837802931,6.268417601190989,2.5071679197994983,11,0.2
1755690908.0284474,0.414,-0.56,10.36,0.46694089026342506,3.845732533193601,2.5333333333333328,11,0.2
1755690908.056073,0.414,-0.56,10.36,0.46694089026342506,3.845732533193601,2.5333333333333328,11,0.2
1755690908.0833642,0.95,-0.303,9.873,0.469350663150698,5.767186397463111,2.5602005012531324,11,0.2
1755690908.1109645,0.95,-0.303,9.873,0.469350663150698,5.767186397463111,2.5602005012531324,11,0.2
1755690908.1382992,0.979,-0.392,9.678,0.47189633130593417,6.2187033844917785,2.5616541353383457,11,0.2
1755690908.1658516,0.979,-0.392,9.678,0.47189633130593417,6.2187033844917785,2.5616541353383457,11,0.2
1755690908.1932766,0.771,-0.682,9.724,0.4734683199539332,6.042645564703923,2.572080200501253,11,0.2
1755690908.2212148,0.771,-0.682,9.724,0.4734683199539332,6.042645564703923,2.572080200501253,11,0.2
1755690908.2487168,0.264,-0.548,9.674,0.4736522880763905,3.597874841098391,2.5974937343358397,11,0.2
1755690908.2766228,0.264,-0.548,9.674,0.4736522880763905,3.597874841098391,2.5974937343358397,11,0.2
1755690908.3044062,0.54,-0.437,9.512,0.4744212157987878,4.176958592320984,2.6113283208020057,11,0.2
1755690908.332928,0.54,-0.437,9.512,0.4744212157987878,4.176958592320984,2.6113283208020057,11,0.2
1755690908.3606443,1.043,-0.613,9.724,0.4772788624064552,7.091949812076463,2.6365413533834587,11,0.2
1755690908.3891208,0.524,-0.151,9.569,0.4779974398467004,3.2616719229988864,2.662556390977444,11,0.15000000000000002
1755690908.417389,0.524,-0.151,9.569,0.4779974398467004,3.2616719229988864,2.662556390977444,11,0.15000000000000002
1755690908.4453917,0.307,-0.38,9.754,0.4782438447068608,2.8671932056996305,2.6734335839598997,11,0.15000000000000002
1755690908.4733655,0.307,-0.38,9.754,0.4782438447068608,2.8671932056996305,2.6734335839598997,11,0.15000000000000002
1755690908.500728,0.349,-0.276,9.481,0.4785620936722841,2.686935997003122,2.6755388471177945,11,0.15000000000000002
1755690908.5282202,0.349,-0.276,9.481,0.4785620936722841,2.686935997003122,2.6755388471177945,11,0.15000000000000002
1755690908.5555375,0.323,-0.245,9.567,0.4788345225649462,2.4264829747391206,2.676842105263157,11,0.15000000000000002
1755690908.5832124,0.323,-0.245,9.567,0.4788345225649462,2.4264829747391206,2.676842105263157,11,0.15000000000000002
1755690908.6102023,0.86,-0.442,9.845,0.48076137532043894,5.609365071479561,2.7037593984962407,11,0.15000000000000002
1755690908.6374671,0.86,-0.442,9.845,0.48076137532043894,5.609365071479561,2.7037593984962407,11,0.15000000000000002
1755690908.6646883,0.655,-0.219,10.101,0.4818755674445427,3.9114310259849545,2.714035087719297,11,0.15000000000000002
1755690908.6921854,0.655,-0.219,10.101,0.4818755674445427,3.9114310259849545,2.714035087719297,11,0.15000000000000002
1755690908.7192621,0.802,-0.235,9.968,0.4835411797355009,4.792490267358993,2.7214035087719295,11,0.15000000000000002
1755690908.7467291,0.802,-0.235,9.968,0.4835411797355009,4.792490267358993,2.7214035087719295,11,0.15000000000000002
1755690908.774067,0.555,-0.175,9.766,0.4843367991387811,3.4101086851177858,2.7337844611528817,11,0.15000000000000002
1755690908.8020086,0.555,-0.175,9.766,0.4843367991387811,3.4101086851177858,2.7337844611528817,11,0.15000000000000002
1755690908.829225,0.555,-0.175,9.766,0.4843367991387811,3.4101086851177858,2.7337844611528817,11,0.15000000000000002
1755690908.8570905,0.55,-0.202,9.728,0.48511687766970135,3.446784745455009,2.734035087719298,11,0.15000000000000002
1755690908.8842342,0.55,-0.202,9.728,0.48511687766970135,3.446784745455009,2.734035087719298,11,0.15000000000000002
1755690908.9114673,0.874,-0.394,9.598,0.4870811790656666,5.704111020464953,2.7502756892230575,11,0.15000000000000002
1755690908.939553,0.681,-0.199,9.686,0.488269881827663,4.189319455153049,2.759949874686716,11,0.15000000000000002
1755690908.9672418,0.681,-0.199,9.686,0.488269881827663,4.189319455153049,2.759949874686716,11,0.15000000000000002
1755690908.9948955,0.664,-0.341,9.75,0.4893973002581849,4.37792446161833,2.760802005012531,11,0.15000000000000002
1755690909.0227606,0.664,-0.341,9.75,0.4893973002581849,4.37792446161833,2.760802005012531,11,0.15000000000000002
1755690909.05005,0.547,-0.197,9.888,0.4901609327557634,3.3649944914491448,2.766666666666666,11,0.15000000000000002
1755690909.077958,0.547,-0.197,9.888,0.4901609327557634,3.3649944914491448,2.766666666666666,11,0.15000000000000002
1755690909.1056726,0.476,-0.214,9.721,0.49073840281763154,3.0730963898191104,2.7702255639097744,11,0.15000000000000002
1755690909.133893,0.476,-0.214,9.721,0.49073840281763154,3.0730963898191104,2.7702255639097744,11,0.15000000000000002
1755690909.16139,0.721,-0.252,9.707,0.4920607508224975,4.498901761727254,2.7825062656641597,11,0.15000000000000002
1755690909.1888325,0.721,-0.252,9.707,0.4920607508224975,4.498901761727254,2.7825062656641597,11,0.15000000000000002
1755690909.2158506,0.571,-0.428,9.588,0.4928883088489724,4.2564691517133015,2.790025062656641,11,0.1
1755690909.2439363,0.571,-0.428,9.588,0.4928883088489724,4.2564691517133015,2.790025062656641,11,0.1
1755690909.2711842,0.674,-0.81,9.669,0.49403904197947757,6.219643866172277,2.795187969924812,11,0.1
1755690909.2984605,0.674,-0.81,9.669,0.49403904197947757,6.219643866172277,2.795187969924812,11,0.1
1755690909.3257387,0.626,-0.692,9.871,0.4950295597234573,5.4002892692641415,2.7975939849624054,11,0.1
1755690909.3534482,0.626,-0.692,9.871,0.4950295597234573,5.4002892692641415,2.7975939849624054,11,0.1
1755690909.3805842,0.69,0.002,9.792,0.496230304395046,4.030740708442709,2.8008020050125313,11,0.1
1755690909.4082193,0.69,0.002,9.792,0.496230304395046,4.030740708442709,2.8008020050125313,11,0.1
1755690909.4353344,0.679,-0.089,10.032,0.4973903070024586,3.9050871086085683,2.801353383458647,11,0.1
1755690909.4632897,0.679,-0.089,10.032,0.4973903070024586,3.9050871086085683,2.801353383458647,11,0.1
1755690909.4903421,0.242,-0.281,9.59,0.4975374634135605,2.214514444190971,2.8232581453634085,11,0.1
1755690909.517907,0.242,-0.281,9.59,0.4975374634135605,2.214514444190971,2.8232581453634085,11,0.1
1755690909.5452316,0.559,-0.363,9.7,0.4983219140274688,3.930814029541009,2.8391478696741848,11,0.1
1755690909.572999,0.559,-0.363,9.7,0.4983219140274688,3.930814029541009,2.8391478696741848,11,0.1
1755690909.600552,0.707,-0.726,9.835,0.49957417116980735,5.882849394085663,2.8465664160400994,11,0.1
1755690909.627859,0.707,-0.726,9.835,0.49957417116980735,5.882849394085663,2.8465664160400994,11,0.1
1755690909.655264,0.698,-0.517,9.702,0.5007917356546532,5.1160244613370365,2.847017543859649,11,0.1
1755690909.6825242,0.698,-0.517,9.702,0.5007917356546532,5.1160244613370365,2.847017543859649,11,0.1
1755690909.7098238,0.879,-0.572,9.961,0.502716585165041,6.0101386362480165,2.856090225563909,11,0.1
1755690909.7378376,0.791,-0.682,9.339,0.5042699351537825,6.381092048755207,2.8605012531328318,11,0.1
1755690909.7653732,0.791,-0.682,9.339,0.5042699351537825,6.381092048755207,2.8605012531328318,11,0.1
1755690909.7929447,0.676,-1.122,9.5,0.5054014320320036,7.850730237059461,2.8662656641604003,11,0.1
1755690909.8209321,0.676,-1.122,9.5,0.5054014320320036,7.850730237059461,2.8662656641604003,11,0.1
1755690909.8482065,0.299,-0.988,9.688,0.5056224975216194,6.081895324674722,2.88516290726817,11,0.1
1755690909.8762064,0.299,-0.988,9.688,0.5056224975216194,6.081895324674722,2.88516290726817,11,0.1
1755690909.9040258,0.299,-0.988,9.688,0.5056224975216194,6.081895324674722,2.88516290726817,11,0.1
1755690909.9313712,0.783,-0.476,9.778,0.5071359112703417,5.353762185130134,2.909423558897243,11,0.1
1755690909.9589748,0.888,-0.584,9.697,0.5090758219558261,6.2548588243653445,2.9146867167919797,11,0.1
1755690909.9866157,0.888,-0.584,9.697,0.5090758219558261,6.2548588243653445,2.9146867167919797,11,0.1
1755690910.0142047,0.471,-0.692,9.719,0.509620245869412,4.922641588748435,2.935588972431077,11,0.1
1755690910.042011,0.471,-0.692,9.719,0.509620245869412,4.922641588748435,2.935588972431077,11,0.1
1755690910.069502,0.745,-0.697,9.7,0.5109798014599012,6.0040991252539655,2.9493233082706762,11,0.05
1755690910.0974884,0.745,-0.697,9.7,0.5109798014599012,6.0040991252539655,2.9493233082706762,11,0.05
1755690910.1248472,0.745,-0.697,9.7,0.5109798014599012,6.0040991252539655,2.9493233082706762,11,0.05
1755690910.1526337,0.686,-0.509,9.826,0.5121297174544747,4.968447555766032,2.9522807017543853,11,0.05
1755690910.1803877,0.755,-0.644,9.88,0.5135191427785336,5.7355758284785665,2.9557393483709276,11,0.05
1755690910.2077265,0.755,-0.644,9.88,0.5135191427785336,5.7355758284785665,2.9557393483709276,11,0.05
1755690910.235111,0.752,-0.658,9.788,0.5148938434279439,5.828996509560214,2.9558897243107767,11,0.05
1755690910.262341,0.752,-0.658,9.788,0.5148938434279439,5.828996509560214,2.9558897243107767,11,0.05
1755690910.2899516,0.614,-0.61,9.598,0.5158082589490013,5.152732341660231,2.9628070175438594,11,0.05
1755690910.3173883,0.614,-0.61,9.598,0.5158082589490013,5.152732341660231,2.9628070175438594,11,0.05
1755690910.3449605,0.736,-0.449,9.493,0.517119328588673,5.189321153670678,2.9689223057644107,11,0.05
1755690910.3723738,0.736,-0.449,9.493,0.517119328588673,5.189321153670678,2.9689223057644107,11,0.05
1755690910.4002855,0.562,-0.634,9.726,0.5178822356482214,4.978461979711198,2.9776441102756896,11,0.05
1755690910.4275322,0.562,-0.634,9.726,0.5178822356482214,4.978461979711198,2.9776441102756896,11,0.05
1755690910.4552822,0.879,-0.329,9.935,0.5197437950567568,5.396679787215323,2.9935338345864664,11,0.05
1755690910.4826894,0.879,-0.329,9.935,0.5197437950567568,5.396679787215323,2.9935338345864664,11,0.05
1755690910.5103223,0.912,-1.019,9.493,0.5217403305285111,8.197372494436676,2.9951879699248125,11,0.05
1755690910.5380106,0.912,-1.019,9.493,0.5217403305285111,8.197372494436676,2.9951879699248125,11,0.05
1755690910.5651066,0.81,-1.141,9.358,0.5233098723509809,8.504289624879753,3.000300751879699,11,0.05
1755690910.5904727,0.81,-1.141,9.358,0.5233098723509809,8.504289624879753,3.000300751879699,11,0.05
1755690910.6155047,0.788,-0.865,9.503,0.5247909893471876,7.019560157811626,3.0014035087719297,11,0.05
1755690910.6427877,0.788,-0.865,9.503,0.5247909893471876,7.019560157811626,3.0014035087719297,11,0.05
1755690910.670409,0.807,-0.863,9.994,0.526339913933952,6.742447552617488,3.0023558897243117,11,0.05
1755690910.6984172,0.807,-0.863,9.994,0.526339913933952,6.742447552617488,3.0023558897243117,11,0.05
1755690910.7258503,0.621,-0.699,9.921,0.5272549738978287,5.383963509475365,3.0116791979949875,11,0.05
1755690910.7533307,0.621,-0.699,9.921,0.5272549738978287,5.383963509475365,3.0116791979949875,11,0.05
1755690910.7803383,0.826,-0.8,9.842,0.5288700194754851,6.664012125697696,3.0219548872180453,11,0.05
1755690910.808334,0.826,-0.8,9.842,0.5288700194754851,6.664012125697696,3.0219548872180453,11,0.05
1755690910.8357823,0.664,-0.743,9.985,0.5299110656515865,5.699038451274848,3.0300751879699255,11,0.05
1755690910.8632536,0.664,-0.743,9.985,0.5299110656515865,5.699038451274848,3.0300751879699255,11,0.05
1755690910.8902683,0.702,-0.788,9.916,0.5310722620322021,6.075021629012873,3.0319799498746867,11,0.05
1755690910.9173563,0.702,-0.788,9.916,0.5310722620322021,6.075021629012873,3.0319799498746867,11,0.05
1755690910.944872,0.6,-0.466,9.621,0.5319189294432001,4.514907033282913,3.0370927318295737,11,0.05
1755690910.9730685,0.6,-0.466,9.621,0.5319189294432001,4.514907033282913,3.0370927318295737,11,0.05
1755690911.0005941,1.127,-0.658,9.341,0.5348953822945193,7.953282956098878,3.0635087719298237,11,0.05
1755690911.0282683,1.127,-0.658,9.341,0.5348953822945193,7.953282956098878,3.0635087719298237,11,0.05
1755690911.0557604,0.533,-1.37,10.776,0.5355588599771272,7.768171239921344,3.09328320802005,11,0.05
1755690911.0837197,0.533,-1.37,10.776,0.5355588599771272,7.768171239921344,3.09328320802005,11,0.05
1755690911.1111321,-0.547,-0.557,10.869,0.5362567621951261,4.108277385610744,3.147418546365914,11,0.05
1755690911.1395082,-0.547,-0.557,10.869,0.5362567621951261,4.108277385610744,3.147418546365914,11,0.05
1755690911.1670687,-1.074,-0.74,11.449,0.5389387766713396,6.4990330003424415,3.1738345864661652,11,0.05
1755690911.1952407,-1.074,-0.74,11.449,0.5389387766713396,6.4990330003424415,3.1738345864661652,11,0.05
1755690911.2229464,-1.331,-0.668,10.018,0.5430321422346931,8.455367833468623,3.1867167919799493,11,0.05
1755690911.2506351,-1.331,-0.668,10.018,0.5430321422346931,8.455367833468623,3.1867167919799493,11,0.05
1755690911.278568,-1.694,-2.139,9.424,0.5495980326565953,16.14739518372148,3.2049122807017536,12,0.05
1755690911.3067183,-0.897,0.113,9.626,0.5514249903658701,5.3655728091504375,3.2448621553884713,12,0.05
1755690911.333942,-0.897,0.113,9.626,0.5514249903658701,5.3655728091504375,3.2448621553884713,12,0.05
1755690911.3610067,-3.12,-0.149,8.471,0.5730667674887456,20.240705681218024,3.356290726817043,13,0.05
1755690911.3888896,-3.12,-0.149,8.471,0.5730667674887456,20.240705681218024,3.356290726817043,13,0.05
1755690911.4160364,-3.12,-0.149,8.471,0.5730667674887456,20.240705681218024,3.356290726817043,13,0.05
1755690911.4440928,-2.783,-1.588,4.436,0.5897187825565674,35.84115119750082,3.373182957393484,13,0.1
1755690911.472746,-5.411,-0.545,9.336,0.6488185763370219,30.221520013507504,3.5049122807017543,13,0.1
1755690911.501004,-5.411,-0.545,9.336,0.6488185763370219,30.221520013507504,3.5049122807017543,13,0.1
1755690911.5286844,-3.425,-0.521,7.723,0.6710380820042928,24.16015200847519,3.6044611528822057,13,0.1
1755690911.5569406,-3.425,-0.521,7.723,0.6710380820042928,24.16015200847519,3.6044611528822057,13,0.1
1755690911.5846574,-5.797,-0.757,7.152,0.7309617842267816,39.26339293844752,3.723358395989975,13,0.15000000000000002
1755690911.6130178,-5.797,-0.757,7.152,0.7309617842267816,39.26339293844752,3.723358395989975,13,0.15000000000000002
1755690911.640679,-5.385,-0.615,5.827,0.7789741282610098,42.927541777839494,3.744010025062657,13,0.15000000000000002
1755690911.668783,-5.385,-0.615,5.827,0.7789741282610098,42.927541777839494,3.744010025062657,13,0.15000000000000002
1755690911.6964147,-7.115,-0.31,6.055,0.8563636815045347,49.628400359664695,3.8307268170426068,13,0.15000000000000002
1755690911.7245681,-7.115,-0.31,6.055,0.8563636815045347,49.628400359664695,3.8307268170426068,13,0.15000000000000002
1755690911.7523246,-7.068,-0.425,6.01,0.9264180023078135,49.67612853363574,3.8330827067669175,13,0.15000000000000002
1755690911.779874,-7.068,-0.425,6.01,0.9264180023078135,49.67612853363574,3.8330827067669175,13,0.15000000000000002
1755690911.8072062,-5.041,-0.368,5.216,0.9600934941452317,44.09863338051907,3.93468671679198,13,0.15000000000000002
1755690911.8352432,-5.041,-0.368,5.216,0.9600934941452317,44.09863338051907,3.93468671679198,13,0.15000000000000002
1755690911.8627715,-5.108,-0.202,5.817,0.9934831037818409,41.309077941539215,3.9380451127819542,13,0.15000000000000002
1755690911.891121,-5.108,-0.202,5.817,0.9934831037818409,41.309077941539215,3.9380451127819542,13,0.15000000000000002
1755690911.9186099,-5.568,-0.425,7.385,1.031753477096152,37.09489014301097,3.9611027568922306,13,0.15000000000000002
1755690911.9468431,-5.568,-0.425,7.385,1.031753477096152,37.09489014301097,3.9611027568922306,13,0.15000000000000002
1755690911.974102,-5.48,-0.538,8.393,1.067516387462038,33.26744141298204,3.9655137844611525,13,0.15000000000000002
1755690912.002203,-5.48,-0.538,8.393,1.067516387462038,33.26744141298204,3.9655137844611525,13,0.15000000000000002
1755690912.0297775,-5.365,-0.851,9.244,1.100704001991453,30.439874503639295,3.971278195488721,13,0.15000000000000002
1755690912.0578616,-5.365,-0.851,9.244,1.100704001991453,30.439874503639295,3.971278195488721,13,0.15000000000000002
1755690912.0851464,-3.153,-1.555,8.916,1.1119365190963015,21.51942819916381,4.082155388471177,13,0.15000000000000002
1755690912.1131563,-3.153,-1.555,8.916,1.1119365190963015,21.51942819916381,4.082155388471177,13,0.15000000000000002
1755690912.1402988,-2.655,-0.346,8.471,1.1198327486727648,17.54031486162181,4.107117794486215,13,0.15000000000000002
1755690912.1680138,-2.655,-0.346,8.471,1.1198327486727648,17.54031486162181,4.107117794486215,13,0.15000000000000002
1755690912.1957424,-2.75,-0.911,9.871,1.1282427198967429,16.35605031698438,4.11187969924812,13,0.15000000000000002
1755690912.2241218,-1.553,-1.56,10.135,1.130911648847955,12.253804803506203,4.17187969924812,13,0.15000000000000002
1755690912.2516756,-1.553,-1.56,10.135,1.130911648847955,12.253804803506203,4.17187969924812,13,0.15000000000000002
1755690912.2790995,-1.553,-1.56,10.135,1.130911648847955,12.253804803506203,4.17187969924812,13,0.15000000000000002
1755690912.3065128,-1.143,-1.141,9.99,1.13235475006731,9.1832642317337,4.192431077694236,13,0.15000000000000002
1755690912.3343325,-0.576,-1.247,9.964,1.1327209365064284,7.849126770081725,4.220852130325815,13,0.15000000000000002
1755690912.3616257,-0.576,-1.247,9.964,1.1327209365064284,7.849126770081725,4.220852130325815,13,0.15000000000000002
1755690912.3889706,0.156,-1.084,9.624,1.1327477918760205,6.492073224808112,4.2575438596491235,13,0.15000000000000002
1755690912.4168591,0.156,-1.084,9.624,1.1327477918760205,6.492073224808112,4.2575438596491235,13,0.15000000000000002
1755690912.4445848,0.149,-0.928,9.538,1.1327722906656925,5.627823723999092,4.257894736842106,13,0.15000000000000002
1755690912.4723022,0.149,-0.928,9.538,1.1327722906656925,5.627823723999092,4.257894736842106,13,0.15000000000000002
1755690912.4997306,0.106,-1.163,9.538,1.1327846893827618,6.980478900111992,4.260050125313283,13,0.15000000000000002
1755690912.527406,0.106,-1.163,9.538,1.1327846893827618,6.980478900111992,4.260050125313283,13,0.15000000000000002
1755690912.5546246,-0.13,-0.98,9.883,1.1328033379629494,5.712228157581237,4.27187969924812,13,0.15000000000000002
1755690912.582375,-0.13,-0.98,9.883,1.1328033379629494,5.712228157581237,4.27187969924812,13,0.15000000000000002
1755690912.609864,-0.275,-0.99,9.773,1.1328867838402918,6.001745964567628,4.279147869674185,13,0.15000000000000002
1755690912.6374238,-0.275,-0.99,9.773,1.1328867838402918,6.001745964567628,4.279147869674185,13,0.15000000000000002
1755690912.6648357,0.161,-0.937,9.838,1.132915384086561,5.51984752794765,4.301002506265664,13,0.15000000000000002
1755690912.6931581,0.161,-0.937,9.838,1.132915384086561,5.51984752794765,4.301002506265664,13,0.15000000000000002
1755690912.7213058,0.242,-0.867,9.631,1.1329799987201892,5.339514501198196,4.305062656641604,13,0.15000000000000002
1755690912.7487862,0.242,-0.867,9.631,1.1329799987201892,5.339514501198196,4.305062656641604,13,0.15000000000000002
1755690912.7765694,0.39,-1.065,9.835,1.133147795964851,6.578236387320989,4.312481203007519,13,0.15000000000000002
1755690912.8045287,0.39,-1.065,9.835,1.133147795964851,6.578236387320989,4.312481203007519,13,0.15000000000000002
1755690912.8320339,0.09,-1.053,9.524,1.1331567312159425,6.331972640465794,4.327518796992481,13,0.15000000000000002
1755690912.8600392,0.09,-1.053,9.524,1.1331567312159425,6.331972640465794,4.327518796992481,13,0.15000000000000002
1755690912.8873692,-0.502,-1.086,9.785,1.1334346860317979,6.9709501527406115,4.35719298245614,13,0.15000000000000002
1755690912.9149108,-0.502,-1.086,9.785,1.1334346860317979,6.9709501527406115,4.35719298245614,13,0.15000000000000002
1755690912.9429328,0.164,-1.158,9.681,1.1334643476969182,6.888483980180421,4.390576441102756,13,0.15000000000000002
1755690912.970728,0.164,-1.158,9.681,1.1334643476969182,6.888483980180421,4.390576441102756,13,0.15000000000000002
1755690912.9982364,0.349,-1.069,9.643,1.1335986635489652,6.651557322480066,4.399849624060152,13,0.15000000000000002
1755690913.0237927,0.349,-1.069,9.643,1.1335986635489652,6.651557322480066,4.399849624060152,13,0.15000000000000002
1755690913.049086,-0.111,-1.062,9.652,1.1336122496250647,6.312868949625049,4.422907268170427,13,0.15000000000000002
1755690913.0768204,-0.111,-1.062,9.652,1.1336122496250647,6.312868949625049,4.422907268170427,13,0.15000000000000002
1755690913.1025355,0.233,-1.11,9.531,1.1336721108856829,6.786295584539647,4.440150375939851,13,0.15000000000000002
1755690913.1305635,0.233,-1.11,9.531,1.1336721108856829,6.786295584539647,4.440150375939851,13,0.15000000000000002
1755690913.1579068,-0.268,-1.137,9.643,1.1337513020940704,6.907183554800606,4.465263157894737,13,0.15000000000000002
1755690913.185347,-0.268,-1.137,9.643,1.1337513020940704,6.907183554800606,4.465263157894737,13,0.15000000000000002
1755690913.2131302,0.102,-1.004,9.488,1.1337627728056696,6.071299619043006,4.483809523809524,13,0.15000000000000002
1755690913.2410064,0.102,-1.004,9.488,1.1337627728056696,6.071299619043006,4.483809523809524,13,0.15000000000000002
1755690913.2689674,0.035,-1.055,9.771,1.1337641233960438,6.165863238578938,4.487167919799499,13,0.15000000000000002
1755690913.2975547,0.035,-1.055,9.771,1.1337641233960438,6.165863238578938,4.487167919799499,13,0.15000000000000002
1755690913.3254206,-0.115,-1.048,9.738,1.1337787041570324,6.17909632247302,4.49468671679198,13,0.15000000000000002
1755690913.3535507,-0.115,-1.048,9.738,1.1337787041570324,6.17909632247302,4.49468671679198,13,0.15000000000000002
1755690913.381565,0.216,-1.149,9.745,1.1338301415997019,6.8411887524754835,4.511278195488722,13,0.15000000000000002
1755690913.4093177,0.216,-1.149,9.745,1.1338301415997019,6.8411887524754835,4.511278195488722,13,0.15000000000000002
1755690913.4371955,-0.826,-0.887,9.809,1.1345820728356322,7.044004889350037,4.563508771929825,13,0.15000000000000002
1755690913.4646175,-1.606,-0.817,10.382,1.1374201378558408,9.845995821220962,4.602606516290727,13,0.15000000000000002
1755690913.4931004,-1.606,-0.817,10.382,1.1374201378558408,9.845995821220962,4.602606516290727,13,0.15000000000000002
1755690913.5208144,-1.606,-0.817,10.382,1.1374201378558408,9.845995821220962,4.602606516290727,13,0.15000000000000002
1755690913.5484157,-3.344,-1.127,11.824,1.1496436012956364,16.617432368085893,4.689724310776942,14,0.15000000000000002
1755690913.5769293,-2.576,-1.504,11.183,1.1568361379210108,14.93516417784518,4.728220551378446,14,0.15000000000000002
1755690913.6054065,-2.576,-1.504,11.183,1.1568361379210108,14.93516417784518,4.728220551378446,14,0.15000000000000002
1755690913.6331887,-1.77,-0.899,8.999,1.1602164022284809,12.440455209728334,4.768621553884712,14,0.15000000000000002
1755690913.660876,-1.77,-0.899,8.999,1.1602164022284809,12.440455209728334,4.768621553884712,14,0.15000000000000002
1755690913.6885502,-3.937,-0.267,8.692,1.1767973582992102,24.417367290952935,4.877243107769424,14,0.1
1755690913.7168055,-3.937,-0.267,8.692,1.1767973582992102,24.417367290952935,4.877243107769424,14,0.1
1755690913.7453964,-3.48,-0.995,7.219,1.1895915359904004,26.6281991582922,4.900150375939849,14,0.1
1755690913.7741182,-3.48,-0.995,7.219,1.1895915359904004,26.6281991582922,4.900150375939849,14,0.1
1755690913.8015356,-3.406,-0.67,6.694,1.2017196480460823,27.409666560655605,4.903859649122807,14,0.1
1755690913.8301182,-3.406,-0.67,6.694,1.2017196480460823,27.409666560655605,4.903859649122807,14,0.1
1755690913.8577976,-4.135,-0.644,6.903,1.2193751166068627,31.22576327885531,4.940401002506265,14,0.1
1755690913.8857493,-4.135,-0.644,6.903,1.2193751166068627,31.22576327885531,4.940401002506265,14,0.1
1755690913.9136086,-3.239,-0.743,7.276,1.2300827116499118,24.5473354573892,4.985313283208019,14,0.1
1755690913.9420311,-3.239,-0.743,7.276,1.2300827116499118,24.5473354573892,4.985313283208019,14,0.1
1755690913.9700017,-4.24,2.442,11.758,1.2482177203917593,22.594049874921037,5.035488721804511,14,0.1
1755690913.9989698,-4.24,2.442,11.758,1.2482177203917593,22.594049874921037,5.035488721804511,14,0.1
1755690914.0269947,-3.139,-0.762,9.524,1.258046414088129,18.734907930424306,5.090676691729323,14,0.1
1755690914.0552952,-3.139,-0.762,9.524,1.258046414088129,18.734907930424306,5.090676691729323,14,0.1
1755690914.082688,-3.592,-1.293,10.852,1.2708016918465288,19.38139400798394,5.113383458646616,14,0.1
1755690914.1106513,-3.592,-1.293,10.852,1.2708016918465288,19.38139400798394,5.113383458646616,14,0.1
1755690914.1384528,-2.464,-0.678,9.738,1.276759640652852,14.70474363755946,5.169924812030076,14,0.1
1755690914.1667511,-2.464,-0.678,9.738,1.276759640652852,14.70474363755946,5.169924812030076,14,0.1
1755690914.194693,-1.222,-1.23,10.341,1.2782207907869438,9.518028361485458,5.232180451127818,14,0.1
1755690914.2228165,-0.468,-1.418,9.648,1.2784349611927859,8.797939740762137,5.269974937343358,14,0.1
1755690914.2506306,-0.468,-1.418,9.648,1.2784349611927859,8.797939740762137,5.269974937343358,14,0.1
1755690914.2784796,-0.471,-0.533,9.255,1.2786518496056696,4.394794154901628,5.2701253132832075,14,0.1
1755690914.3058643,-0.471,-0.533,9.255,1.2786518496056696,4.394794154901628,5.2701253132832075,14,0.1
1755690914.3336473,-0.864,-1.014,9.322,1.2793814100963012,8.132881388013638,5.289824561403507,14,0.1
1755690914.3614328,-0.864,-1.014,9.322,1.2793814100963012,8.132881388013638,5.289824561403507,14,0.1
1755690914.3892717,-0.974,-1.098,9.735,1.2803079639289916,8.5739112527112,5.295338345864661,14,0.1
1755690914.417592,-0.974,-1.098,9.735,1.2803079639289916,8.5739112527112,5.295338345864661,14,0.1
1755690914.4452364,-0.649,-1.105,10.427,1.2807191280682897,7.006598992572601,5.311629072681705,14,0.1
1755690914.4727669,-0.649,-1.105,10.427,1.2807191280682897,7.006598992572601,5.311629072681705,14,0.1
1755690914.5000186,-1.153,-0.771,9.225,1.2820159934649802,8.550683260256315,5.336892230576441,14,0.1
1755690914.5278728,-1.153,-0.771,9.225,1.2820159934649802,8.550683260256315,5.336892230576441,14,0.1
1755690914.5551815,-0.554,-0.819,9.372,1.2823152098840596,6.022605362005886,5.366917293233082,14,0.1
1755690914.5831356,-0.554,-0.819,9.372,1.2823152098840596,6.022605362005886,5.366917293233082,14,0.1
1755690914.610403,-0.263,-0.964,9.529,1.282382634005935,5.986285368896405,5.381503759398496,14,0.1
1755690914.638104,-0.263,-0.964,9.529,1.282382634005935,5.986285368896405,5.381503759398496,14,0.1
1755690914.665437,-0.933,-0.894,9.617,1.2832308609521514,7.652655735269398,5.415087719298246,14,0.1
1755690914.6934454,-0.933,-0.894,9.617,1.2832308609521514,7.652655735269398,5.415087719298246,14,0.1
1755690914.7209628,-1.007,-0.906,9.683,1.2842182699993019,7.963570530358159,5.418796992481204,14,0.1
1755690914.7485013,-1.007,-0.906,9.683,1.2842182699993019,7.963570530358159,5.418796992481204,14,0.1
1755690914.7758334,-0.855,-0.908,9.652,1.2849296196679412,7.362732100601756,5.42641604010025,14,0.1
1755690914.8040895,-0.855,-0.908,9.652,1.2849296196679412,7.362732100601756,5.42641604010025,14,0.1
1755690914.8318827,-0.688,-0.94,9.6,1.2853900137701397,6.918538369016239,5.434786967418545,14,0.1
1755690914.8598216,-0.688,-0.94,9.6,1.2853900137701397,6.918538369016239,5.434786967418545,14,0.1
1755690914.887764,-0.387,-1.17,9.804,1.285535651003114,7.164388411716743,5.449874686716792,14,0.1
1755690914.9154541,-0.387,-1.17,9.804,1.285535651003114,7.164388411716743,5.449874686716792,14,0.1
1755690914.942986,-0.597,-0.891,9.607,1.2858821612029618,6.370066148460679,5.4604010025062655,14,0.1
1755690914.969167,-0.597,-0.891,9.607,1.2858821612029618,6.370066148460679,5.4604010025062655,14,0.1
1755690914.997306,-0.707,-1.007,9.928,1.2863679702946587,7.064807581060814,5.465914786967418,14,0.1
1755690915.0252383,-0.707,-1.007,9.928,1.2863679702946587,7.064807581060814,5.465914786967418,14,0.1
1755690915.0532432,-0.707,-1.007,9.928,1.2863679702946587,7.064807581060814,5.465914786967418,14,0.1
1755690915.0814333,-0.707,-1.007,9.928,1.2863679702946587,7.064807581060814,5.465914786967418,14,0.1
1755690915.10935,-0.499,-0.863,9.631,1.2866099088301783,5.909494930167133,5.476340852130326,14,0.1
1755690915.137151,-0.521,-1.038,9.659,1.2868735990764595,6.856427777960312,5.477443609022556,14,0.1
1755690915.1648636,-0.444,-1.04,9.588,1.2870650721700125,6.726411307191522,5.481303258145363,14,0.1
1755690915.19193,-0.444,-1.04,9.588,1.2870650721700125,6.726411307191522,5.481303258145363,14,0.1
1755690915.2201183,-0.54,-1.007,9.838,1.2873482434834795,6.6250242984532655,5.486115288220551,14,0.1
1755690915.2482636,-0.461,-0.925,9.792,1.2875545823381624,6.025062817596073,5.490075187969925,14,0.1
1755690915.2764797,-0.461,-0.925,9.792,1.2875545823381624,6.025062817596073,5.490075187969925,14,0.1
1755690915.3041053,-0.418,-0.896,9.785,1.287724198926152,5.769757552987494,5.492230576441102,14,0.1
1755690915.33172,-0.418,-0.896,9.785,1.287724198926152,5.769757552987494,5.492230576441102,14,0.1
1755690915.3596697,-0.521,-0.99,9.579,1.2879876610433814,6.661346511260533,5.497393483709273,14,0.1
1755690915.3875463,-0.521,-0.99,9.579,1.2879876610433814,6.661346511260533,5.497393483709273,14,0.1
1755690915.4152482,-0.049,-0.937,9.617,1.2879899912266397,5.57241285458336,5.5210526315789465,14,0.1
1755690915.443201,-0.049,-0.937,9.617,1.2879899912266397,5.57241285458336,5.5210526315789465,14,0.1
1755690915.470873,0.123,-0.738,9.427,1.288004673904563,4.5378038426737985,5.5296741854636595,14,0.1
1755690915.4985032,0.123,-0.738,9.427,1.288004673904563,4.5378038426737985,5.5296741854636595,14,0.1
1755690915.525986,-0.454,-1.089,9.99,1.2882046925857706,6.735586511376991,5.55859649122807,14,0.1
1755690915.5543926,-0.454,-1.089,9.99,1.2882046925857706,6.735586511376991,5.55859649122807,14,0.1
1755690915.5822277,-0.213,-1.091,9.983,1.2882487153108284,6.35366020312654,5.5706766917293224,14,0.1
1755690915.6105347,-0.213,-1.091,9.983,1.2882487153108284,6.35366020312654,5.5706766917293224,14,0.1
1755690915.6382864,-0.115,-1.127,9.994,1.2882615475903951,6.467057476820095,5.575588972431078,14,0.1
1755690915.6664822,-0.115,-1.127,9.994,1.2882615475903951,6.467057476820095,5.575588972431078,14,0.1
1755690915.6946173,0.164,-1.077,9.719,1.2882876445111162,6.395659441377194,5.589573934837092,14,0.1
1755690915.7234054,0.164,-1.077,9.719,1.2882876445111162,6.395659441377194,5.589573934837092,14,0.1
1755690915.751486,-0.02,-0.904,9.766,1.2882880326231396,5.289859883977185,5.598796992481203,14,0.1
1755690915.779043,-0.02,-0.904,9.766,1.2882880326231396,5.289859883977185,5.598796992481203,14,0.1
1755690915.8064883,0.185,-0.877,9.574,1.2883212400251731,5.348336349322088,5.60907268170426,14,0.1
1755690915.834556,0.185,-0.877,9.574,1.2883212400251731,5.348336349322088,5.60907268170426,14,0.1
1755690915.8621564,-0.037,-0.997,9.828,1.288322568303451,5.79650598443711,5.620200501253132,14,0.1
1755690915.8898623,-0.037,-0.997,9.828,1.288322568303451,5.79650598443711,5.620200501253132,14,0.1
1755690915.9174476,-0.521,-0.8,9.873,1.2885859080790847,5.523185376861914,5.644461152882205,14,0.1
1755690915.9455748,-0.521,-0.8,9.873,1.2885859080790847,5.523185376861914,5.644461152882205,14,0.1
1755690915.9737616,0.082,-1.189,9.907,1.2885924307165553,6.859786703417135,5.67468671679198,14,0.1
1755690916.0020764,0.082,-1.189,9.907,1.2885924307165553,6.859786703417135,5.67468671679198,14,0.1
1755690916.0301282,0.895,-1.113,9.31,1.2893692314461362,8.72154707782618,5.715438596491228,14,0.1
1755690916.0584219,0.895,-1.113,9.31,1.2893692314461362,8.72154707782618,5.715438596491228,14,0.1
1755690916.087045,-0.285,-0.831,9.524,1.289447973940787,5.2701680738483025,5.774586466165413,14,0.1
1755690916.115235,0.128,-0.716,9.386,1.2894638566086294,4.431178548692156,5.795288220551377,14,0.1
1755690916.143183,0.128,-0.716,9.386,1.2894638566086294,4.431178548692156,5.795288220551377,14,0.1
1755690916.1709228,1.456,-0.928,9.662,1.291517277275066,10.131768036415197,5.861854636591479,15,0.1
1755690916.1990647,1.456,-0.928,9.662,1.291517277275066,10.131768036415197,5.861854636591479,15,0.1
1755690916.227074,1.27,-0.716,9.728,1.2930773865086342,8.523442371577223,5.871177944862154,15,0.1
1755690916.255073,1.27,-0.716,9.728,1.2930773865086342,8.523442371577223,5.871177944862154,15,0.1
1755690916.2827218,3.308,-0.704,8.203,1.3036127828078399,22.40626618211974,5.973333333333333,16,0.1
1755690916.3114405,3.308,-0.704,8.203,1.3036127828078399,22.40626618211974,5.973333333333333,16,0.1
1755690916.3393247,0.76,-0.601,10.66,1.3041665106496179,5.193504165146002,6.101052631578946,16,0.1
1755690916.3674297,0.76,-0.601,10.66,1.3041665106496179,5.193504165146002,6.101052631578946,16,0.1
1755690916.3954427,1.079,-0.896,10.781,1.3052819197399466,7.4120760292290235,6.11704260651629,16,0.1
1755690916.4238017,1.079,-0.896,10.781,1.3052819197399466,7.4120760292290235,6.11704260651629,16,0.1
1755690916.4511585,3.895,-0.255,8.464,1.3197304469095195,24.757708703199217,6.258195488721804,17,0.1
1755690916.4794283,3.895,-0.255,8.464,1.3197304469095195,24.757708703199217,6.258195488721804,17,0.1
1755690916.5069077,2.996,-0.606,9.322,1.3282049888853755,18.15425930718794,6.303258145363409,17,0.1
1755690916.5357604,2.996,-0.606,9.322,1.3282049888853755,18.15425930718794,6.303258145363409,17,0.1
1755690916.5640752,1.875,-1.072,9.8,1.3315095024069488,12.428702060310624,6.359448621553885,17,0.1
1755690916.592012,1.875,-1.072,9.8,1.3315095024069488,12.428702060310624,6.359448621553885,17,0.1
1755690916.6195748,2.855,-0.74,9.179,1.3391396930492352,17.812949946431196,6.408571428571428,17,0.1
1755690916.6482503,2.855,-0.74,9.179,1.3391396930492352,17.812949946431196,6.408571428571428,17,0.1
1755690916.6758823,1.332,-0.606,9.659,1.3407947932103554,8.614998539275303,6.484912280701755,17,0.1
1755690916.7038133,2.409,-0.872,9.576,1.3461942207571684,14.978134593998416,6.538897243107768,18,0.1
1755690916.7323186,2.409,-0.872,9.576,1.3461942207571684,14.978134593998416,6.538897243107768,18,0.1
1755690916.7603018,2.409,-0.872,9.576,1.3461942207571684,14.978134593998416,6.538897243107768,18,0.1
1755690916.7880092,2.51,-0.928,9.4,1.352031482621614,15.890962788859015,6.543959899749374,18,0.1
1755690916.8163445,1.847,-0.798,9.526,1.3551817783972744,11.926339293847583,6.577192982456141,18,0.1
1755690916.8444016,1.847,-0.798,9.526,1.3551817783972744,11.926339293847583,6.577192982456141,18,0.1
1755690916.8721867,1.847,-0.798,9.526,1.3551817783972744,11.926339293847583,6.577192982456141,18,0.1
1755690916.9000297,1.325,-1.038,9.697,1.3568001750442102,9.847095084537829,6.603358395989974,18,0.1
1755690916.9278524,0.535,-0.779,9.576,1.3570638442976808,5.63606924072754,6.642957393483708,18,0.1
1755690916.9556928,0.535,-0.779,9.576,1.3570638442976808,5.63606924072754,6.642957393483708,18,0.1
1755690916.9831605,0.898,-0.848,9.745,1.3578064249001034,7.223348644524607,6.6611528822055135,18,0.1
1755690917.0117161,0.898,-0.848,9.745,1.3578064249001034,7.223348644524607,6.6611528822055135,18,0.1
1755690917.039178,0.779,-0.699,9.686,1.3583649693657445,6.167242911180901,6.6671177944862166,18,0.1
1755690917.067443,0.779,-0.699,9.686,1.3583649693657445,6.167242911180901,6.6671177944862166,18,0.1
1755690917.0956073,0.931,-0.728,9.69,1.359162349574178,6.9537285715853265,6.674736842105263,18,0.1
1755690917.1236632,0.931,-0.728,9.69,1.359162349574178,6.9537285715853265,6.674736842105263,18,0.1
1755690917.1495032,0.574,-0.747,9.849,1.3594653296425032,5.46376188864252,6.692631578947368,18,0.1
1755690917.1754372,0.574,-0.747,9.849,1.3594653296425032,5.46376188864252,6.692631578947368,18,0.1
1755690917.2037244,0.733,-0.73,9.683,1.359959265934094,6.098158410079515,6.7006015037593984,18,0.1
1755690917.230068,0.733,-0.73,9.683,1.359959265934094,6.098158410079515,6.7006015037593984,18,0.1
1755690917.257965,0.719,-0.716,9.669,1.3604343451633378,5.990901258769295,6.701303258145364,18,0.1
1755690917.2865322,0.719,-0.716,9.669,1.3604343451633378,5.990901258769295,6.701303258145364,18,0.1
1755690917.3147829,0.743,-0.752,9.655,1.3609414866187304,6.24853002338163,6.7025062656641605,18,0.1
1755690917.3428695,0.743,-0.752,9.655,1.3609414866187304,6.24853002338163,6.7025062656641605,18,0.1
1755690917.370419,0.791,-0.843,9.617,1.3615160419547028,6.85426933894745,6.7049122807017545,18,0.1
1755690917.3987694,0.791,-0.843,9.617,1.3615160419547028,6.85426933894745,6.7049122807017545,18,0.1
1755690917.4272501,0.774,-0.841,9.828,1.362065939116018,6.633487040338524,6.70576441102757,18,0.1
1755690917.455385,0.774,-0.841,9.828,1.362065939116018,6.633487040338524,6.70576441102757,18,0.1
1755690917.4830394,0.812,-0.721,9.84,1.3626709002910424,6.297450057844043,6.707669172932331,18,0.1
1755690917.5110366,0.812,-0.721,9.84,1.3626709002910424,6.297450057844043,6.707669172932331,18,0.1
1755690917.5394993,0.7,-0.699,9.876,1.3631203110877632,5.720028428727864,6.713283208020051,18,0.1
1755690917.5671294,0.7,-0.699,9.876,1.3631203110877632,5.720028428727864,6.713283208020051,18,0.1
1755690917.594931,0.748,-0.685,9.709,1.3636332873980452,5.963842935400941,6.7156892230576455,18,0.1
1755690917.6228306,0.817,-0.728,9.633,1.364245016483476,6.480912796204452,6.719147869674186,18,0.1
1755690917.6504698,0.817,-0.728,9.633,1.364245016483476,6.480912796204452,6.719147869674186,18,0.1
1755690917.6784713,0.738,-0.803,9.55,1.364743959503027,6.515015936195488,6.723107769423559,18,0.1
1755690917.706518,0.738,-0.803,9.55,1.364743959503027,6.515015936195488,6.723107769423559,18,0.1
1755690917.7344968,0.709,-0.673,9.778,1.3652042988139175,5.709160519624285,6.724561403508771,18,0.1
1755690917.762867,0.709,-0.673,9.778,1.3652042988139175,5.709160519624285,6.724561403508771,18,0.1
1755690917.790816,0.857,-0.831,9.847,1.365876604968399,6.912156481147939,6.7319799498746855,18,0.1
1755690917.8190675,0.857,-0.831,9.847,1.365876604968399,6.912156481147939,6.7319799498746855,18,0.1
1755690917.8470628,0.857,-0.831,9.847,1.365876604968399,6.912156481147939,6.7319799498746855,18,0.1
1755690917.8753831,0.736,-0.791,9.735,1.366372255280383,6.333131136529642,6.738045112781955,18,0.1
1755690917.9036348,0.764,-0.743,9.662,1.3669061343047664,6.294250566621155,6.739448621553884,18,0.1
1755690917.9316852,0.764,-0.743,9.662,1.3669061343047664,6.294250566621155,6.739448621553884,18,0.1
1755690917.9596736,0.833,-0.767,9.564,1.3675405304779817,6.752120932674786,6.742907268170426,18,0.1
1755690917.9876711,0.833,-0.767,9.564,1.3675405304779817,6.752120932674786,6.742907268170426,18,0.1
1755690918.0154233,0.681,-0.807,9.802,1.367964365398456,6.148592234711426,6.7505263157894735,18,0.1
1755690918.0438125,0.681,-0.807,9.802,1.367964365398456,6.148592234711426,6.7505263157894735,18,0.1
1755690918.071578,0.864,-0.644,9.811,1.3686463184475381,6.268035824092995,6.759699248120301,18,0.1
1755690918.0998054,0.864,-0.644,9.811,1.3686463184475381,6.268035824092995,6.759699248120301,18,0.1
1755690918.127367,0.633,-0.793,9.678,1.3690122232836346,5.9851425577811295,6.771278195488721,18,0.1
1755690918.1559083,0.633,-0.793,9.678,1.3690122232836346,5.9851425577811295,6.771278195488721,18,0.1
1755690918.1834686,0.869,-0.767,9.686,1.3697015623850328,6.8238377251225115,6.783107769423559,18,0.1
1755690918.2113247,0.869,-0.767,9.686,1.3697015623850328,6.8238377251225115,6.783107769423559,18,0.1
1755690918.2390254,0.781,-0.728,9.797,1.3702581043365516,6.219578051425129,6.78751879699248,18,0.1
1755690918.266875,0.781,-0.728,9.797,1.3702581043365516,6.219578051425129,6.78751879699248,18,0.1
1755690918.294371,0.712,-0.687,9.631,1.3707204793465368,5.865464992546206,6.790977443609022,18,0.1
1755690918.3221505,0.712,-0.687,9.631,1.3707204793465368,5.865464992546206,6.790977443609022,18,0.1
1755690918.3502133,0.888,-0.706,9.816,1.3714393871039288,6.592520460841002,6.799799498746867,18,0.1
1755690918.3781765,0.774,-0.67,9.688,1.3719853069548522,6.0319196601586125,6.805513784461153,18,0.1
1755690918.406741,0.774,-0.67,9.688,1.3719853069548522,6.0319196601586125,6.805513784461153,18,0.1
1755690918.434482,0.729,-0.704,9.683,1.3724694113166966,5.97491443211208,6.807769423558897,18,0.1
1755690918.4623528,0.729,-0.704,9.683,1.3724694113166966,5.97491443211208,6.807769423558897,18,0.1
1755690918.49007,0.631,-0.694,9.648,1.372831995365784,5.552823642185182,6.812681704260652,18,0.1
1755690918.5176945,0.631,-0.694,9.648,1.372831995365784,5.552823642185182,6.812681704260652,18,0.1
1755690918.5462613,0.676,-0.608,9.586,1.3732480211163605,5.418089614321525,6.8149373433583955,18,0.1
1755690918.5742624,0.676,-0.608,9.586,1.3732480211163605,5.418089614321525,6.8149373433583955,18,0.1
1755690918.6023862,0.919,-0.687,10.004,1.3740165683134975,6.542907033049257,6.827117794486216,18,0.1
1755690918.6306555,0.919,-0.687,10.004,1.3740165683134975,6.542907033049257,6.827117794486216,18,0.1
1755690918.6586065,0.767,-0.485,9.757,1.374551655086123,5.313665482440583,6.8347368421052614,18,0.1
1755690918.687221,0.767,-0.485,9.757,1.374551655086123,5.313665482440583,6.8347368421052614,18,0.1
1755690918.7157917,0.929,-0.459,9.766,1.3753362697900466,6.056615207825666,6.8428571428571425,18,0.1
1755690918.744861,0.929,-0.459,9.766,1.3753362697900466,6.056615207825666,6.8428571428571425,18,0.1
1755690918.7731633,0.848,-0.25,10.016,1.375989685644482,5.044261785682964,6.846917293233083,18,0.1
1755690918.8009841,0.848,-0.25,10.016,1.375989685644482,5.044261785682964,6.846917293233083,18,0.1
1755690918.8289511,0.888,-0.81,9.289,1.376705841855841,7.372720246217203,6.84892230576441,18,0.1
1755690918.85726,0.888,-0.81,9.289,1.376705841855841,7.372720246217203,6.84892230576441,18,0.1
1755690918.8849967,0.681,-1.521,10.258,1.3771268559940293,9.227540411226428,6.859298245614034,18,0.1
1755690918.912926,0.681,-1.521,10.258,1.3771268559940293,9.227540411226428,6.859298245614034,18,0.1
1755690918.941576,0.869,-1.0,9.355,1.3778121352346986,8.060443589403912,6.868721804511278,18,0.1
1755690918.9697237,0.869,-1.0,9.355,1.3778121352346986,8.060443589403912,6.868721804511278,18,0.1
1755690918.9974651,0.423,-0.557,9.676,1.3779744564033107,4.134334023034391,6.891077694235589,18,0.1
1755690919.0257525,0.423,-0.557,9.676,1.3779744564033107,4.134334023034391,6.891077694235589,18,0.1
1755690919.053939,0.776,-0.096,9.804,1.3785205992294784,4.55995871711203,6.90877192982456,18,0.1
1755690919.0821185,0.776,-0.096,9.804,1.3785205992294784,4.55995871711203,6.90877192982456,18,0.1
1755690919.1102126,0.659,0.281,9.631,1.378914335627852,4.254154317127153,6.914636591478696,18,0.1
1755690919.1385374,0.733,0.108,10.187,1.379401307633134,4.159871109721995,6.918345864661655,18,0.1
1755690919.1668248,0.733,0.108,10.187,1.379401307633134,4.159871109721995,6.918345864661655,18,0.1
1755690919.1948884,0.698,0.478,9.693,1.3798427365102155,4.98800841495556,6.920100250626566,18,0.1
1755690919.222984,0.698,0.478,9.693,1.3798427365102155,4.98800841495556,6.920100250626566,18,0.1
1755690919.2510004,0.407,0.43,10.194,1.3799927898362367,3.3240285214642062,6.93468671679198,18,0.1
1755690919.2793534,0.407,0.43,10.194,1.3799927898362367,3.3240285214642062,6.93468671679198,18,0.1
1755690919.3081586,0.466,0.759,9.398,1.3801894761227531,5.4136920844798535,6.937644110275689,18,0.1
1755690919.3365862,0.466,0.759,9.398,1.3801894761227531,5.4136920844798535,6.937644110275689,18,0.1
1755690919.3644223,0.445,0.812,9.724,1.3803688103184597,5.439438536893735,6.938696741854636,18,0.1
1755690919.393325,0.445,0.812,9.724,1.3803688103184597,5.439438536893735,6.938696741854636,18,0.1
1755690919.4214,0.576,0.769,9.657,1.380669219074576,5.681808531873161,6.945263157894736,18,0.1
1755690919.450063,0.576,0.769,9.657,1.380669219074576,5.681808531873161,6.945263157894736,18,0.1
1755690919.478147,0.581,0.635,9.393,1.3809747988287113,5.235445157707655,6.945513784461154,18,0.1
1755690919.50579,0.581,0.635,9.393,1.3809747988287113,5.235445157707655,6.945513784461154,18,0.1
1755690919.5339644,0.433,0.286,9.935,1.3811444955181191,2.989966763829903,6.9529323308270685,18,0.1
1755690919.562126,0.433,0.286,9.935,1.3811444955181191,2.989966763829903,6.9529323308270685,18,0.1
1755690919.5899734,0.597,0.007,9.935,1.3814670245793057,3.4390378857646517,6.961152882205514,18,0.1
1755690919.6182897,0.597,0.007,9.935,1.3814670245793057,3.4390378857646517,6.961152882205514,18,0.1
1755690919.6464841,0.462,-0.137,9.652,1.3816601427268573,2.858170501808242,6.9679197994987465,18,0.1
1755690919.6747851,0.631,-0.401,9.472,1.3820203155163822,4.513075545545523,6.976390977443609,18,0.1
1755690919.7029717,0.631,-0.401,9.472,1.3820203155163822,4.513075545545523,6.976390977443609,18,0.1
1755690919.7308102,0.521,-0.555,9.731,1.382265804756813,4.472966003013591,6.981904761904762,18,0.1
1755690919.7583911,0.521,-0.555,9.731,1.382265804756813,4.472966003013591,6.981904761904762,18,0.1
1755690919.7864833,0.192,-0.747,9.8,1.382299140924279,4.500019627229991,6.998395989974936,18,0.1
1755690919.8144507,0.192,-0.747,9.8,1.382299140924279,4.500019627229991,6.998395989974936,18,0.1
1755690919.842435,0.192,-0.747,9.8,1.382299140924279,4.500019627229991,6.998395989974936,18,0.1
1755690919.8706868,0.802,-0.711,10.206,1.3828806618793972,5.994958575593177,7.028972431077695,18,0.1
1755690919.8990352,0.457,-0.764,9.674,1.3830694297467498,5.25783598544483,7.046265664160401,18,0.1
1755690919.9271858,0.457,-0.764,9.674,1.3830694297467498,5.25783598544483,7.046265664160401,18,0.1
1755690919.9548292,0.462,-0.887,9.648,1.383262324181498,5.918112839886219,7.046516290726817,18,0.1
1755690919.982418,0.462,-0.887,9.648,1.383262324181498,5.918112839886219,7.046516290726817,18,0.1
1755690920.010101,0.628,-0.932,9.709,1.3836186676609998,6.602717502312861,7.05483709273183,18,0.1
1755690920.0382988,0.628,-0.932,9.709,1.3836186676609998,6.602717502312861,7.05483709273183,18,0.1
1755690920.0661006,0.628,-0.932,9.709,1.3836186676609998,6.602717502312861,7.05483709273183,18,0.1
1755690920.0939975,0.209,-1.079,9.569,1.383658129741592,6.552041455185872,7.0758395989974945,18,0.1
1755690920.1226287,0.545,-0.956,9.574,1.3839264368094135,6.556810420840643,7.092681704260651,18,0.1
1755690920.1507177,0.545,-0.956,9.574,1.3839264368094135,6.556810420840643,7.092681704260651,18,0.1
1755690920.1783547,0.388,-0.743,9.526,1.384062405565587,5.0285973467215594,7.100551378446115,18,0.1
1755690920.2063785,0.388,-0.743,9.526,1.384062405565587,5.0285973467215594,7.100551378446115,18,0.1
1755690920.234296,0.407,-0.8,9.719,1.3842120014650936,5.276474138791976,7.101503759398496,18,0.1
1755690920.2625673,0.407,-0.8,9.719,1.3842120014650936,5.276474138791976,7.101503759398496,18,0.1
1755690920.2908294,0.588,-0.545,9.598,1.3845241872210106,4.7748783083126645,7.110576441102757,18,0.1
1755690920.319481,0.588,-0.545,9.598,1.3845241872210106,4.7748783083126645,7.110576441102757,18,0.1
1755690920.3477576,0.364,-0.339,9.724,1.38464380437714,2.928290008968447,7.121804511278194,18,0.1
1755690920.3761144,0.378,-0.281,9.857,1.3847727882219523,2.735725292018034,7.12250626566416,18,0.1
1755690920.4041715,0.378,-0.281,9.857,1.3847727882219523,2.735725292018034,7.12250626566416,18,0.1
1755690920.4319942,0.478,-0.286,10.016,1.3849790196966885,3.1831570368773616,7.127518796992481,18,0.1
1755690920.460581,0.478,-0.286,10.016,1.3849790196966885,3.1831570368773616,7.127518796992481,18,0.1
1755690920.488844,0.552,-0.259,9.945,1.3852540001746971,3.5084918964419027,7.131228070175438,18,0.1
1755690920.5176585,0.552,-0.259,9.945,1.3852540001746971,3.5084918964419027,7.131228070175438,18,0.1
1755690920.5456905,0.438,-0.231,9.738,1.3854271020158369,2.9110094370574444,7.136942355889724,18,0.1
1755690920.5741,0.438,-0.231,9.738,1.3854271020158369,2.9110094370574444,7.136942355889724,18,0.1
1755690920.6029098,0.507,0.005,9.804,1.3856590047699324,2.960476880594051,7.140401002506264,18,0.1
1755690920.6312041,0.507,0.005,9.804,1.3856590047699324,2.960476880594051,7.140401002506264,18,0.1
1755690920.660111,0.764,0.308,8.961,1.3861854556660158,5.252202039361599,7.15328320802005,18,0.1
1755690920.6891508,0.764,0.308,8.961,1.3861854556660158,5.252202039361599,7.15328320802005,18,0.1
1755690920.7170382,0.969,0.798,10.37,1.3870319102313398,6.902106809964362,7.163558897243108,18,0.1
1755690920.7456748,0.969,0.798,10.37,1.3870319102313398,6.902106809964362,7.163558897243108,18,0.1
1755690920.7734923,1.122,-1.276,9.769,1.388165959098551,9.866823416262102,7.171228070175438,18,0.1
1755690920.8020906,1.122,-1.276,9.769,1.388165959098551,9.866823416262102,7.171228070175438,18,0.1
1755690920.8302267,0.762,0.137,9.945,1.3886887124190215,4.451494650238866,7.189273182957393,18,0.1
1755690920.8586135,0.762,0.137,9.945,1.3886887124190215,4.451494650238866,7.189273182957393,18,0.1
1755690920.8869557,0.285,-0.175,10.838,1.3887618235320267,1.7674766647778215,7.213182957393483,18,0.1
1755690920.915459,0.285,-0.175,10.838,1.3887618235320267,1.7674766647778215,7.213182957393483,18,0.1
1755690920.9436724,0.664,-0.591,10.301,1.3891586095547188,4.932088668889285,7.232180451127819,18,0.1
1755690920.9721868,0.664,-0.591,10.301,1.3891586095547188,4.932088668889285,7.232180451127819,18,0.1
1755690921.0001137,1.131,-0.425,9.69,1.39030915446889,7.107352228954519,7.255588972431079,18,0.1
1755690921.0281973,1.131,-0.425,9.69,1.39030915446889,7.107352228954519,7.255588972431079,18,0.1
1755690921.0560873,1.465,-0.387,9.552,1.3922374465226828,9.013841810031355,7.272330827067669,18,0.1
1755690921.085052,1.279,-0.613,9.244,1.393705388523701,8.722901299138815,7.281654135338346,18,0.1
1755690921.1137261,1.279,-0.613,9.244,1.393705388523701,8.722901299138815,7.281654135338346,18,0.1
1755690921.1417637,0.872,-0.332,9.833,1.3943872023222244,5.420626332080315,7.302055137844611,18,0.1
1755690921.1700804,0.872,-0.332,9.833,1.3943872023222244,5.420626332080315,7.302055137844611,18,0.1
1755690921.198017,0.798,-0.425,9.735,1.3949579491869997,5.306005408229685,7.305764411027569,18,0.1
1755690921.2261622,0.798,-0.425,9.735,1.3949579491869997,5.306005408229685,7.305764411027569,18,0.1
1755690921.2540681,1.217,-0.392,9.655,1.3962844991261631,7.543568136853706,7.3267669172932335,18,0.1
1755690921.282465,1.217,-0.392,9.655,1.3962844991261631,7.543568136853706,7.3267669172932335,18,0.1
1755690921.311066,1.112,-0.469,9.797,1.3973910556819804,7.02268252346871,7.332030075187969,18,0.1
1755690921.3390236,1.112,-0.469,9.797,1.3973910556819804,7.02268252346871,7.332030075187969,18,0.1
1755690921.366628,1.289,-0.608,9.674,1.3988765367250964,8.38066526514981,7.340902255639096,18,0.1
1755690921.395106,1.289,-0.608,9.674,1.3988765367250964,8.38066526514981,7.340902255639096,18,0.1
1755690921.423294,1.289,-0.608,9.674,1.3988765367250964,8.38066526514981,7.340902255639096,18,0.1
1755690921.4511805,1.148,-0.762,9.743,1.4000536864706294,8.04952350511388,7.3479699248120305,18,0.1
1755690921.479115,1.139,-0.632,9.828,1.4012114856437625,7.549912322894082,7.348421052631577,18,0.1
1755690921.5076864,1.139,-0.632,9.828,1.4012114856437625,7.549912322894082,7.348421052631577,18,0.1
1755690921.5362806,1.375,-0.651,9.624,1.4028970703512071,8.982761307261557,7.360250626566415,18,0.1
1755690921.5648842,0.884,-0.541,9.726,1.4035931853639074,6.082504212340233,7.384862155388471,18,0.1
1755690921.5940392,0.884,-0.541,9.726,1.4035931853639074,6.082504212340233,7.384862155388471,18,0.1
1755690921.6222649,0.884,-0.541,9.726,1.4035931853639074,6.082504212340233,7.384862155388471,18,0.1
1755690921.650126,1.363,-0.452,9.693,1.4052466874182625,8.4269227002234,7.408872180451128,18,0.1
1755690921.6784618,1.308,-0.06,9.659,1.4067677180330802,7.71996482896978,7.411629072681704,18,0.1
1755690921.7066422,1.308,-0.06,9.659,1.4067677180330802,7.71996482896978,7.411629072681704,18,0.1
1755690921.73459,1.167,-0.079,9.899,1.4079773204849573,6.738852073785877,7.418696741854638,18,0.1
1755690921.763059,1.167,-0.079,9.899,1.4079773204849573,6.738852073785877,7.418696741854638,18,0.1
1755690921.7913144,1.341,-0.192,9.75,1.409572927343598,7.910094735919451,7.427418546365915,18,0.1
1755690921.8200743,1.341,-0.192,9.75,1.409572927343598,7.910094735919451,7.427418546365915,18,0.1
1755690921.8480742,1.12,-0.175,9.669,1.4106848824241367,6.68680723848675,7.438496240601504,18,0.1
1755690921.8761704,1.12,-0.175,9.669,1.4106848824241367,6.68680723848675,7.438496240601504,18,0.1
1755690921.9046142,1.158,-0.089,9.733,1.4118726031409492,6.804789022783977,7.440401002506265,18,0.1
1755690921.933066,1.158,-0.089,9.733,1.4118726031409492,6.804789022783977,7.440401002506265,18,0.1
1755690921.9609592,1.401,0.014,9.636,1.4136092989224427,8.272806407572839,7.452581453634085,18,0.1
1755690921.9895484,1.401,0.014,9.636,1.4136092989224427,8.272806407572839,7.452581453634085,18,0.1
1755690922.0175567,1.089,-0.024,9.491,1.41465757429139,6.54708493520142,7.4682205513784465,18,0.1
1755690922.0461123,1.089,-0.024,9.491,1.41465757429139,6.54708493520142,7.4682205513784465,18,0.1
1755690922.07459,1.203,-0.151,9.809,1.415935759489109,7.046294825996557,7.47393483709273,18,0.1
1755690922.1029813,1.203,-0.151,9.809,1.415935759489109,7.046294825996557,7.47393483709273,18,0.1
1755690922.1311038,1.339,-0.171,9.688,1.4175176815475705,7.932222235492252,7.480751879699247,18,0.1
1755690922.1592827,0.788,-0.353,9.835,1.418065138666063,5.017361833677699,7.508370927318296,18,0.1
1755690922.1875322,0.788,-0.353,9.835,1.418065138666063,5.017361833677699,7.508370927318296,18,0.1
1755690922.215815,0.438,-0.147,9.866,1.4182342357664337,2.681115345570036,7.525914786967419,18,0.1
1755690922.2441323,0.438,-0.147,9.866,1.4182342357664337,2.681115345570036,7.525914786967419,18,0.1
1755690922.2722182,-0.32,-0.73,10.895,1.418324485969272,4.184194077651531,7.56390977443609,18,0.1
1755690922.301091,-0.32,-0.73,10.895,1.418324485969272,4.184194077651531,7.56390977443609,18,0.1
1755690922.3295681,0.164,-0.481,10.84,1.4183481897968497,2.6841175744986945,7.588170426065163,18,0.1
1755690922.3577335,0.164,-0.481,10.84,1.4183481897968497,2.6841175744986945,7.588170426065163,18,0.1
1755690922.3854692,-0.275,-0.75,10.463,1.4184148370628389,4.365938139311025,7.610175438596491,18,0.1
1755690922.414074,-0.275,-0.75,10.463,1.4184148370628389,4.365938139311025,7.610175438596491,18,0.1
1755690922.4421625,0.245,-0.944,9.581,1.4184677340355685,5.812266084853241,7.636240601503759,18,0.1
1755690922.4681935,0.245,-0.944,9.581,1.4184677340355685,5.812266084853241,7.636240601503759,18,0.1
1755690922.4971528,-0.387,-0.56,8.595,1.4185997092203284,4.5282945848237315,7.667919799498747,18,0.1
1755690922.526224,-0.387,-0.56,8.595,1.4185997092203284,4.5282945848237315,7.667919799498747,18,0.1
1755690922.5544996,-1.253,-0.339,8.431,1.4199824497154887,8.752612409246192,7.711328320802005,18,0.1
1755690922.583643,-1.253,-0.339,8.431,1.4199824497154887,8.752612409246192,7.711328320802005,18,0.1
1755690922.6120462,-3.079,-0.73,9.044,1.4283034551523006,19.284146783190018,7.802857142857143,19,0.1
1755690922.6417234,-3.079,-0.73,9.044,1.4283034551523006,19.284146783190018,7.802857142857143,19,0.1
1755690922.6699064,-1.83,-0.466,8.818,1.4312312915807843,12.087481942992191,7.86546365914787,19,0.1
1755690922.698768,-1.83,-0.466,8.818,1.4312312915807843,12.087481942992191,7.86546365914787,19,0.1
1755690922.7266932,-1.83,-0.466,8.818,1.4312312915807843,12.087481942992191,7.86546365914787,19,0.1
1755690922.7547789,-1.83,-0.466,8.818,1.4312312915807843,12.087481942992191,7.86546365914787,19,0.1
1755690922.7824283,-0.206,-0.341,9.146,1.431268353594112,2.4941852455959097,7.946867167919799,19,0.1
1755690922.8112652,-3.344,-0.694,9.733,1.441001367105528,19.335689382607363,8.104160401002506,20,0.1
1755690922.839825,-2.361,-0.293,9.762,1.445828738993661,13.696632127882165,8.1534335839599,20,0.1
1755690922.8689315,-1.37,-0.483,9.22,1.447450514698171,8.95358425802019,8.203107769423559,20,0.1
1755690922.897203,-1.37,-0.483,9.22,1.447450514698171,8.95358425802019,8.203107769423559,20,0.1
1755690922.9254334,-0.921,-0.396,8.804,1.4481828596555064,6.496377927814567,8.22561403508772,20,0.1
1755690922.9538689,-0.921,-0.396,8.804,1.4481828596555064,6.496377927814567,8.22561403508772,20,0.1
1755690922.9817314,-3.918,-0.62,9.888,1.4613727809836887,21.859092835965328,8.375839598997494,21,0.1
1755690923.0109408,-3.918,-0.62,9.888,1.4613727809836887,21.859092835965328,8.375839598997494,21,0.1
1755690923.038973,-1.737,-0.423,8.937,1.4639512722423516,11.3121726783131,8.48516290726817,21,0.1
1755690923.0672722,-1.737,-0.423,8.937,1.4639512722423516,11.3121726783131,8.48516290726817,21,0.1
1755690923.0957887,-0.392,-0.442,8.714,1.4640824729160582,3.878565450135011,8.552581453634085,21,0.1
1755690923.12453,-0.392,-0.442,8.714,1.4640824729160582,3.878565450135011,8.552581453634085,21,0.1
1755690923.1528747,-1.47,-0.639,9.569,1.4659262387651024,9.509188229847814,8.606616541353384,21,0.1
1755690923.1817822,-1.47,-0.639,9.569,1.4659262387651024,9.509188229847814,8.606616541353384,21,0.1
1755690923.2100036,-2.092,-0.238,9.609,1.469653325617984,12.35914998553431,8.637794486215538,22,0.1
1755690923.2385688,-1.529,-0.545,9.472,1.4716404112418222,9.724379502728638,8.666015037593985,22,0.1
1755690923.2669084,-1.529,-0.545,9.472,1.4716404112418222,9.724379502728638,8.666015037593985,22,0.1
1755690923.2952201,-0.43,-0.24,9.479,1.4717974554944713,2.9738956872970626,8.72110275689223,22,0.1
1755690923.3238618,-0.43,-0.24,9.479,1.4717974554944713,2.9738956872970626,8.72110275689223,22,0.1
1755690923.3522978,-0.082,-0.452,9.564,1.471803166187653,2.7499161851490124,8.738546365914786,22,0.1
1755690923.381207,-0.082,-0.452,9.564,1.471803166187653,2.7499161851490124,8.738546365914786,22,0.1
1755690923.4100268,-0.442,-0.293,10.068,1.471969079158934,3.0150601962397143,8.756591478696743,22,0.1
1755690923.4382746,-0.442,-0.293,10.068,1.471969079158934,3.0150601962397143,8.756591478696743,22,0.1
1755690923.4665492,-0.092,-0.526,10.315,1.471976266792369,2.9634320005534147,8.774135338345864,22,0.1
1755690923.4951608,-0.092,-0.526,10.315,1.471976266792369,2.9634320005534147,8.774135338345864,22,0.1
1755690923.5233648,0.323,-0.425,10.27,1.4720648601539268,2.9754243757076546,8.794937343358397,22,0.1
1755690923.5525913,0.323,-0.425,10.27,1.4720648601539268,2.9754243757076546,8.794937343358397,22,0.1
1755690923.581038,0.352,-0.517,9.937,1.472170069149621,3.601557467201396,8.79639097744361,22,0.1
1755690923.6090496,0.352,-0.517,9.937,1.472170069149621,3.601557467201396,8.79639097744361,22,0.1
1755690923.636923,0.299,-0.452,9.733,1.4722459763911735,3.187009454458145,8.799047619047618,22,0.1
1755690923.6652238,0.299,-0.452,9.733,1.4722459763911735,3.187009454458145,8.799047619047618,22,0.1
1755690923.6938846,0.452,-0.384,9.517,1.472419429035083,3.5660260332915676,8.80671679197995,22,0.1
1755690923.7225928,0.452,-0.384,9.517,1.472419429035083,3.5660260332915676,8.80671679197995,22,0.1
1755690923.7512069,0.333,-0.495,9.961,1.4725135644536522,3.427470714069602,8.812681704260651,22,0.1
1755690923.780153,-0.046,-0.541,10.016,1.4725153607008654,3.102880049711257,8.831679197994989,22,0.1
1755690923.808825,-0.046,-0.541,10.016,1.4725153607008654,3.102880049711257,8.831679197994989,22,0.1
1755690923.8369336,1.031,-0.639,9.876,1.4734174187921087,7.001965012515509,8.885664160401001,22,0.1
1755690923.8650978,1.031,-0.639,9.876,1.4734174187921087,7.001965012515509,8.885664160401001,22,0.1
1755690923.8936615,0.466,-0.55,9.892,1.4736016354496897,4.168016848023639,8.913984962406014,22,0.1
1755690923.9223576,0.466,-0.55,9.892,1.4736016354496897,4.168016848023639,8.913984962406014,22,0.1
1755690923.9509618,-0.244,-0.454,9.714,1.4736521366998387,3.0372044355097247,8.949573934837092,22,0.1
1755690923.979584,-0.244,-0.454,9.714,1.4736521366998387,3.0372044355097247,8.949573934837092,22,0.1
1755690924.008367,0.414,-0.622,9.662,1.4737975132290053,4.421993931713808,8.982556390977443,22,0.1
1755690924.0368547,0.414,-0.622,9.662,1.4737975132290053,4.421993931713808,8.982556390977443,22,0.1
1755690924.0651927,-1.093,-0.219,10.546,1.4748104056115146,6.033824119953273,9.058095238095238,22,0.1
1755690924.0937867,-1.093,-0.219,10.546,1.4748104056115146,6.033824119953273,9.058095238095238,22,0.1
1755690924.12238,-0.821,-0.851,10.508,1.4753815896235114,6.4205249973568,9.07172932330827,22,0.1
1755690924.1508884,-0.821,-0.851,10.508,1.4753815896235114,6.4205249973568,9.07172932330827,22,0.1
1755690924.1792786,-1.007,-0.351,10.185,1.4762404809176586,5.97736791566112,9.081052631578947,22,0.1
1755690924.20754,-1.007,-0.351,10.185,1.4762404809176586,5.97736791566112,9.081052631578947,22,0.1
1755690924.236403,-1.78,-0.62,10.375,1.4789208760106134,10.296953933907083,9.119799498746866,23,0.1
1755690924.2656946,-2.132,0.161,10.042,1.4827577406643337,12.019527523020882,9.137443609022556,23,0.1
1755690924.2942653,-2.132,0.161,10.042,1.4827577406643337,12.019527523020882,9.137443609022556,23,0.1
1755690924.3230236,-2.588,-0.322,8.545,1.4883933880194442,16.972316495995546,9.1603007518797,23,0.1
1755690924.3517752,-2.588,-0.322,8.545,1.4883933880194442,16.972316495995546,9.1603007518797,23,0.1
1755690924.3803895,-2.471,-0.296,7.796,1.4935124639587043,17.704300310617874,9.166165413533834,23,0.1
1755690924.4095123,-2.471,-0.296,7.796,1.4935124639587043,17.704300310617874,9.166165413533834,23,0.1
1755690924.4378943,-3.327,-0.449,8.174,1.5027480835123366,22.328551006423936,9.20907268170426,23,0.1
1755690924.4665737,-3.327,-0.449,8.174,1.5027480835123366,22.328551006423936,9.20907268170426,23,0.1
1755690924.4953675,-3.754,-0.38,7.376,1.51442500392063,27.091959279297523,9.23047619047619,23,0.1
1755690924.5242116,-3.754,-0.38,7.376,1.51442500392063,27.091959279297523,9.23047619047619,23,0.1
1755690924.5521855,-1.713,-0.07,6.984,1.5168450860255969,13.792221737103459,9.332781954887217,23,0.1
1755690924.580614,-1.713,-0.07,6.984,1.5168450860255969,13.792221737103459,9.332781954887217,23,0.1
1755690924.6085603,-2.855,-0.19,8.664,1.523547366346055,18.275980689046587,9.390025062656642,23,0.1
1755690924.637575,-2.855,-0.19,8.664,1.523547366346055,18.275980689046587,9.390025062656642,23,0.1
1755690924.6663334,-2.814,0.274,8.916,1.5300304139133967,17.594082103994726,9.392080200501253,23,0.1
1755690924.6950278,-2.814,0.274,8.916,1.5300304139133967,17.594082103994726,9.392080200501253,23,0.1
1755690924.7240012,-1.782,-1.363,10.957,1.5326225489336898,11.571652396412977,9.443809523809524,23,0.1
1755690924.7528772,-1.782,-1.363,10.957,1.5326225489336898,11.571652396412977,9.443809523809524,23,0.1
1755690924.781674,-1.982,-0.473,10.738,1.5358231302790044,10.744776138536238,9.453834586466165,23,0.1
1755690924.810536,-1.31,-0.469,9.914,1.5372192223297234,7.989244552460361,9.48751879699248,23,0.1
1755690924.8393307,-1.31,-0.469,9.914,1.5372192223297234,7.989244552460361,9.48751879699248,23,0.1
1755690924.8676124,0.004,-0.642,9.476,1.5372192353402294,3.875947165730045,9.553383458646618,23,0.1
1755690924.8969269,0.004,-0.642,9.476,1.5372192353402294,3.875947165730045,9.553383458646618,23,0.1
1755690924.926249,0.099,-0.687,9.721,1.5372272050676177,4.084088546368301,9.55814536340852,23,0.1
1755690924.9552307,0.099,-0.687,9.721,1.5372272050676177,4.084088546368301,9.55814536340852,23,0.1
1755690924.983635,-0.104,-0.526,10.123,1.5372360000988787,3.0319402299283067,9.568320802005012,23,0.1
1755690925.0123098,-0.104,-0.526,10.123,1.5372360000988787,3.0319402299283067,9.568320802005012,23,0.1
1755690925.0410058,-0.428,-0.538,11.261,1.5373849485408657,3.493548048841042,9.584561403508772,23,0.1
1755690925.0696852,-0.428,-0.538,11.261,1.5373849485408657,3.493548048841042,9.584561403508772,23,0.1
1755690925.0983102,-1.594,-0.168,11.86,1.5394494372989325,7.696649733577466,9.643007518796992,23,0.1
1755690925.126894,-1.594,-0.168,11.86,1.5394494372989325,7.696649733577466,9.643007518796992,23,0.1
1755690925.1553605,-2.001,-0.8,13.492,1.5426971745938993,9.074849989941523,9.663408521303257,23,0.1
1755690925.1847477,-2.473,-0.348,11.444,1.5476446281365757,12.310369437857823,9.687067669172933,24,0.1
1755690925.2139077,-2.473,-0.348,11.444,1.5476446281365757,12.310369437857823,9.687067669172933,24,0.1
1755690925.2424324,-2.473,-0.348,11.444,1.5476446281365757,12.310369437857823,9.687067669172933,24,0.1
1755690925.2711143,-1.129,-0.115,8.371,1.5486737866639315,7.720421053621319,9.754436090225566,24,0.1
1755690925.300021,-2.039,-0.353,7.333,1.552025869629756,15.758763916257294,9.800050125313282,25,0.1
1755690925.3293173,-2.039,-0.353,7.333,1.552025869629756,15.758763916257294,9.800050125313282,25,0.1
1755690925.3574688,-3.809,-0.257,6.794,1.5636673247529347,29.332348019285106,9.88877192982456,25,0.1
1755690925.3868198,-3.809,-0.257,6.794,1.5636673247529347,29.332348019285106,9.88877192982456,25,0.1
1755690925.4152408,-5.342,-0.089,7.499,1.5863158299972928,35.46837125605097,9.96561403508772,25,0.1
1755690925.4448948,-5.342,-0.089,7.499,1.5863158299972928,35.46837125605097,9.96561403508772,25,0.1
1755690925.4734857,-4.083,-0.207,6.468,1.5993983665741316,32.29584806224956,10.028721804511278,25,0.1
1755690925.5028615,-4.083,-0.207,6.468,1.5993983665741316,32.29584806224956,10.028721804511278,25,0.1
1755690925.5312662,-4.457,-0.392,8.419,1.6148489890698758,27.988027117041597,10.0474686716792,25,0.1
1755690925.5603764,-4.698,-0.651,7.012,1.6318441308838292,34.0742699371342,10.05954887218045,25,0.1
1755690925.590034,-4.698,-0.651,7.012,1.6318441308838292,34.0742699371342,10.05954887218045,25,0.1
1755690925.6183777,-2.452,0.055,8.267,1.6364431024328345,16.524335199857187,10.172130325814537,25,0.1
1755690925.6477754,-2.452,0.055,8.267,1.6364431024328345,16.524335199857187,10.172130325814537,25,0.1
1755690925.676268,-4.242,-0.615,9.144,1.6501310364634683,25.115344213025967,10.261854636591478,25,0.1
1755690925.7055106,-4.242,-0.615,9.144,1.6501310364634683,25.115344213025967,10.261854636591478,25,0.1
1755690925.7340212,-3.139,-0.223,9.075,1.657578275678105,19.124861816956724,10.317142857142857,25,0.1
1755690925.7635405,-3.139,-0.223,9.075,1.657578275678105,19.124861816956724,10.317142857142857,25,0.1
1755690925.7933395,-2.407,-0.053,10.306,1.6619415941903615,13.149048281618164,10.353834586466165,25,0.1
1755690925.8229673,-2.407,-0.053,10.306,1.6619415941903615,13.149048281618164,10.353834586466165,25,0.1
1755690925.8514807,-2.054,-0.968,9.766,1.6651117537570863,13.089147481649217,10.371528822055136,25,0.1
1755690925.8804193,-2.054,-0.968,9.766,1.6651117537570863,13.089147481649217,10.371528822055136,25,0.1
1755690925.9088635,-0.423,0.147,10.089,1.665246070405212,2.5414869501885757,10.45328320802005,25,0.1
1755690925.9375923,-0.423,0.147,10.089,1.665246070405212,2.5414869501885757,10.45328320802005,25,0.1
1755690925.965532,0.042,-0.55,10.334,1.6652473945333166,3.0553960554578965,10.476591478696742,25,0.1
1755690925.9944503,-0.323,-0.252,10.508,1.6653257061307858,2.232653629882064,10.494887218045111,25,0.1
1755690926.0247543,-0.323,-0.252,10.508,1.6653257061307858,2.232653629882064,10.494887218045111,25,0.1
1755690926.0541499,-0.304,-0.526,10.265,1.6653950724978142,3.3870739517005477,10.495839598997494,25,0.1
1755690926.0826104,-0.304,-0.526,10.265,1.6653950724978142,3.3870739517005477,10.495839598997494,25,0.1
1755690926.1112058,0.24,-0.488,10.168,1.6654383049215604,3.061480347708776,10.523107769423557,25,0.1
1755690926.1396701,0.24,-0.488,10.168,1.6654383049215604,3.061480347708776,10.523107769423557,25,0.1
1755690926.1682708,0.328,-0.483,9.676,1.6655190504764574,3.4530020733198246,10.52751879699248,25,0.1
1755690926.1968534,0.328,-0.483,9.676,1.6655190504764574,3.4530020733198246,10.52751879699248,25,0.1
1755690926.225543,0.445,-0.413,9.681,1.6656676649319935,3.5884605161243877,10.533383458646616,25,0.1
1755690926.2536774,0.445,-0.413,9.681,1.6656676649319935,3.5884605161243877,10.533383458646616,25,0.1
1755690926.2819996,0.09,-0.565,9.714,1.6656737435644473,3.370642638158012,10.551177944862156,25,0.1
1755690926.3106394,0.09,-0.565,9.714,1.6656737435644473,3.370642638158012,10.551177944862156,25,0.1
1755690926.339287,0.249,-0.947,9.916,1.665720271384124,5.639579013834767,10.559147869674186,25,0.1
1755690926.3682845,0.249,-0.947,9.916,1.665720271384124,5.639579013834767,10.559147869674186,25,0.1
1755690926.3971891,0.214,-1.043,9.911,1.6657546375441972,6.1317051864238215,10.560902255639098,25,0.1
1755690926.4260895,0.195,-1.504,10.275,1.6657831716643077,8.396226903106449,10.56185463659148,25,0.1
1755690926.454717,0.195,-1.504,10.275,1.6657831716643077,8.396226903106449,10.56185463659148,25,0.1
1755690926.4834757,0.748,-2.083,9.495,1.6662029693287668,13.121038716539065,10.532982456140351,26,0.1
1755690926.5120208,0.748,-2.083,9.495,1.6662029693287668,13.121038716539065,10.532982456140351,26,0.1
1755690926.5402167,0.626,-2.49,9.579,1.6655405796617504,15.004459221554217,10.511027568922305,26,0.1
1755690926.5691218,0.626,-2.49,9.579,1.6655405796617504,15.004459221554217,10.511027568922305,26,0.1
1755690926.5984232,0.526,-3.098,9.255,1.6636061162426639,18.75381656789828,10.4528320802005,26,0.1
1755690926.6274412,0.526,-3.098,9.255,1.6636061162426639,18.75381656789828,10.4528320802005,26,0.1
1755690926.6563122,0.435,-3.893,8.645,1.6636106553217311,24.376260885380876,10.313383458646616,26,0.1
1755690926.6854742,0.435,-3.893,8.645,1.6636106553217311,24.376260885380876,10.313383458646616,26,0.1
1755690926.7150111,-0.096,-4.326,8.866,1.6554099039210801,26.014761439829556,10.25298245614035,26,0.1
1755690926.7447898,-0.096,-4.326,8.866,1.6554099039210801,26.014761439829556,10.25298245614035,26,0.1
1755690926.7736328,0.082,-4.833,8.818,1.6535645428890884,28.729894393252884,10.242907268170425,26,0.1
1755690926.80269,0.082,-4.833,8.818,1.6535645428890884,28.729894393252884,10.242907268170425,26,0.1
1755690926.8317559,0.454,-5.049,7.979,1.6508613350308985,32.429390116794366,10.233233082706766,26,0.1
1755690926.8604321,0.991,-5.878,7.728,1.6468335214890424,37.64461494488797,10.2062656641604,26,0.1
1755690926.8894777,0.991,-5.878,7.728,1.6468335214890424,37.64461494488797,10.2062656641604,26,0.1
1755690926.9177828,1.031,-6.015,7.568,1.6460793298015743,38.88217401848746,10.208020050125313,26,0.1
1755690926.9462698,1.031,-6.015,7.568,1.6460793298015743,38.88217401848746,10.208020050125313,26,0.1
1755690926.9747276,0.628,-6.291,7.172,1.6448058601245314,41.39684814792592,10.156040100250625,26,0.1
1755690927.003313,0.628,-6.291,7.172,1.6448058601245314,41.39684814792592,10.156040100250625,26,0.1
1755690927.032219,0.586,-6.536,7.324,1.645066808673739,41.859962342903906,10.141253132832079,26,0.1
1755690927.0609257,0.586,-6.536,7.324,1.645066808673739,41.859962342903906,10.141253132832079,26,0.1
1755690927.0895145,0.538,-6.508,7.062,1.6451999285801104,42.759422280947206,10.13142857142857,26,0.1
1755690927.119185,0.538,-6.508,7.062,1.6451999285801104,42.759422280947206,10.13142857142857,26,0.1
1755690927.1474874,0.488,-6.685,6.896,1.6453741443817573,44.185995211674914,10.038245614035088,26,0.1
1755690927.1764517,0.488,-6.685,6.896,1.6453741443817573,44.185995211674914,10.038245614035088,26,0.1
1755690927.2053015,0.648,-6.515,6.848,1.6431890556171556,43.71336005513225,9.94205513784461,26,0.1
1755690927.2343714,0.648,-6.515,6.848,1.6431890556171556,43.71336005513225,9.94205513784461,26,0.1
1755690927.262891,0.395,-5.683,7.307,1.6432547261456454,37.94082564764542,9.93393483709273,26,0.1
1755690927.2920215,0.428,-5.272,7.281,1.6433767226354399,35.99685095150657,9.820250626566416,26,0.1
1755690927.3210132,0.428,-5.272,7.281,1.6433767226354399,35.99685095150657,9.820250626566416,26,0.1
1755690927.3495698,0.216,-4.763,7.889,1.6398925094346886,31.14761449411221,9.822606516290728,26,0.1
1755690927.3779833,0.216,-4.763,7.889,1.6398925094346886,31.14761449411221,9.822606516290728,26,0.1
1755690927.4064195,0.349,-4.559,8.702,1.6369793469986114,27.71902534440419,9.80045112781955,26,0.1
1755690927.4353132,0.349,-4.559,8.702,1.6369793469986114,27.71902534440419,9.80045112781955,26,0.1
1755690927.4642406,0.679,-3.833,8.859,1.6358128667424032,23.720859319897766,9.813884711779448,26,0.1
1755690927.4933693,0.679,-3.833,8.859,1.6358128667424032,23.720859319897766,9.813884711779448,26,0.1
1755690927.5220726,0.626,-3.963,9.274,1.6344560150092753,23.394374830042725,9.731127819548872,26,0.1
1755690927.5509813,0.626,-3.963,9.274,1.6344560150092753,23.394374830042725,9.731127819548872,26,0.1
1755690927.580243,0.941,-3.107,9.277,1.635091926314848,19.286864956732636,9.653583959899748,26,0.1
1755690927.608822,0.941,-3.107,9.277,1.635091926314848,19.286864956732636,9.653583959899748,26,0.1
1755690927.637892,1.003,-2.571,10.348,1.6338293607350798,14.932722531757019,9.620852130325813,26,0.1
1755690927.6665704,0.078,-2.035,9.973,1.6331933527601683,11.541173703020414,9.644010025062657,26,0.1
1755690927.6954813,0.078,-2.035,9.973,1.6331933527601683,11.541173703020414,9.644010025062657,26,0.1
1755690927.7244356,0.078,-2.035,9.973,1.6331933527601683,11.541173703020414,9.644010025062657,26,0.1
1755690927.7531397,-0.342,-1.062,10.358,1.6331265038263265,6.147898181322401,9.613784461152882,26,0.1
1755690927.781759,-0.058,-0.81,10.094,1.6314630014192784,4.599604834656587,9.626015037593984,26,0.1
1755690927.8111336,-0.058,-0.81,10.094,1.6314630014192784,4.599604834656587,9.626015037593984,26,0.1
1755690927.8399181,0.369,-0.697,9.819,1.629807922732001,4.592073140669055,9.642406015037594,26,0.1
1755690927.8687239,0.369,-0.697,9.819,1.629807922732001,4.592073140669055,9.642406015037594,26,0.1
1755690927.8976543,0.45,-0.668,9.7,1.6284270178611016,4.746633911697086,9.57764411027569,26,0.1
1755690927.926685,0.45,-0.668,9.7,1.6284270178611016,4.746633911697086,9.57764411027569,26,0.1
1755690927.9549723,0.149,-0.651,9.724,1.628442705470475,3.9288427896480456,9.500100250626566,26,0.1
1755690927.9839716,0.149,-0.651,9.724,1.628442705470475,3.9288427896480456,9.500100250626566,26,0.1
1755690928.012867,0.063,-0.781,9.74,1.625701484744355,4.5992697647983904,9.451929824561402,26,0.1
1755690928.04133,0.063,-0.781,9.74,1.625701484744355,4.5992697647983904,9.451929824561402,26,0.1
1755690928.070255,0.13,-0.803,9.543,1.6251679743952625,4.872172554565921,9.453032581453634,26,0.1
1755690928.0985606,0.156,-0.771,9.417,1.6246968255646959,4.77496361452379,9.4262656641604,26,0.1
1755690928.1270897,0.156,-0.771,9.417,1.6246968255646959,4.77496361452379,9.4262656641604,26,0.1
1755690928.155823,0.206,-0.757,9.676,1.62331003046245,4.635392717860035,9.313333333333333,26,0.1
1755690928.1846282,0.206,-0.757,9.676,1.62331003046245,4.635392717860035,9.313333333333333,26,0.1
1755690928.21319,0.08,-0.779,9.705,1.6226271575750233,4.613205335804266,9.215338345864662,26,0.1
1755690928.2415361,0.08,-0.779,9.705,1.6226271575750233,4.613205335804266,9.215338345864662,26,0.1
1755690928.269726,0.166,-0.594,9.902,1.6216539527593425,3.5641396477906366,9.182255639097743,26,0.1
1755690928.298685,0.166,-0.594,9.902,1.6216539527593425,3.5641396477906366,9.182255639097743,26,0.1
1755690928.327381,0.23,-0.678,9.762,1.6215774858143537,4.194589798201863,9.157744360902255,26,0.1
1755690928.355941,0.23,-0.678,9.762,1.6215774858143537,4.194589798201863,9.157744360902255,26,0.1
1755690928.3848515,0.113,-0.726,9.766,1.6209017066127112,4.302521525967105,9.151177944862155,26,0.1
1755690928.4136195,0.113,-0.726,9.766,1.6209017066127112,4.302521525967105,9.151177944862155,26,0.1
1755690928.4420643,0.266,-0.685,9.728,1.6205837435936472,4.319806741550812,9.116090225563909,26,0.1
1755690928.4708066,0.266,-0.685,9.728,1.6205837435936472,4.319806741550812,9.116090225563909,26,0.1
1755690928.499218,0.073,-0.586,9.842,1.6205685985171996,3.4336850250245163,9.082756892230575,26,0.1
1755690928.5279117,0.073,-0.586,9.842,1.6205685985171996,3.4336850250245163,9.082756892230575,26,0.1
1755690928.556427,0.049,-0.613,9.852,1.620192453074634,3.5717305395299417,9.083258145363407,26,0.1
1755690928.584455,0.216,-0.569,9.695,1.6198653447123312,3.592119221969055,9.065914786967419,26,0.1
1755690928.6132002,0.216,-0.569,9.695,1.6198653447123312,3.592119221969055,9.065914786967419,26,0.1
1755690928.6410637,0.011,-0.517,9.56,1.6198423426370852,3.0962108520544316,9.003659147869673,26,0.1
1755690928.66924,0.011,-0.517,9.56,1.6198423426370852,3.0962108520544316,9.003659147869673,26,0.1
1755690928.698058,0.144,-0.423,9.781,1.6186053765510604,2.6157033248840813,8.876340852130326,26,0.1
1755690928.7265925,0.144,-0.423,9.781,1.6186053765510604,2.6157033248840813,8.876340852130326,26,0.1
1755690928.7547953,0.144,-0.423,9.781,1.6186053765510604,2.6157033248840813,8.876340852130326,26,0.1
1755690928.783387,0.144,-0.495,9.752,1.617109211679904,3.0260110417024526,8.827318295739348,26,0.1
1755690928.8118107,0.082,-0.531,9.804,1.616977399347313,3.136874998781799,8.816541353383457,26,0.1
1755690928.8406336,0.082,-0.531,9.804,1.616977399347313,3.136874998781799,8.816541353383457,26,0.1
1755690928.8693807,0.218,-0.625,9.681,1.616637470183096,3.911451202991765,8.812581453634087,26,0.1
1755690928.8979483,0.218,-0.625,9.681,1.616637470183096,3.911451202991765,8.812581453634087,26,0.1
1755690928.9267762,0.037,-0.512,9.868,1.6164581374103073,2.97785279149277,8.811979949874686,26,0.1
1755690928.9554744,0.037,-0.512,9.868,1.6164581374103073,2.97785279149277,8.811979949874686,26,0.1
1755690928.9840996,0.063,-0.509,9.762,1.6163961712711399,3.0074877074038358,8.76390977443609,26,0.1
1755690929.012624,0.063,-0.509,9.762,1.6163961712711399,3.0074877074038358,8.76390977443609,26,0.1
1755690929.0412905,0.199,-0.514,9.835,1.6151691931497456,3.2076424672045243,8.729974937343357,26,0.1
1755690929.0700252,0.199,-0.514,9.835,1.6151691931497456,3.2076424672045243,8.729974937343357,26,0.1
1755690929.0985243,-0.039,-0.526,9.69,1.6117927797952192,3.1156360083421575,8.679498746867168,26,0.1
1755690929.1273634,0.302,-0.594,9.916,1.6113123075617588,3.8445426792903548,8.638395989974939,26,0.1
1755690929.1559625,0.302,-0.594,9.916,1.6113123075617588,3.8445426792903548,8.638395989974939,26,0.1
1755690929.1845486,-0.163,-1.382,10.12,1.6112544693498914,7.8295172501562265,8.622255639097745,26,0.1
1755690929.2133062,-0.163,-1.382,10.12,1.6112544693498914,7.8295172501562265,8.622255639097745,26,0.1
1755690929.2414818,0.109,-3.895,10.779,1.6110930342472467,19.87453003721568,8.62015037593985,27,0.1
1755690929.270533,0.109,-3.895,10.779,1.6110930342472467,19.87453003721568,8.62015037593985,27,0.1
1755690929.2988849,1.077,-4.871,11.08,1.6115172555700419,24.239114719155094,8.665714285714285,27,0.1
1755690929.326951,1.077,-4.871,11.08,1.6115172555700419,24.239114719155094,8.665714285714285,27,0.1
1755690929.3551323,1.444,-4.256,11.204,1.6127275854898744,21.857345988548566,8.664862155388471,27,0.1
1755690929.3834012,1.444,-4.256,11.204,1.6127275854898744,21.857345988548566,8.664862155388471,27,0.1
1755690929.4119265,1.136,-3.227,9.258,1.6127762848578844,20.280815557649333,8.673884711779449,27,0.1
1755690929.4403942,1.136,-3.227,9.258,1.6127762848578844,20.280815557649333,8.673884711779449,27,0.1
1755690929.4690752,0.214,-4.326,7.027,1.6116273126873968,31.648776778543862,8.705563909774437,27,0.1
1755690929.497941,0.214,-4.326,7.027,1.6116273126873968,31.648776778543862,8.705563909774437,27,0.1
1755690929.5263138,-0.84,-5.292,6.677,1.6114804699406071,38.74683129411076,8.757894736842104,27,0.1
1755690929.5547898,-0.84,-5.292,6.677,1.6114804699406071,38.74683129411076,8.757894736842104,27,0.1
1755690929.5829432,-0.828,-6.303,5.311,1.6113326860086963,50.12337325078014,8.732330827067669,27,0.1
1755690929.6113691,-0.797,-7.212,4.814,1.6116924512759871,56.4373313050836,8.70701754385965,27,0.1
1755690929.6399827,-0.797,-7.212,4.814,1.6116924512759871,56.4373313050836,8.70701754385965,27,0.1
1755690929.668037,-0.797,-7.212,4.814,1.6116924512759871,56.4373313050836,8.70701754385965,27,0.1
1755690929.6960475,0.245,-7.459,5.026,1.6110389101446307,56.04155944650305,8.757794486215538,27,0.1
1755690929.724305,0.364,-7.762,5.092,1.6103979345180495,56.76332135203184,8.753333333333334,27,0.1
1755690929.752734,0.364,-7.762,5.092,1.6103979345180495,56.76332135203184,8.753333333333334,27,0.1
1755690929.7808578,0.123,-7.483,6.036,1.60994820646504,51.11314989863026,8.74,27,0.1
1755690929.8092847,0.123,-7.483,6.036,1.60994820646504,51.11314989863026,8.74,27,0.1
1755690929.8373148,0.142,-7.015,6.582,1.6099097482467768,46.82983872017644,8.727117794486215,27,0.1
1755690929.8654869,0.142,-7.015,6.582,1.6099097482467768,46.82983872017644,8.727117794486215,27,0.1
1755690929.8937397,-0.061,-6.383,7.0,1.6096862116574149,42.361649209041516,8.712080200501251,27,0.1
1755690929.922265,-0.061,-6.383,7.0,1.6096862116574149,42.361649209041516,8.712080200501251,27,0.1
1755690929.9506197,0.121,-5.198,7.566,1.6088525973500494,34.497121731585835,8.695187969924813,27,0.1
1755690929.9792647,0.121,-5.198,7.566,1.6088525973500494,34.497121731585835,8.695187969924813,27,0.1
1755690930.0073884,0.23,-4.475,8.635,1.6086803566899175,27.425871449732256,8.689774436090225,27,0.1
1755690930.0357597,0.23,-4.475,8.635,1.6086803566899175,27.425871449732256,8.689774436090225,27,0.1
1755690930.0640194,0.273,-4.362,9.094,1.608665033498273,25.668725598356335,8.689824561403508,27,0.1
1755690930.092579,0.273,-4.362,9.094,1.608665033498273,25.668725598356335,8.689824561403508,27,0.1
1755690930.1211843,0.679,-3.355,9.683,1.6089286155700009,19.468919647773763,8.708872180451127,27,0.1
1755690930.15021,0.679,-3.355,9.683,1.6089286155700009,19.468919647773763,8.708872180451127,27,0.1
1755690930.1784008,0.323,-2.432,9.883,1.6089286155700009,13.941292934964004,8.699799498746865,27,0.1
1755690930.2072732,0.349,-1.939,10.123,1.6084485669426922,11.013339574304474,8.690827067669172,27,0.1
1755690930.2358556,0.349,-1.939,10.123,1.6084485669426922,11.013339574304474,8.690827067669172,27,0.1
1755690930.2640753,0.261,-1.218,9.933,1.608168067242973,7.1478775834409785,8.687869674185464,27,0.1
1755690930.2925675,0.261,-1.218,9.933,1.608168067242973,7.1478775834409785,8.687869674185464,27,0.1
1755690930.3206174,0.268,-0.024,10.163,1.607723882543268,1.5165912501807146,8.675839598997493,27,0.1
1755690930.349803,0.268,-0.024,10.163,1.607723882543268,1.5165912501807146,8.675839598997493,27,0.1
1755690930.3783724,0.569,1.199,10.465,1.6077361171846578,7.227623313004105,8.690676691729323,27,0.1
1755690930.4066052,0.569,1.199,10.465,1.6077361171846578,7.227623313004105,8.690676691729323,27,0.1
1755690930.435388,0.438,2.355,10.938,1.60765008086337,12.352571131443256,8.681002506265663,28,0.1
1755690930.464066,0.438,2.355,10.938,1.60765008086337,12.352571131443256,8.681002506265663,28,0.1
1755690930.4924693,-0.509,2.6,10.845,1.6072575384797545,13.728066393333444,8.718796992481204,28,0.1
1755690930.5211735,-0.509,2.6,10.845,1.6072575384797545,13.728066393333444,8.718796992481204,28,0.1
1755690930.549598,-0.454,1.973,9.386,1.6070571497305253,12.172211096654465,8.720701754385964,28,0.1
1755690930.578083,-0.454,1.973,9.386,1.6070571497305253,12.172211096654465,8.720701754385964,28,0.1
1755690930.6063635,0.23,4.91,8.626,1.606755330627535,29.675940526482254,8.749122807017542,28,0.1
1755690930.6348157,0.23,4.91,8.626,1.606755330627535,29.675940526482254,8.749122807017542,28,0.1
1755690930.6628249,0.426,4.376,7.787,1.6066637358202869,29.44988887802013,8.755388471177945,28,0.1
1755690930.6912158,0.426,4.376,7.787,1.6066637358202869,29.44988887802013,8.755388471177945,28,0.1
1755690930.72,-0.418,4.705,6.442,1.606623393953916,36.25035622918483,8.785413533834587,28,0.1
1755690930.7484422,-0.602,4.77,8.048,1.606500898692559,30.853898429412858,8.787117794486214,28,0.1
1755690930.77742,-0.602,4.77,8.048,1.606500898692559,30.853898429412858,8.787117794486214,28,0.1
1755690930.805829,-0.273,4.218,8.295,1.6063051881569703,27.001709774403402,8.79844611528822,28,0.1
1755690930.8342206,-0.273,4.218,8.295,1.6063051881569703,27.001709774403402,8.79844611528822,28,0.1
1755690930.8622756,-0.537,3.689,8.806,1.6061760768981712,22.944597410922853,8.809273182957392,28,0.1
1755690930.8909087,-0.537,3.689,8.806,1.6061760768981712,22.944597410922853,8.809273182957392,28,0.1
1755690930.919605,0.125,2.485,8.854,1.6058832343915916,15.69636986366288,8.83924812030075,28,0.1
1755690930.9487708,0.125,2.485,8.854,1.6058832343915916,15.69636986366288,8.83924812030075,28,0.1
1755690930.9774818,0.743,2.156,9.807,1.6059423510823791,13.090438634649141,8.869674185463658,28,0.1
1755690931.0063927,0.743,2.156,9.807,1.6059423510823791,13.090438634649141,8.869674185463658,28,0.1
1755690931.0351298,0.679,1.629,9.916,1.6059423510823791,10.091809440285342,8.850977443609022,28,0.1
1755690931.0641303,0.679,1.629,9.916,1.6059423510823791,10.091809440285342,8.850977443609022,28,0.1
1755690931.0930939,0.764,0.877,10.284,1.6063510404018169,6.452675371448251,8.839348370927317,28,0.1
1755690931.1222477,0.581,0.586,9.398,1.6063705565653275,5.018045847385837,8.84110275689223,28,0.1
1755690931.1507819,0.581,0.586,9.398,1.6063705565653275,5.018045847385837,8.84110275689223,28,0.1
1755690931.1793196,0.75,-0.375,9.842,1.6064193078085187,4.869765078584286,8.849122807017544,28,0.1
1755690931.2080975,0.75,-0.375,9.842,1.6064193078085187,4.869765078584286,8.849122807017544,28,0.1
1755690931.2363694,0.552,-1.007,10.365,1.6062772931533333,6.322188436126826,8.849974937343358,28,0.1
1755690931.2646315,0.552,-1.007,10.365,1.6062772931533333,6.322188436126826,8.849974937343358,28,0.1
1755690931.2941232,0.121,-1.709,9.752,1.6056873115585113,9.964311179493556,8.867167919799499,28,0.1
1755690931.3234906,0.121,-1.709,9.752,1.6056873115585113,9.964311179493556,8.867167919799499,28,0.1
1755690931.3522246,0.557,-2.076,9.785,1.6054417343834064,12.389122201050313,8.883258145363408,29,0.1
1755690931.381078,0.557,-2.076,9.785,1.6054417343834064,12.389122201050313,8.883258145363408,29,0.1
1755690931.4096336,0.74,-2.413,9.545,1.6055122928523466,14.81134256997507,8.873533834586466,29,0.1
1755690931.4387648,0.74,-2.413,9.545,1.6055122928523466,14.81134256997507,8.873533834586466,29,0.1
1755690931.4679286,0.707,-2.043,9.491,1.6058318226078347,12.831978966311517,8.850927318295739,29,0.1
1755690931.496677,0.707,-2.043,9.491,1.6058318226078347,12.831978966311517,8.850927318295739,29,0.1
1755690931.525132,0.738,-1.675,9.574,1.6057785432618035,10.823302649895451,8.847218045112783,29,0.1
1755690931.5534804,0.738,-1.675,9.574,1.6057785432618035,10.823302649895451,8.847218045112783,29,0.1
1755690931.5819125,0.261,-1.463,9.609,1.6052176402282652,8.791539486826712,8.850225563909774,29,0.1
1755690931.6108952,0.349,-1.42,9.681,1.6051397361289141,8.589268186334253,8.840902255639097,29,0.1
1755690931.6401308,0.349,-1.42,9.681,1.6051397361289141,8.589268186334253,8.840902255639097,29,0.1
1755690931.6696386,0.187,-1.326,9.861,1.6047346922466654,7.733443103225621,8.846065162907268,29,0.1
1755690931.6990404,0.187,-1.326,9.861,1.6047346922466654,7.733443103225621,8.846065162907268,29,0.1
1755690931.7279906,0.335,-1.603,9.702,1.6044555166784775,9.580823685008365,8.850025062656641,29,0.1
1755690931.7560132,0.335,-1.603,9.702,1.6044555166784775,9.580823685008365,8.850025062656641,29,0.1
1755690931.78429,0.607,-1.922,9.652,1.6042984650619099,11.795249187807574,8.863508771929824,30,0.1
1755690931.8134272,0.607,-1.922,9.652,1.6042984650619099,11.795249187807574,8.863508771929824,30,0.1
1755690931.8423629,0.607,-1.922,9.652,1.6042984650619099,11.795249187807574,8.863508771929824,30,0.1
1755690931.871612,0.607,-1.922,9.652,1.6042984650619099,11.795249187807574,8.863508771929824,30,0.1
1755690931.9007418,0.326,-2.182,9.434,1.603940614549055,13.16254018485162,8.870676691729322,30,0.1
1755690931.9297276,0.159,-3.34,9.792,1.6036664888623196,18.85406366716233,8.872932330827068,30,0.1
1755690931.9586012,0.655,-5.027,10.655,1.6035786634898832,25.444418780229437,8.88907268170426,30,0.1
1755690931.9873512,0.781,-4.227,9.484,1.6038079132177894,24.382019893025802,8.879498746867169,30,0.1
1755690932.0162141,0.781,-4.227,9.484,1.6038079132177894,24.382019893025802,8.879498746867169,30,0.1
1755690932.0446537,1.642,-4.83,13.659,1.605306397545341,20.48007176778493,8.921002506265664,30,0.1
1755690932.0740635,1.642,-4.83,13.659,1.605306397545341,20.48007176778493,8.921002506265664,30,0.1
1755690932.102414,1.437,-5.474,7.813,1.6062663827958301,35.91830577810082,8.926165413533834,30,0.1
1755690932.1313376,1.437,-5.474,7.813,1.6062663827958301,35.91830577810082,8.926165413533834,30,0.1
1755690932.1595485,0.619,-6.532,6.551,1.606053967026015,45.044849810015805,8.966065162907269,30,0.1
1755690932.1889591,0.619,-6.532,6.551,1.606053967026015,45.044849810015805,8.966065162907269,30,0.1
1755690932.2179468,-0.704,-6.193,5.575,1.6059564206416064,48.18898295593192,9.031428571428572,30,0.1
1755690932.2472305,-0.704,-6.193,5.575,1.6059564206416064,48.18898295593192,9.031428571428572,30,0.1
1755690932.2755823,-0.621,-6.205,5.953,1.6057496707145857,46.33002366347701,9.026265664160402,30,0.1
1755690932.3045003,-0.621,-6.205,5.953,1.6057496707145857,46.33002366347701,9.026265664160402,30,0.1
1755690932.33347,0.097,-6.279,5.96,1.6054567652229068,46.496445181621034,9.051979949874687,30,0.1
1755690932.3629074,0.097,-6.279,5.96,1.6054567652229068,46.496445181621034,9.051979949874687,30,0.1
1755690932.3920963,-0.273,-6.104,7.053,1.604983506924604,40.90279213090182,9.062406015037594,30,0.1
1755690932.421364,0.111,-5.578,8.091,1.6046496876265548,34.58799015143701,9.079749373433582,30,0.1
1755690932.4505565,0.111,-5.578,8.091,1.6046496876265548,34.58799015143701,9.079749373433582,30,0.1
1755690932.4792762,0.149,-4.321,9.362,1.604283052487933,24.788484580386303,9.076541353383458,30,0.1
1755690932.507599,0.149,-4.321,9.362,1.604283052487933,24.788484580386303,9.076541353383458,30,0.1
1755690932.535993,-0.464,-3.633,9.759,1.604170300342205,20.570897427838126,9.080852130325814,30,0.1
1755690932.564994,-0.464,-3.633,9.759,1.604170300342205,20.570897427838126,9.080852130325814,30,0.1
1755690932.5938773,-0.056,-2.785,9.522,1.603182731319172,16.306292996309725,9.071528822055138,30,0.1
1755690932.6233575,-0.056,-2.785,9.522,1.603182731319172,16.306292996309725,9.071528822055138,30,0.1
1755690932.653189,0.349,-2.338,9.6,1.6030561905310743,13.833308548775285,9.037694235588972,30,0.1
1755690932.6816688,0.349,-2.338,9.6,1.6030561905310743,13.833308548775285,9.037694235588972,30,0.1
1755690932.710317,0.006,-0.87,9.396,1.6028228902470791,5.2902062946591695,9.028471177944862,30,0.1
1755690932.7388124,0.006,-0.87,9.396,1.6028228902470791,5.2902062946591695,9.028471177944862,30,0.1
1755690932.76731,-0.025,-0.137,9.552,1.6019235593498211,0.8352783908230279,9.017142857142856,30,0.1
1755690932.7959235,-0.025,-0.137,9.552,1.6019235593498211,0.8352783908230279,9.017142857142856,30,0.1
1755690932.8243766,-0.368,0.12,9.933,1.6006463530399213,2.2315838358942335,9.016140350877192,30,0.1
1755690932.8532093,0.195,0.452,10.144,1.5984335206695335,2.7782768253249626,9.004411027568922,30,0.1
1755690932.8820527,0.195,0.452,10.144,1.5984335206695335,2.7782768253249626,9.004411027568922,30,0.1
1755690932.9105554,0.28,0.449,9.864,1.5978655129578334,3.0706709561793146,8.897243107769423,30,0.1
1755690932.9394932,0.28,0.449,9.864,1.5978655129578334,3.0706709561793146,8.897243107769423,30,0.1
1755690932.9685533,0.02,-0.086,9.954,1.5902324350546997,0.5082173896424462,8.893383458646616,30,0.1
1755690932.9976108,0.02,-0.086,9.954,1.5902324350546997,0.5082173896424462,8.893383458646616,30,0.1
1755690933.0264883,0.302,-0.394,9.964,1.5842046853232066,2.852236665917217,8.77578947368421,30,0.1
1755690933.0555902,0.302,-0.394,9.964,1.5842046853232066,2.852236665917217,8.77578947368421,30,0.1
1755690933.0838597,0.419,-0.541,9.626,1.561072094747709,4.066137016810782,8.682105263157895,30,0.1
1755690933.1128821,0.419,-0.541,9.626,1.561072094747709,4.066137016810782,8.682105263157895,30,0.1
1755690933.141244,0.464,-0.711,10.078,1.5518240114458857,4.815446200130816,8.56546365914787,30,0.1
1755690933.1695466,0.464,-0.711,10.078,1.5518240114458857,4.815446200130816,8.56546365914787,30,0.1
1755690933.1984892,0.543,-0.824,9.69,1.5247563288932433,5.814931728344531,8.54877192982456,30,0.1
1755690933.2269793,0.543,-0.824,9.69,1.5247563288932433,5.814931728344531,8.54877192982456,30,0.1
1755690933.2558346,0.347,-0.954,9.792,1.5008955068558236,5.918774620960188,8.47187969924812,30,0.1
1755690933.2844994,0.566,-1.0,9.678,1.4583998594349905,6.771021272074893,8.480501253132832,30,0.1
1755690933.314138,0.566,-1.0,9.678,1.4583998594349905,6.771021272074893,8.480501253132832,30,0.1
1755690933.3432474,0.528,-0.949,9.788,1.415180394861376,6.331167631147504,8.38080200501253,30,0.1
1755690933.37194,0.528,-0.949,9.788,1.415180394861376,6.331167631147504,8.38080200501253,30,0.1
1755690933.4009564,0.459,-0.944,9.681,1.392742994956356,6.188193175016502,8.380902255639098,30,0.1
1755690933.42947,0.459,-0.944,9.681,1.392742994956356,6.188193175016502,8.380902255639098,30,0.1
1755690933.4581213,0.719,-1.23,9.716,1.3695971278080281,8.34226692486601,8.370877192982457,30,0.1
1755690933.4864094,0.719,-1.23,9.716,1.3695971278080281,8.34226692486601,8.370877192982457,30,0.1
1755690933.5145295,0.388,-0.723,9.581,1.3411435763929231,4.894958067780809,8.383057644110275,30,0.1
1755690933.5435085,0.388,-0.723,9.581,1.3411435763929231,4.894958067780809,8.383057644110275,30,0.1
1755690933.572503,0.462,-1.012,9.909,1.313058910521535,6.405692528319121,8.381002506265665,30,0.1
1755690933.6015604,0.462,-1.012,9.909,1.313058910521535,6.405692528319121,8.381002506265665,30,0.1
1755690933.6303475,0.533,-0.863,9.678,1.2856421984751434,5.983180009400131,8.273684210526316,30,0.1
1755690933.6591153,0.533,-0.863,9.678,1.2856421984751434,5.983180009400131,8.273684210526316,30,0.1
1755690933.6878734,0.49,-0.879,9.624,1.2761749840832957,5.9695387578147825,8.250877192982456,30,0.1
1755690933.716639,0.731,-0.968,9.574,1.269777905777227,7.220787401951863,8.258195488721805,30,0.1
1755690933.7454596,0.731,-0.968,9.574,1.269777905777227,7.220787401951863,8.258195488721805,30,0.1
1755690933.773685,0.731,-0.968,9.574,1.269777905777227,7.220787401951863,8.258195488721805,30,0.1
1755690933.8020744,0.392,-0.992,9.738,1.2624634014497214,6.250923743231823,8.215187969924813,30,0.1
1755690933.8307195,0.626,-1.127,10.496,1.260461823102945,7.002371452783269,8.206365914786968,30,0.1
1755690933.8594098,0.626,-1.127,10.496,1.260461823102945,7.002371452783269,8.206365914786968,30,0.1
1755690933.8875875,0.969,-1.519,9.7,1.2600973325501488,10.522649618444225,8.195137844611528,31,0.1
1755690933.916425,0.969,-1.519,9.7,1.2600973325501488,10.522649618444225,8.195137844611528,31,0.1
1755690933.9450698,1.32,-0.73,11.461,1.2614958769254858,7.497741914778603,8.176040100250626,31,0.1
1755690933.973629,1.32,-0.73,11.461,1.2614958769254858,7.497741914778603,8.176040100250626,31,0.1
1755690934.0023487,0.466,-1.543,10.833,1.2616869253107128,8.462903336324512,8.218496240601505,31,0.1
1755690934.0309744,0.466,-1.543,10.833,1.2616869253107128,8.462903336324512,8.218496240601505,31,0.1
1755690934.059111,0.409,0.613,10.731,1.2618306532574013,3.9284483657582294,8.21919799498747,31,0.1
1755690934.0872629,0.409,0.613,10.731,1.2618306532574013,3.9284483657582294,8.21919799498747,31,0.1
1755690934.1156912,-0.025,-2.521,8.794,1.261820141700076,15.996899688728208,8.229122807017545,32,0.1
1755690934.1450815,-0.025,-2.521,8.794,1.261820141700076,15.996899688728208,8.229122807017545,32,0.1
1755690934.1734002,0.638,-1.673,9.139,1.262206571841551,11.085043130750616,8.255087719298245,32,0.1
1755690934.2021074,-1.412,1.017,11.705,1.2641047138192312,8.455947138181708,8.335989974937343,32,0.1
1755690934.2307854,-1.412,1.017,11.705,1.2641047138192312,8.455947138181708,8.335989974937343,32,0.1
1755690934.2591732,-2.411,-0.315,9.956,1.2698142492112774,13.724329475171293,8.382005012531327,33,0.1
1755690934.2881694,-2.411,-0.315,9.956,1.2698142492112774,13.724329475171293,8.382005012531327,33,0.1
1755690934.316482,-1.181,-0.567,9.472,1.2711289155707222,7.87453051065436,8.436240601503759,33,0.1
1755690934.345121,-1.181,-0.567,9.472,1.2711289155707222,7.87453051065436,8.436240601503759,33,0.1
1755690934.3735766,0.578,-1.298,9.702,1.2713078620066818,8.331841948539122,8.50937343358396,33,0.1
1755690934.4019718,0.578,-1.298,9.702,1.2713078620066818,8.331841948539122,8.50937343358396,33,0.1
1755690934.4305162,1.134,-0.42,9.536,1.2725636801354971,7.227215532792608,8.507568922305763,33,0.1
1755690934.4592488,1.134,-0.42,9.536,1.2725636801354971,7.227215532792608,8.507568922305763,33,0.1
1755690934.4873953,1.108,0.072,8.97,1.27352168022378,7.0563711237826245,8.475488721804512,33,0.1
1755690934.5155885,1.108,0.072,8.97,1.27352168022378,7.0563711237826245,8.475488721804512,33,0.1
1755690934.5443244,-0.02,-1.053,9.781,1.2734956733338358,6.145765476908144,8.522756892230577,33,0.1
1755690934.5734594,-0.02,-1.053,9.781,1.2734956733338358,6.145765476908144,8.522756892230577,33,0.1
1755690934.601444,-0.635,-0.567,10.843,1.2737718751801674,4.489174981071135,8.530526315789473,33,0.1
1755690934.6296577,-0.635,-0.567,10.843,1.2737718751801674,4.489174981071135,8.530526315789473,33,0.1
1755690934.6580749,-0.247,-0.01,9.709,1.2738196536401847,1.4585015646946464,8.532731829573935,33,0.1
1755690934.6868246,-0.247,-0.01,9.709,1.2738196536401847,1.4585015646946464,8.532731829573935,33,0.1
1755690934.7142847,0.431,-0.507,9.769,1.2739486606610173,3.8968247235315268,8.541604010025061,33,0.1
1755690934.7431338,-0.435,-0.666,9.826,1.2740638494596728,4.628353239084579,8.566466165413532,33,0.1
1755690934.7721238,-0.435,-0.666,9.826,1.2740638494596728,4.628353239084579,8.566466165413532,33,0.1
1755690934.800574,0.726,-0.687,9.538,1.2745706620270216,5.982401922877526,8.621303258145362,33,0.1
1755690934.8288753,0.726,-0.687,9.538,1.2745706620270216,5.982401922877526,8.621303258145362,33,0.1
1755690934.856875,1.227,-0.899,9.391,1.276045113818473,9.200504720695823,8.638897243107767,33,0.1
1755690934.8853211,1.227,-0.899,9.391,1.276045113818473,9.200504720695823,8.638897243107767,33,0.1
1755690934.9137683,0.614,0.139,10.082,1.2764014102154542,3.5730065191143625,8.653032581453633,33,0.1
1755690934.9423788,0.614,0.139,10.082,1.2764014102154542,3.5730065191143625,8.653032581453633,33,0.1
1755690934.9707127,-0.251,-0.995,10.054,1.2764174170309648,5.827764362157694,8.644160401002507,33,0.1
1755690934.998979,-0.251,-0.995,10.054,1.2764174170309648,5.827764362157694,8.644160401002507,33,0.1
1755690935.0270395,-0.368,-1.278,9.926,1.2758817705806444,7.63128444225257,8.610927318295738,33,0.1
1755690935.0551705,-0.368,-1.278,9.926,1.2758817705806444,7.63128444225257,8.610927318295738,33,0.1
1755690935.0835366,0.38,-0.714,9.811,1.273494092055397,4.712835698533129,8.561303258145363,33,0.1
1755690935.112629,0.38,-0.714,9.811,1.273494092055397,4.712835698533129,8.561303258145363,33,0.1
1755690935.1410892,0.788,-0.726,9.697,1.2630850020881415,6.305243067256054,8.543258145363408,33,0.1
1755690935.1699731,0.788,-0.726,9.697,1.2630850020881415,6.305243067256054,8.543258145363408,33,0.1
1755690935.1989968,0.802,-0.219,10.444,1.2571405221772147,4.551262112982413,8.503558897243108,33,0.1
1755690935.2280421,0.361,0.449,8.419,1.254151444204407,3.9147460496875848,8.41704260651629,33,0.1
1755690935.2564995,0.361,0.449,8.419,1.254151444204407,3.9147460496875848,8.41704260651629,33,0.1
1755690935.2852685,0.428,0.065,8.937,1.2387912990088363,2.773235564320631,8.39749373433584,33,0.1
1755690935.314149,0.428,0.065,8.937,1.2387912990088363,2.773235564320631,8.39749373433584,33,0.1
1755690935.3437319,0.476,-0.086,9.377,1.2267413429488712,2.9529486315199303,8.396190476190476,33,0.1
1755690935.3725438,0.476,-0.086,9.377,1.2267413429488712,2.9529486315199303,8.396190476190476,33,0.1
1755690935.4017909,0.955,-0.817,9.683,1.2158010918731732,7.395257747413823,8.383659147869674,33,0.1
1755690935.4308329,0.955,-0.817,9.683,1.2158010918731732,7.395257747413823,8.383659147869674,33,0.1
1755690935.4588275,0.054,-0.622,9.548,1.198095998866535,3.741220439994725,8.383909774436091,33,0.1
1755690935.487233,0.054,-0.622,9.548,1.198095998866535,3.741220439994725,8.383909774436091,33,0.1
1755690935.5157728,-1.56,-0.207,9.804,1.1896597076475273,9.11895804569929,8.414636591478695,33,0.1
1755690935.5423732,-1.56,-0.207,9.804,1.1896597076475273,9.11895804569929,8.414636591478695,33,0.1
1755690935.5685003,-0.268,-0.084,9.866,1.1706945716112296,1.6306009837274928,8.42421052631579,33,0.1
1755690935.5948577,-0.268,-0.084,9.866,1.1706945716112296,1.6306009837274928,8.42421052631579,33,0.1
1755690935.6232924,0.516,0.303,9.343,1.1604129081925967,3.6645820997443224,8.44080200501253,33,0.1
1755690935.651911,0.516,0.303,9.343,1.1604129081925967,3.6645820997443224,8.44080200501253,33,0.1
1755690935.6805866,1.525,-0.757,9.588,1.1489630194222964,10.069104461449834,8.43483709273183,34,0.1
1755690935.7097423,1.525,-0.757,9.588,1.1489630194222964,10.069104461449834,8.43483709273183,34,0.1
1755690935.738273,0.564,-0.103,9.762,1.1426867549770585,3.361153868682658,8.420751879699248,34,0.1
1755690935.766753,0.564,-0.103,9.762,1.1426867549770585,3.361153868682658,8.420751879699248,34,0.1
1755690935.795417,-0.07,-0.478,9.98,1.1410574306317802,2.7713333057041805,8.414736842105262,34,0.1
1755690935.8240483,0.116,-0.365,10.223,1.1408322137807996,2.145498160373535,8.423909774436089,34,0.1
1755690935.8530443,0.116,-0.365,10.223,1.1408322137807996,2.145498160373535,8.423909774436089,34,0.1
1755690935.8812041,0.18,-0.029,9.759,1.140624626027336,1.0702958336972355,8.407418546365914,34,0.1
1755690935.9100745,0.18,-0.029,9.759,1.140624626027336,1.0702958336972355,8.407418546365914,34,0.1
1755690935.938435,0.593,-0.509,9.809,1.1401918347365936,4.555186407248672,8.422606516290726,34,0.1
1755690935.9670546,0.593,-0.509,9.809,1.1401918347365936,4.555186407248672,8.422606516290726,34,0.1
1755690935.9951177,0.304,-0.175,9.593,1.1392527243768171,2.094110870557117,8.420802005012531,34,0.1
1755690936.0235085,0.304,-0.175,9.593,1.1392527243768171,2.094110870557117,8.420802005012531,34,0.1
1755690936.0517313,0.295,0.224,9.648,1.1388860039529858,2.19862284419307,8.395989974937342,34,0.1
1755690936.0796933,0.295,0.224,9.648,1.1388860039529858,2.19862284419307,8.395989974937342,34,0.1
1755690936.1080842,0.64,-0.125,9.688,1.1378760070851306,3.8507322086721216,8.383258145363408,34,0.1
1755690936.1363943,0.64,-0.125,9.688,1.1378760070851306,3.8507322086721216,8.383258145363408,34,0.1
1755690936.1647213,0.297,-0.327,9.697,1.1376357237710146,2.6082908058201704,8.385864661654136,34,0.1
1755690936.1935732,0.297,-0.327,9.697,1.1376357237710146,2.6082908058201704,8.385864661654136,34,0.1
1755690936.2218635,0.562,-0.767,9.583,1.137906730580323,5.666541769182466,8.365563909774435,34,0.1
1755690936.2500918,0.562,-0.767,9.583,1.137906730580323,5.666541769182466,8.365563909774435,34,0.1
1755690936.2786043,0.428,-0.308,9.564,1.1371514696820297,3.155756457851742,8.368571428571427,34,0.1
1755690936.3070185,0.428,-0.308,9.564,1.1371514696820297,3.155756457851742,8.368571428571427,34,0.1
1755690936.3357909,0.514,-0.49,9.595,1.1363269038881374,4.232815292749677,8.365263157894736,34,0.1
1755690936.3641748,0.726,-0.637,10.144,1.1361025305842778,5.4388978174591,8.36751879699248,34,0.1
1755690936.393224,0.726,-0.637,10.144,1.1361025305842778,5.4388978174591,8.36751879699248,34,0.1
1755690936.4218895,0.49,-0.06,9.835,1.1358458742276611,2.8735033097544154,8.364260651629072,34,0.1
1755690936.4509947,0.49,-0.06,9.835,1.1358458742276611,2.8735033097544154,8.364260651629072,34,0.1
1755690936.479749,0.586,-0.63,10.089,1.1360589410325506,4.874472800869896,8.358546365914787,34,0.1
1755690936.5088513,0.586,-0.63,10.089,1.1360589410325506,4.874472800869896,8.358546365914787,34,0.1
1755690936.5374577,0.698,-0.49,9.702,1.1362028450061195,5.023478234322825,8.358646616541352,34,0.05
1755690936.5656655,0.698,-0.49,9.702,1.1362028450061195,5.023478234322825,8.358646616541352,34,0.05
1755690936.5942662,0.555,-0.81,9.762,1.1359917891428617,5.743707079718367,8.355388471177944,34,0.05
1755690936.6230605,0.555,-0.81,9.762,1.1359917891428617,5.743707079718367,8.355388471177944,34,0.05
1755690936.6519551,0.633,-1.144,9.567,1.1361586883001864,7.781974430548853,8.358195488721805,34,0.05
1755690936.6804187,0.633,-1.144,9.567,1.1361586883001864,7.781974430548853,8.358195488721805,34,0.05
1755690936.709135,0.507,-1.394,9.524,1.1361428541341094,8.852531925641143,8.360651629072683,34,0.05
1755690936.7376025,0.507,-1.394,9.524,1.1361428541341094,8.852531925641143,8.360651629072683,34,0.05
1755690936.7659767,0.512,-1.584,9.619,1.1362143745790227,9.818521285957917,8.356090225563909,34,0.05
1755690936.7951527,0.512,-1.584,9.619,1.1362143745790227,9.818521285957917,8.356090225563909,34,0.05
1755690936.8234594,0.54,-1.711,9.6,1.1362143745790227,10.586158608948892,8.353533834586464,35,0.05
1755690936.8529506,0.54,-1.711,9.6,1.1362143745790227,10.586158608948892,8.353533834586464,35,0.05
1755690936.881546,0.395,-1.968,9.498,1.1361522191150268,11.932956665595256,8.358646616541352,35,0.05
1755690936.910408,0.419,-2.579,9.274,1.1361531399859792,15.734412185005128,8.35468671679198,35,0.05
1755690936.939135,0.419,-2.579,9.274,1.1361531399859792,15.734412185005128,8.35468671679198,35,0.05
1755690936.9666739,0.557,-1.884,9.795,1.136195835892739,11.341500466330299,8.337944862155387,35,0.05
1755690936.9954388,0.557,-1.884,9.795,1.136195835892739,11.341500466330299,8.337944862155387,35,0.05
1755690937.0237153,0.197,-1.85,9.524,1.1362358899013885,11.05321345499946,8.34736842105263,35,0.05
1755690937.0524242,0.197,-1.85,9.524,1.1362358899013885,11.05321345499946,8.34736842105263,35,0.05
1755690937.0808344,0.679,-1.038,9.738,1.1367263423973248,7.258839652531353,8.342606516290726,35,0.05
1755690937.1092682,0.679,-1.038,9.738,1.1367263423973248,7.258839652531353,8.342606516290726,35,0.05
1755690937.1373203,0.648,-0.793,9.861,1.1369614098552334,5.9290375674900435,8.332080200501252,35,0.05
1755690937.166386,0.648,-0.793,9.861,1.1369614098552334,5.9290375674900435,8.332080200501252,35,0.05
1755690937.194921,0.824,-0.904,9.797,1.1376577978460833,7.116748823447078,8.335989974937343,35,0.05
1755690937.2232635,0.824,-0.904,9.797,1.1376577978460833,7.116748823447078,8.335989974937343,35,0.05
1755690937.2521029,0.686,-0.394,9.31,1.1381602226839593,4.856907553643187,8.32892230576441,35,0.05
1755690937.2808988,0.676,0.149,9.455,1.1386324659432472,4.187308163134502,8.320200501253133,35,0.05
1755690937.310203,0.676,0.149,9.455,1.1386324659432472,4.187308163134502,8.320200501253133,35,0.05
1755690937.3385437,0.574,0.827,9.41,1.1389936709657347,6.106268574114821,8.315037593984963,35,0.05
1755690937.3669167,0.574,0.827,9.41,1.1389936709657347,6.106268574114821,8.315037593984963,35,0.05
1755690937.3959024,0.571,0.877,9.857,1.1393138823432285,6.06030951552647,8.304060150375939,35,0.05
1755690937.4248276,0.571,0.877,9.857,1.1393138823432285,6.06030951552647,8.304060150375939,35,0.05
1755690937.4532578,0.726,0.808,9.802,1.1398905166725442,6.323673565077257,8.287568922305764,35,0.05
1755690937.4818163,0.726,0.808,9.802,1.1398905166725442,6.323673565077257,8.287568922305764,35,0.05
1755690937.5103288,1.017,0.209,9.617,1.1407267464208946,6.161798927323373,8.271929824561404,35,0.05
1755690937.538914,1.017,0.209,9.617,1.1407267464208946,6.161798927323373,8.271929824561404,35,0.05
1755690937.5672662,0.745,0.286,9.733,1.14132741248951,4.687208303258502,8.244812030075188,35,0.05
1755690937.596236,0.745,0.286,9.733,1.14132741248951,4.687208303258502,8.244812030075188,35,0.05
1755690937.624944,0.731,-0.538,9.557,1.141035320443675,5.42516099508181,8.186365914786967,35,0.05
1755690937.653894,0.731,-0.538,9.557,1.141035320443675,5.42516099508181,8.186365914786967,35,0.05
1755690937.6824315,0.771,-0.928,9.994,1.1415974082398752,6.883534322458567,8.167669172932332,35,0.05
1755690937.70954,0.771,-0.928,9.994,1.1415974082398752,6.883534322458567,8.167669172932332,35,0.05
1755690937.735633,0.636,-2.009,9.562,1.1420222950976044,12.428150428284331,8.107869674185464,36,0.05
1755690937.7649002,0.636,-2.009,9.562,1.1420222950976044,12.428150428284331,8.107869674185464,36,0.05
1755690937.7932577,0.521,-2.201,9.819,1.1399972302597932,12.971898072744267,8.104310776942356,36,0.05
1755690937.821889,0.521,-2.201,9.819,1.1399972302597932,12.971898072744267,8.104310776942356,36,0.05
1755690937.8502755,0.636,-2.252,9.888,1.138671451736628,13.314603935071737,8.007919799498746,36,0.05
1755690937.878887,0.693,-3.153,9.044,1.127127382996261,19.644043121237917,7.883057644110276,36,0.05
1755690937.9079413,0.693,-3.153,9.044,1.127127382996261,19.644043121237917,7.883057644110276,36,0.05
1755690937.9362,0.55,-2.324,9.866,1.126822251954584,13.607453098436862,7.8742355889724305,36,0.05
1755690937.9648583,0.55,-2.324,9.866,1.126822251954584,13.607453098436862,7.8742355889724305,36,0.05
1755690937.994038,-0.001,-2.451,9.191,1.125530002931952,14.931806366815408,7.7607017543859635,36,0.05
1755690938.02303,-0.001,-2.451,9.191,1.125530002931952,14.931806366815408,7.7607017543859635,36,0.05
1755690938.0513806,0.066,-2.54,8.88,1.1085581243218599,15.96755130718983,7.718997493734336,36,0.05
1755690938.0800335,0.066,-2.54,8.88,1.1085581243218599,15.96755130718983,7.718997493734336,36,0.05
1755690938.1080449,0.848,-2.16,8.975,1.0992082764426403,14.496431723878253,7.702005012531327,36,0.05
1755690938.1367617,0.848,-2.16,8.975,1.0992082764426403,14.496431723878253,7.702005012531327,36,0.05
