timestamp,ax,ay,az,rms,tilt_now,jerk,tilt_crosses,freq
1757393082.7816184,-0.264,-0.22,9.816,0.0132,2.005064463948985,0.013233082706766918,0,0.1
1757393082.808863,-0.26,-0.227,9.825,0.01852673743539321,2.011964260334268,0.01343358395989975,0,0.05
1757393082.8345544,-0.257,-0.216,9.832,0.02254689557344869,1.9556163467631238,0.013583959899749374,0,0.05
1757393082.8598516,-0.253,-0.226,9.835,0.025853142942396774,1.9755384113630732,0.013784461152882205,0,0.05
1757393082.8853612,-0.246,-0.226,9.834,0.028629966818003824,1.945548208929923,0.014135338345864662,0,0.05
1757393082.9140663,-0.239,-0.209,9.833,0.031023821492524098,1.8493551082728543,0.01448621553884712,0,0.05
1757393082.9394135,-0.237,-0.205,9.822,0.03320993827154757,1.8273338281132234,0.014586466165413536,0,0.05
1757393082.9644704,-0.25,-0.213,9.808,0.035484503660048565,1.9179101183219602,0.015238095238095243,0,0.05
1757393082.9920416,-0.261,-0.216,9.808,0.03780810098378389,1.9783219667844352,0.015789473684210534,0,0.05
1757393083.0170147,-0.263,-0.203,9.796,0.04002967649132329,1.9424448012215445,0.01588972431077695,0,0.05
1757393083.0421593,-0.258,-0.204,9.799,0.04205692570790214,1.9224335878948489,0.01614035087719299,0,0.05
1757393083.0673387,-0.277,-0.193,9.8,0.04427874772393637,1.9730375814087684,0.017092731829573944,0,0.05
1757393083.094548,-0.295,-0.187,9.815,0.046670868858421734,2.038066450930195,0.01799498746867169,0,0.05
1757393083.1201866,-0.298,-0.179,9.814,0.048991631938525994,2.0286605573464653,0.018145363408521308,0,0.05
1757393083.145859,-0.298,-0.179,9.814,0.048991631938525994,2.0286605573464653,0.018145363408521308,0,0.05
1757393083.1726174,-0.302,-0.182,9.818,0.051265875589908735,2.056825579572451,0.01834586466165414,0,0.05
1757393083.1998086,-0.302,-0.182,9.818,0.051265875589908735,2.056825579572451,0.01834586466165414,0,0.05
1757393083.226684,-0.319,-0.17,9.821,0.05368978021933039,2.1078704530839634,0.019197994987468672,0,0.05
1757393083.253549,-0.319,-0.17,9.821,0.05368978021933039,2.1078704530839634,0.019197994987468672,0,0.05
1757393083.2802935,-0.318,-0.169,9.829,0.055994664924437214,2.098282487765221,0.01924812030075188,0,0.05
1757393083.3070235,-0.318,-0.169,9.829,0.055994664924437214,2.098282487765221,0.01924812030075188,0,0.05
1757393083.3337038,-0.333,-0.176,9.815,0.05841767711917344,2.197641815814023,0.02,0,0.05
1757393083.3606374,-0.333,-0.176,9.815,0.05841767711917344,2.197641815814023,0.02,0,0.05
1757393083.3874238,-0.34,-0.179,9.824,0.06084098125441437,2.239837210551787,0.02035087719298246,0,0.05
1757393083.4145725,-0.34,-0.179,9.824,0.06084098125441437,2.239837210551787,0.02035087719298246,0,0.05
1757393083.4417415,-0.34,-0.174,9.834,0.0631713938424664,2.2241605194500695,0.02035087719298246,0,0.05
1757393083.468492,-0.34,-0.174,9.834,0.0631713938424664,2.2241605194500695,0.02035087719298246,0,0.05
1757393083.4948578,-0.345,-0.178,9.825,0.06548425383250542,2.262735576796497,0.0206015037593985,0,0.05
1757393083.522857,-0.345,-0.178,9.825,0.06548425383250542,2.262735576796497,0.0206015037593985,0,0.05
1757393083.5503428,-0.364,-0.168,9.82,0.06796637036064233,2.33778736379474,0.021553884711779454,0,0.05
1757393083.5772376,-0.364,-0.168,9.82,0.06796637036064233,2.33778736379474,0.021553884711779454,0,0.05
1757393083.6038404,-0.379,-0.153,9.814,0.07055869896759719,2.3847833132007246,0.022305764411027575,0,0.05
1757393083.6316447,-0.379,-0.153,9.814,0.07055869896759719,2.3847833132007246,0.022305764411027575,0,0.05
1757393083.6584692,-0.38,-0.172,9.818,0.07307208769427626,2.4327258633203948,0.022355889724310782,0,0.05
1757393083.6860077,-0.38,-0.172,9.818,0.07307208769427626,2.4327258633203948,0.022355889724310782,0,0.05
1757393083.712819,-0.376,-0.173,9.834,0.07545177267632618,2.410023139464135,0.022556390977443615,0,0.05
1757393083.7397764,-0.376,-0.173,9.834,0.07545177267632618,2.410023139464135,0.022556390977443615,0,0.05
1757393083.767147,-0.387,-0.159,9.815,0.07789346891749013,2.44090310101978,0.023107769423558903,0,0.05
1757393083.7939246,-0.387,-0.159,9.815,0.07789346891749013,2.44090310101978,0.023107769423558903,0,0.05
1757393083.8207564,-0.378,-0.152,9.806,0.08015361813418032,2.379136622435283,0.023558897243107776,0,0.05
1757393083.8475783,-0.378,-0.152,9.806,0.08015361813418032,2.379136622435283,0.023558897243107776,0,0.05
1757393083.8744783,-0.374,-0.152,9.8,0.08230609029713415,2.3589472412044734,0.0237593984962406,0,0.05
1757393083.9012203,-0.374,-0.152,9.8,0.08230609029713415,2.3589472412044734,0.0237593984962406,0,0.05
1757393083.9284403,-0.362,-0.16,9.806,0.08427278623612726,2.311276828606172,0.0243609022556391,0,0.05
1757393083.9553847,-0.362,-0.16,9.806,0.08427278623612726,2.311276828606172,0.0243609022556391,0,0.05
1757393083.9823794,-0.357,-0.165,9.809,0.08614246920073745,2.2960111870455133,0.02461152882205514,0,0.05
1757393084.0094101,-0.357,-0.165,9.809,0.08614246920073745,2.2960111870455133,0.02461152882205514,0,0.05
1757393084.0362513,-0.355,-0.177,9.801,0.08795218871637021,2.317683706381612,0.024711779448621553,0,0.05
1757393084.0636888,-0.355,-0.177,9.801,0.08795218871637021,2.317683706381612,0.024711779448621553,0,0.05
1757393084.0906458,-0.359,-0.18,9.809,0.08976519370000825,2.34448262494358,0.024912280701754386,0,0.05
1757393084.1173697,-0.359,-0.18,9.809,0.08976519370000825,2.34448262494358,0.024912280701754386,0,0.05
1757393084.144586,-0.358,-0.175,9.821,0.0915325078865427,2.323480177580057,0.024962406015037592,0,0.05
1757393084.171325,-0.358,-0.175,9.821,0.0915325078865427,2.323480177580057,0.024962406015037592,0,0.05
1757393084.1983397,-0.365,-0.176,9.801,0.09333414434171453,2.367515707834997,0.02531328320802006,0,0.05
1757393084.2254124,-0.365,-0.176,9.801,0.09333414434171453,2.367515707834997,0.02531328320802006,0,0.05
1757393084.2522445,-0.372,-0.186,9.803,0.09516944099867351,2.429412150638289,0.025664160401002507,0,0.05
1757393084.2792504,-0.372,-0.186,9.803,0.09516944099867351,2.429412150638289,0.025664160401002507,0,0.05
1757393084.3060389,-0.37,-0.174,9.8,0.09695087673662368,2.3890856546155597,0.025764411027568934,0,0.05
1757393084.3329155,-0.37,-0.174,9.8,0.09695087673662368,2.3890856546155597,0.025764411027568934,0,0.05
1757393084.3599463,-0.356,-0.172,9.834,0.09857135740163063,2.3023209461916707,0.02646616541353384,0,0.05
1757393084.3870974,-0.356,-0.172,9.834,0.09857135740163063,2.3023209461916707,0.02646616541353384,0,0.05
1757393084.414147,-0.362,-0.169,9.836,0.10021937187989156,2.3258875186862484,0.026766917293233092,0,0.05
1757393084.440995,-0.362,-0.169,9.836,0.10021937187989156,2.3258875186862484,0.026766917293233092,0,0.05
1757393084.4678636,-0.352,-0.171,9.832,0.10175304663743488,2.2793078681237557,0.02726817042606517,0,0.05
1757393084.4946327,-0.352,-0.171,9.832,0.10175304663743488,2.2793078681237557,0.02726817042606517,0,0.05
1757393084.5200086,-0.347,-0.179,9.837,0.10322163048508777,2.2729807752809945,0.02751879699248121,0,0.05
1757393084.5470293,-0.347,-0.179,9.837,0.10322163048508777,2.2729807752809945,0.02751879699248121,0,0.05
1757393084.5740952,-0.339,-0.172,9.828,0.10460405106878032,2.215044641891798,0.02791979949874687,0,0.05
1757393084.6011295,-0.339,-0.172,9.828,0.10460405106878032,2.215044641891798,0.02791979949874687,0,0.05
1757393084.6283574,-0.328,-0.171,9.829,0.10588185633053475,2.155217600493736,0.028471177944862158,0,0.05
1757393084.655316,-0.328,-0.171,9.829,0.10588185633053475,2.155217600493736,0.028471177944862158,0,0.05
1757393084.6822197,-0.32,-0.158,9.832,0.10708392736540812,2.078803710371976,0.028872180451127823,0,0.05
1757393084.7094753,-0.32,-0.158,9.832,0.10708392736540812,2.078803710371976,0.028872180451127823,0,0.05
1757393084.7350528,-0.32,-0.158,9.832,0.10708392736540812,2.078803710371976,0.028872180451127823,0,0.05
1757393084.7616274,-0.327,-0.166,9.823,0.10832492787904362,2.1380298656624066,0.02922305764411028,0,0.05
1757393084.788756,-0.328,-0.179,9.831,0.10955934464937256,2.17669471695168,0.02927318295739349,0,0.05
1757393084.8156896,-0.328,-0.179,9.831,0.10955934464937256,2.17669471695168,0.02927318295739349,0,0.05
1757393084.8429174,-0.336,-0.185,9.82,0.1108399296282707,2.2368031505598243,0.02967418546365915,0,0.05
1757393084.8698223,-0.336,-0.185,9.82,0.1108399296282707,2.2368031505598243,0.02967418546365915,0,0.05
1757393084.8969643,-0.338,-0.184,9.818,0.11212091687102814,2.244682200375537,0.02977443609022557,0,0.05
1757393084.924107,-0.338,-0.184,9.818,0.11212091687102814,2.244682200375537,0.02977443609022557,0,0.05
1757393084.9512305,-0.333,-0.185,9.821,0.11335044111074292,2.22128313058101,0.03002506265664161,0,0.05
1757393084.9788442,-0.333,-0.185,9.821,0.11335044111074292,2.22128313058101,0.03002506265664161,0,0.05
1757393085.0062304,-0.332,-0.186,9.805,0.11455951510023077,2.2226515255603916,0.030075187969924817,0,0.05
1757393085.0337105,-0.332,-0.186,9.805,0.11455951510023077,2.2226515255603916,0.030075187969924817,0,0.05
1757393085.060842,-0.335,-0.183,9.804,0.11577756691172951,2.2297216603399255,0.03022556390977444,0,0.05
1757393085.0884473,-0.335,-0.183,9.804,0.11577756691172951,2.2297216603399255,0.03022556390977444,0,0.05
1757393085.1151862,-0.338,-0.184,9.805,0.1170045084601444,2.24765527122877,0.030375939849624067,0,0.05
1757393085.1426744,-0.338,-0.184,9.805,0.1170045084601444,2.24765527122877,0.030375939849624067,0,0.05
1757393085.1698813,-0.326,-0.192,9.8,0.11813443613104523,2.2108610161249747,0.030977443609022565,0,0.05
1757393085.19665,-0.326,-0.192,9.8,0.11813443613104523,2.2108610161249747,0.030977443609022565,0,0.05
1757393085.224039,-0.331,-0.195,9.81,0.11928808616119214,2.242613048635335,0.031228070175438605,0,0.05
1757393085.250728,-0.331,-0.195,9.81,0.11928808616119214,2.242613048635335,0.031228070175438605,0,0.05
1757393085.277774,-0.33,-0.186,9.803,0.12042382447007736,2.212929112986038,0.03127819548872181,0,0.05
1757393085.3048148,-0.33,-0.186,9.803,0.12042382447007736,2.212929112986038,0.03127819548872181,0,0.05
1757393085.331602,-0.32,-0.193,9.815,0.1214820871569138,2.1804268422551325,0.031779448621553893,0,0.05
1757393085.3585591,-0.32,-0.193,9.815,0.1214820871569138,2.1804268422551325,0.031779448621553893,0,0.05
1757393085.385336,-0.301,-0.19,9.813,0.12241078383867984,2.077401724088634,0.03273182957393485,0,0.05
1757393085.4122846,-0.301,-0.19,9.813,0.12241078383867984,2.077401724088634,0.03273182957393485,0,0.05
1757393085.4389994,-0.296,-0.203,9.808,0.12330223031235081,2.0957935378539494,0.032982456140350884,0,0.05
1757393085.4658065,-0.296,-0.203,9.808,0.12330223031235081,2.0957935378539494,0.032982456140350884,0,0.05
1757393085.4928048,-0.292,-0.213,9.802,0.1241636017518822,2.1117265127877944,0.03318295739348372,0,0.05
1757393085.5196252,-0.292,-0.213,9.802,0.1241636017518822,2.1117265127877944,0.03318295739348372,0,0.05
1757393085.5464103,-0.284,-0.222,9.801,0.12497295707472077,2.106337527752377,0.033583959899749376,0,0.05
1757393085.5732174,-0.284,-0.222,9.801,0.12497295707472077,2.106337527752377,0.033583959899749376,0,0.05
1757393085.5999427,-0.281,-0.229,9.799,0.12576025803090576,2.1185751411446567,0.033734335839599006,0,0.05
1757393085.6269994,-0.281,-0.229,9.799,0.12576025803090576,2.1185751411446567,0.033734335839599006,0,0.05
1757393085.6538126,-0.272,-0.224,9.79,0.12649348797467797,2.0613102557218395,0.034185463659147874,0,0.05
1757393085.6805425,-0.272,-0.224,9.79,0.12649348797467797,2.0613102557218395,0.034185463659147874,0,0.05
1757393085.708183,-0.27,-0.223,9.782,0.12721184103690977,2.0502468149394972,0.034285714285714294,0,0.05
1757393085.7349448,-0.27,-0.223,9.782,0.12721184103690977,2.0502468149394972,0.034285714285714294,0,0.05
1757393085.7616463,-0.266,-0.207,9.805,0.1279052090416962,1.9688053385733237,0.03448621553884712,0,0.05
1757393085.788489,-0.266,-0.207,9.805,0.1279052090416962,1.9688053385733237,0.03448621553884712,0,0.05
1757393085.8152373,-0.264,-0.199,9.8,0.1285845344510762,1.9321285196033087,0.03458646616541355,0,0.05
1757393085.8423805,-0.264,-0.199,9.8,0.1285845344510762,1.9321285196033087,0.03458646616541355,0,0.05
1757393085.8692887,-0.268,-0.208,9.796,0.12928086672048575,1.9834230192931535,0.034786967418546366,0,0.05
1757393085.8963714,-0.268,-0.208,9.796,0.12928086672048575,1.9834230192931535,0.034786967418546366,0,0.05
1757393085.923149,-0.276,-0.224,9.794,0.13001531640541433,2.078562142636509,0.03518796992481204,0,0.05
1757393085.9505386,-0.276,-0.224,9.794,0.13001531640541433,2.078562142636509,0.03518796992481204,0,0.05
1757393085.9778028,-0.275,-0.228,9.792,0.13074037249449766,2.0892928926000147,0.03523809523809524,0,0.05
1757393086.0051875,-0.275,-0.228,9.792,0.13074037249449766,2.0892928926000147,0.03523809523809524,0,0.05
1757393086.032371,-0.268,-0.222,9.801,0.131425282955754,2.033556509881358,0.035588972431077705,0,0.05
1757393086.0592895,-0.268,-0.222,9.801,0.131425282955754,2.033556509881358,0.035588972431077705,0,0.05
1757393086.0867748,-0.259,-0.233,9.808,0.1320617563869268,2.0343014262777173,0.03604010025062657,0,0.05
1757393086.1141803,-0.259,-0.233,9.808,0.1320617563869268,2.0343014262777173,0.03604010025062657,0,0.05
1757393086.1414385,-0.274,-0.22,9.819,0.13277046923167818,2.049563369715377,0.03679197994987469,0,0.05
1757393086.1682143,-0.274,-0.22,9.819,0.13277046923167818,2.049563369715377,0.03679197994987469,0,0.05
1757393086.194908,-0.274,-0.215,9.819,0.13347541908531324,2.0314471461246897,0.03679197994987469,0,0.05
1757393086.2216465,-0.274,-0.215,9.819,0.13347541908531324,2.0314471461246897,0.03679197994987469,0,0.05
1757393086.2485032,-0.282,-0.22,9.814,0.1342180967679098,2.0871825233739525,0.03719298245614035,0,0.05
1757393086.2750747,-0.282,-0.22,9.814,0.1342180967679098,2.0871825233739525,0.03719298245614035,0,0.05
1757393086.3018541,-0.277,-0.224,9.829,0.1349307970776131,2.0756905613458105,0.0374436090225564,0,0.05
1757393086.3288546,-0.277,-0.224,9.829,0.1349307970776131,2.0756905613458105,0.0374436090225564,0,0.05
1757393086.3554652,-0.299,-0.218,9.821,0.1357564823498311,2.1577588761909183,0.03854636591478697,0,0.05
1757393086.3823426,-0.299,-0.218,9.821,0.1357564823498311,2.1577588761909183,0.03854636591478697,0,0.05
1757393086.409207,-0.296,-0.215,9.831,0.13656083809057412,2.1311752772691133,0.0386967418546366,0,0.05
1757393086.4363823,-0.296,-0.215,9.831,0.13656083809057412,2.1311752772691133,0.0386967418546366,0,0.05
1757393086.4634068,-0.295,-0.208,9.824,0.1373551054748239,2.1042282019514196,0.0387468671679198,0,0.05
1757393086.4900908,-0.295,-0.208,9.824,0.1373551054748239,2.1042282019514196,0.0387468671679198,0,0.05
1757393086.5168307,-0.296,-0.216,9.812,0.13815015381822782,2.1387304122853092,0.03879699248120301,0,0.05
1757393086.543482,-0.296,-0.216,9.812,0.13815015381822782,2.1387304122853092,0.03879699248120301,0,0.05
1757393086.570472,-0.299,-0.221,9.816,0.13895671088508105,2.169204601665774,0.038947368421052626,0,0.05
1757393086.5975711,-0.299,-0.221,9.816,0.13895671088508105,2.169204601665774,0.038947368421052626,0,0.05
1757393086.6242723,-0.303,-0.214,9.796,0.13978014880518624,2.168620232971171,0.039147869674185466,0,0.05
1757393086.6511767,-0.303,-0.214,9.796,0.13978014880518624,2.168620232971171,0.039147869674185466,0,0.05
1757393086.677875,-0.304,-0.22,9.786,0.14060416067812503,2.1959916940321484,0.039197994987468676,0,0.05
1757393086.7044928,-0.304,-0.22,9.786,0.14060416067812503,2.1959916940321484,0.039197994987468676,0,0.05
1757393086.7312577,-0.31,-0.224,9.786,0.14145592953284072,2.2381180321420944,0.039498746867167915,0,0.05
1757393086.7580428,-0.31,-0.224,9.786,0.14145592953284072,2.2381180321420944,0.039498746867167915,0,0.05
1757393086.784934,-0.319,-0.225,9.788,0.14235231821083913,2.2838685497448763,0.039949874686716784,0,0.05
1757393086.8116896,-0.319,-0.225,9.788,0.14235231821083913,2.2838685497448763,0.039949874686716784,0,0.05
1757393086.8386145,-0.325,-0.222,9.795,0.1432768124994411,2.3010335020241275,0.04025062656641604,0,0.05
1757393086.8653944,-0.325,-0.222,9.795,0.1432768124994411,2.3010335020241275,0.04025062656641604,0,0.05
1757393086.8921773,-0.316,-0.226,9.794,0.14414536066068862,2.2715670834862665,0.04070175438596492,0,0.05
1757393086.9190145,-0.316,-0.226,9.794,0.14414536066068862,2.2715670834862665,0.04070175438596492,0,0.05
1757393086.946448,-0.324,-0.223,9.785,0.14505283520152235,2.3018670312729754,0.04110275689223057,0,0.05
1757393086.9736695,-0.324,-0.223,9.785,0.14505283520152235,2.3018670312729754,0.04110275689223057,0,0.05
1757393087.000792,-0.321,-0.223,9.788,0.1459380947525354,2.286741267276187,0.0412531328320802,0,0.05
1757393087.0278192,-0.321,-0.223,9.788,0.1459380947525354,2.286741267276187,0.0412531328320802,0,0.05
1757393087.055197,-0.334,-0.23,9.771,0.14689049492734377,2.376617561518526,0.04190476190476191,0,0.05
1757393087.0819252,-0.334,-0.23,9.771,0.14689049492734377,2.376617561518526,0.04190476190476191,0,0.05
1757393087.1088195,-0.283,-0.244,9.756,0.14757045774815503,2.1934119429742025,0.04446115288220552,0,0.05
1757393087.135578,-0.283,-0.244,9.756,0.14757045774815503,2.1934119429742025,0.04446115288220552,0,0.05
1757393087.1622126,-0.215,-0.233,9.81,0.14796148992220917,1.8510398631590512,0.04786967418546366,0,0.05
1757393087.189141,-0.215,-0.233,9.81,0.14796148992220917,1.8510398631590512,0.04786967418546366,0,0.05
1757393087.2157109,-0.123,-0.227,9.813,0.14808924673993046,1.5071163903601805,0.0524812030075188,0,0.05
1757393087.2427104,-0.123,-0.227,9.813,0.14808924673993046,1.5071163903601805,0.0524812030075188,0,0.05
1757393087.2693148,-0.045,-0.215,9.815,0.14810633848691285,1.2820604297348464,0.05639097744360902,0,0.05
1757393087.2965817,-0.045,-0.215,9.815,0.14810633848691285,1.2820604297348464,0.05639097744360902,0,0.05
1757393087.3233466,-0.055,-0.196,9.752,0.14813186692943553,1.1958617718068385,0.0568922305764411,0,0.05
1757393087.3502216,-0.055,-0.196,9.752,0.14813186692943553,1.1958617718068385,0.0568922305764411,0,0.05
1757393087.3769948,-0.192,-0.136,9.799,0.1484426151750231,1.3754837785262548,0.0637593984962406,0,0.05
1757393087.404272,-0.192,-0.136,9.799,0.1484426151750231,1.3754837785262548,0.0637593984962406,0,0.05
1757393087.4310343,-0.674,-0.189,9.845,0.15221990671393806,4.0669924465947815,0.08791979949874686,0,0.05
1757393087.4582646,-0.674,-0.189,9.845,0.15221990671393806,4.0669924465947815,0.08791979949874686,0,0.05
1757393087.4853067,-0.22,-0.314,9.946,0.15261684048623206,2.207557167224983,0.1106766917293233,0,0.05
1757393087.5122185,-0.22,-0.314,9.946,0.15261684048623206,2.207557167224983,0.1106766917293233,0,0.05
1757393087.5388732,-0.21,-0.824,9.5,0.15297761274121124,5.114876630599034,0.11117794486215539,0,0.05
1757393087.5657823,-0.21,-0.824,9.5,0.15297761274121124,5.114876630599034,0.11117794486215539,0,0.05
1757393087.5926335,-0.124,-0.61,9.609,0.15310320048908188,3.7064695582821345,0.11548872180451128,0,0.05
1757393087.6198573,-0.124,-0.61,9.609,0.15310320048908188,3.7064695582821345,0.11548872180451128,0,0.05
1757393087.6470468,0.337,-0.851,9.747,0.15402763550739848,5.364661780179899,0.1385964912280702,0,0.05
1757393087.6745648,0.337,-0.851,9.747,0.15402763550739848,5.364661780179899,0.1385964912280702,0,0.05
1757393087.7015572,0.422,-0.901,10.015,0.1554661458324609,5.673373919831127,0.14285714285714285,0,0.05
1757393087.7288146,0.422,-0.901,10.015,0.1554661458324609,5.673373919831127,0.14285714285714285,0,0.05
1757393087.7555325,0.375,-0.857,10.096,0.15659273610228544,5.293677227581916,0.14521303258145363,0,0.05
1757393087.7827296,0.375,-0.857,10.096,0.15659273610228544,5.293677227581916,0.14521303258145363,0,0.05
1757393087.8095803,0.132,-0.626,9.849,0.1567317612993614,3.7165643011149725,0.15739348370927317,0,0.05
1757393087.8364987,0.132,-0.626,9.849,0.1567317612993614,3.7165643011149725,0.15739348370927317,0,0.05
1757393087.8631964,0.087,-0.558,9.803,0.15679211555432246,3.2971112591561385,0.15964912280701754,0,0.05
1757393087.8901677,0.087,-0.558,9.803,0.15679211555432246,3.2971112591561385,0.15964912280701754,0,0.05
1757393087.9168372,0.253,-0.473,9.91,0.15730158931174218,3.0983036747104165,0.16796992481203007,0,0.05
1757393087.944133,0.253,-0.473,9.91,0.15730158931174218,3.0983036747104165,0.16796992481203007,0,0.05
1757393087.9709058,0.308,-0.379,9.794,0.15805363013863363,2.8546424223362004,0.1707268170426065,0,0.05
1757393087.9980233,0.308,-0.379,9.794,0.15805363013863363,2.8546424223362004,0.1707268170426065,0,0.05
1757393088.0249147,0.139,-0.456,9.695,0.15820636049160605,2.8150350485146123,0.17919799498746863,0,0.05
1757393088.0522172,0.139,-0.456,9.695,0.15820636049160605,2.8150350485146123,0.17919799498746863,0,0.05
1757393088.0791464,0.137,-0.567,9.702,0.15835458629291418,3.440670269194183,0.17929824561403507,0,0.05
1757393088.106109,0.137,-0.567,9.702,0.15835458629291418,3.440670269194183,0.17929824561403507,0,0.05
1757393088.133024,0.142,-0.518,9.76,0.15851367448898535,3.149915073094509,0.1795488721804511,0,0.05
1757393088.1598103,0.142,-0.518,9.76,0.15851367448898535,3.149915073094509,0.1795488721804511,0,0.05
1757393088.1865034,0.204,-0.682,9.657,0.15884150905855812,4.2158798259604495,0.18265664160401,0,0.05
1757393088.2134829,0.204,-0.682,9.657,0.15884150905855812,4.2158798259604495,0.18265664160401,0,0.05
1757393088.240174,0.25,-0.651,9.691,0.1593325923971615,4.115841997174757,0.18496240601503755,0,0.05
1757393088.2669897,0.25,-0.651,9.691,0.1593325923971615,4.115841997174757,0.18496240601503755,0,0.05
1757393088.2936616,0.375,-0.745,9.767,0.16043203389597727,4.880951390823249,0.19122807017543855,0,0.05
1757393088.320887,0.375,-0.745,9.767,0.16043203389597727,4.880951390823249,0.19122807017543855,0,0.05
1757393088.3477185,0.304,-0.833,9.885,0.16115048091768142,5.126023433442217,0.19478696741854637,0,0.05
1757393088.374563,0.304,-0.833,9.885,0.16115048091768142,5.126023433442217,0.19478696741854637,0,0.05
1757393088.4016142,0.154,-0.904,9.738,0.16133433453546087,5.379655267192077,0.20230576441102757,0,0.05
1757393088.4286633,0.154,-0.904,9.738,0.16133433453546087,5.379655267192077,0.20230576441102757,0,0.05
1757393088.4555485,0.111,-0.932,9.811,0.16142976801073586,5.46467165741792,0.2044611528822055,0,0.05
1757393088.482745,0.111,-0.932,9.811,0.16142976801073586,5.46467165741792,0.2044611528822055,0,0.05
1757393088.5094352,0.161,-1.109,9.826,0.1616303576064843,6.506299808350928,0.2069674185463659,0,0.05
1757393088.5366333,0.161,-1.109,9.826,0.1616303576064843,6.506299808350928,0.2069674185463659,0,0.05
1757393088.5634193,0.072,-1.009,9.304,0.16167044411394435,6.205038061767863,0.21142857142857147,0,0.05
1757393088.590473,0.072,-1.009,9.304,0.16167044411394435,6.205038061767863,0.21142857142857147,0,0.05
1757393088.6172335,0.165,-0.761,9.421,0.16188080491522153,4.724978296363676,0.21609022556390978,0,0.05
1757393088.6443543,0.165,-0.761,9.421,0.16188080491522153,4.724978296363676,0.21609022556390978,0,0.05
1757393088.671142,0.508,-1.258,10.012,0.16386138959498667,7.716982605469301,0.23328320802005012,0,0.05
1757393088.6985104,0.508,-1.258,10.012,0.16386138959498667,7.716982605469301,0.23328320802005012,0,0.05
1757393088.7261376,0.192,-0.154,9.498,0.1641423619910473,1.4844238248751729,0.24912280701754388,0,0.05
1757393088.7536478,0.192,-0.154,9.498,0.1641423619910473,1.4844238248751729,0.24912280701754388,0,0.05
1757393088.7810993,0.15,-0.318,9.041,0.16431361781666182,2.227095079450969,0.2512280701754386,0,0.05
1757393088.8085067,0.15,-0.318,9.041,0.16431361781666182,2.227095079450969,0.2512280701754386,0,0.05
1757393088.8354309,0.105,-0.503,9.25,0.1643974680461959,3.1795429748707504,0.253483709273183,0,0.05
1757393088.862966,0.105,-0.503,9.25,0.1643974680461959,3.1795429748707504,0.253483709273183,0,0.05
1757393088.88986,0.177,-0.521,9.355,0.16463550649844644,3.3661633141340137,0.25709273182957393,0,0.05
1757393088.9169505,0.177,-0.521,9.355,0.16463550649844644,3.3661633141340137,0.25709273182957393,0,0.05
1757393088.9438233,0.109,-0.453,9.393,0.1647256886463068,2.8397649747303686,0.26050125313283207,0,0.05
1757393088.9708323,0.109,-0.453,9.393,0.1647256886463068,2.8397649747303686,0.26050125313283207,0,0.05
1757393088.9975846,0.113,-0.459,9.517,0.1648225561020093,2.8435179877756567,0.26070175438596493,0,0.05
1757393089.0244825,0.113,-0.459,9.517,0.1648225561020093,2.8435179877756567,0.26070175438596493,0,0.05
1757393089.051426,0.307,-0.511,9.626,0.16553578918167516,3.5437483446497895,0.2704260651629073,0,0.05
1757393089.07924,0.307,-0.511,9.626,0.16553578918167516,3.5437483446497895,0.2704260651629073,0,0.05
1757393089.106054,0.279,-0.433,9.589,0.16612254512858873,3.074859504255495,0.2718295739348371,0,0.05
1757393089.1336982,0.279,-0.433,9.589,0.16612254512858873,3.074859504255495,0.2718295739348371,0,0.05
1757393089.1605685,0.342,-0.447,9.653,0.16700032934099263,3.3368984548638227,0.27498746867167917,0,0.05
1757393089.1874573,0.342,-0.447,9.653,0.16700032934099263,3.3368984548638227,0.27498746867167917,0,0.05
1757393089.214293,0.389,-0.435,9.717,0.1681291542237693,3.4368217705001984,0.27734335839598995,0,0.05
1757393089.2414894,0.389,-0.435,9.717,0.1681291542237693,3.4368217705001984,0.27734335839598995,0,0.05
1757393089.2682214,0.298,-0.471,9.666,0.16878809940277187,3.300102260782303,0.28190476190476194,0,0.1
1757393089.2950697,0.298,-0.471,9.666,0.16878809940277187,3.300102260782303,0.28190476190476194,0,0.1
1757393089.321936,0.288,-0.479,9.708,0.16940124704381607,3.295025664072811,0.28240601503759405,0,0.1
1757393089.3486912,0.288,-0.479,9.708,0.16940124704381607,3.295025664072811,0.28240601503759405,0,0.1
1757393089.375505,0.318,-0.43,9.765,0.17014579777355654,3.1348585888191836,0.2839097744360903,0,0.1
1757393089.402209,0.318,-0.43,9.765,0.17014579777355654,3.1348585888191836,0.2839097744360903,0,0.1
1757393089.4287715,0.348,-0.451,9.762,0.17103319122322427,3.339660322498981,0.2854135338345865,0,0.1
1757393089.4556868,0.348,-0.451,9.762,0.17103319122322427,3.339660322498981,0.2854135338345865,0,0.1
1757393089.482627,0.286,-0.459,9.792,0.17162995804928693,3.161229945959652,0.28852130325814535,0,0.1
1757393089.5095427,0.286,-0.459,9.792,0.17162995804928693,3.161229945959652,0.28852130325814535,0,0.1
1757393089.536445,0.324,-0.425,9.838,0.172392814525432,3.1093459365619234,0.29042606516290725,0,0.1
1757393089.5633433,0.324,-0.425,9.838,0.172392814525432,3.1093459365619234,0.29042606516290725,0,0.1
1757393089.5902371,0.3,-0.47,9.861,0.1730441634381235,3.2363078223581128,0.2916290726817043,0,0.1
1757393089.617109,0.3,-0.47,9.861,0.1730441634381235,3.2363078223581128,0.2916290726817043,0,0.1
1757393089.6443005,0.256,-0.471,9.867,0.1735169228058174,3.1098306633837787,0.2938345864661654,0,0.1
1757393089.671508,0.256,-0.471,9.867,0.1735169228058174,3.1098306633837787,0.2938345864661654,0,0.1
1757393089.6987114,0.346,-0.486,9.835,0.17437721324760297,3.471264945713715,0.29834586466165414,0,0.1
1757393089.7258775,0.346,-0.486,9.835,0.17437721324760297,3.471264945713715,0.29834586466165414,0,0.1
1757393089.7527986,0.361,-0.487,9.817,0.17530891306490953,3.533584645676899,0.29909774436090225,0,0.1
1757393089.779709,0.361,-0.487,9.817,0.17530891306490953,3.533584645676899,0.29909774436090225,0,0.1
1757393089.806886,0.36,-0.479,9.819,0.17623057339746698,3.4921199981481674,0.29914786967418544,0,0.1
1757393089.83403,0.36,-0.479,9.819,0.17623057339746698,3.4921199981481674,0.29914786967418544,0,0.1
1757393089.8612142,0.36,-0.479,9.819,0.17623057339746698,3.4921199981481674,0.29914786967418544,0,0.1
1757393089.8884609,0.359,-0.482,9.839,0.1771423650626806,3.4954997007041295,0.2991979949874687,0,0.1
1757393089.9151945,0.419,-0.514,9.856,0.1783769043346139,3.8492334268039192,0.3022055137844611,0,0.1
1757393089.942166,0.419,-0.514,9.856,0.1783769043346139,3.8492334268039192,0.3022055137844611,0,0.1
1757393089.9691107,0.47,-0.494,9.856,0.17991823142750155,3.957556128063253,0.3047619047619047,0,0.1
1757393089.996087,0.47,-0.494,9.856,0.17991823142750155,3.957556128063253,0.3047619047619047,0,0.1
1757393090.0229383,0.513,-0.501,9.836,0.18173742735055978,4.169556657868733,0.3069172932330827,0,0.1
1757393090.0500805,0.513,-0.501,9.836,0.18173742735055978,4.169556657868733,0.3069172932330827,0,0.1
1757393090.0768008,0.466,-0.465,9.828,0.18322495053894816,3.83216449300692,0.30927318295739337,0,0.1
1757393090.103609,0.466,-0.465,9.828,0.18322495053894816,3.83216449300692,0.30927318295739337,0,0.1
1757393090.1304972,0.405,-0.483,9.818,0.18434056797135023,3.6734227306434333,0.3123308270676691,0,0.1
1757393090.1573653,0.405,-0.483,9.818,0.18434056797135023,3.6734227306434333,0.3123308270676691,0,0.1
1757393090.184098,0.406,-0.485,9.816,0.18545494061900858,3.6868138153605345,0.31238095238095237,0,0.1
1757393090.2111475,0.406,-0.485,9.816,0.18545494061900858,3.6868138153605345,0.31238095238095237,0,0.1
1757393090.2380223,0.433,-0.484,9.804,0.1867143741119039,3.789747817941278,0.31373433583959903,0,0.1
1757393090.264825,0.433,-0.484,9.804,0.1867143741119039,3.789747817941278,0.31373433583959903,0,0.1
1757393090.2917035,0.433,-0.467,9.78,0.18796536915080927,3.725703165759919,0.3137343358395989,0,0.1
1757393090.3183873,0.433,-0.467,9.78,0.18796536915080927,3.725703165759919,0.3137343358395989,0,0.1
1757393090.3452861,0.412,-0.457,9.796,0.18909082473774344,3.594098587768254,0.31478696741854634,0,0.1
1757393090.3722017,0.412,-0.457,9.796,0.18909082473774344,3.594098587768254,0.31478696741854634,0,0.1
1757393090.399224,0.436,-0.477,9.812,0.1903433213958399,3.768179225140456,0.3159899749373434,0,0.1
1757393090.426383,0.436,-0.477,9.812,0.1903433213958399,3.768179225140456,0.3159899749373434,0,0.1
1757393090.4533544,0.436,-0.469,9.81,0.19158763008085883,3.734737141145952,0.3159899749373434,0,0.1
1757393090.480239,0.436,-0.469,9.81,0.19158763008085883,3.734737141145952,0.3159899749373434,0,0.1
1757393090.5069177,0.466,-0.465,9.808,0.19299924870320093,3.8399555028231718,0.3174937343358396,0,0.1
1757393090.5337353,0.466,-0.465,9.808,0.19299924870320093,3.8399555028231718,0.3174937343358396,0,0.1
1757393090.560483,0.466,-0.465,9.808,0.19299924870320093,3.8399555028231718,0.3174937343358396,0,0.1
1757393090.5874465,0.519,-0.493,9.803,0.19473600719949047,4.1764020762506995,0.32015037593984963,0,0.1
1757393090.6143506,0.492,-0.482,9.765,0.19628365316551455,4.034582323635807,0.32150375939849624,0,0.1
1757393090.6413326,0.492,-0.482,9.765,0.19628365316551455,4.034582323635807,0.32150375939849624,0,0.1
1757393090.6681426,0.562,-0.48,9.786,0.19828485191763895,4.319038370084584,0.3250125313283208,0,0.1
1757393090.6952753,0.562,-0.48,9.786,0.19828485191763895,4.319038370084584,0.3250125313283208,0,0.1
1757393090.7220268,0.594,-0.497,9.769,0.20049681418915366,4.532988278088473,0.3266165413533835,0,0.1
1757393090.7491786,0.594,-0.497,9.769,0.20049681418915366,4.532988278088473,0.3266165413533835,0,0.1
1757393090.7759962,0.594,-0.497,9.769,0.20049681418915366,4.532988278088473,0.3266165413533835,0,0.1
1757393090.80285,0.549,-0.48,9.77,0.20236717866294426,4.268723739507682,0.32887218045112787,0,0.1
1757393090.8296254,0.558,-0.455,9.794,0.2042813868173016,4.204456871537225,0.3293233082706767,0,0.1
1757393090.8564582,0.558,-0.455,9.794,0.2042813868173016,4.204456871537225,0.3293233082706767,0,0.1
1757393090.883363,0.534,-0.447,9.785,0.20601887049491366,4.070852395304249,0.3305263157894737,0,0.1
1757393090.9104447,0.534,-0.447,9.785,0.20601887049491366,4.070852395304249,0.3305263157894737,0,0.1
1757393090.937226,0.507,-0.441,9.748,0.20757263186653482,3.943337420453784,0.33187969924812033,0,0.1
1757393090.964138,0.507,-0.441,9.748,0.20757263186653482,3.943337420453784,0.33187969924812033,0,0.1
1757393090.990906,0.507,-0.441,9.748,0.20757263186653482,3.943337420453784,0.33187969924812033,0,0.1
1757393091.017837,0.538,-0.437,9.768,0.20930840284135752,4.058794328186261,0.3334335839598998,0,0.1
1757393091.0447128,0.538,-0.437,9.768,0.20930840284135752,4.058794328186261,0.3334335839598998,0,0.1
1757393091.0716991,0.548,-0.484,9.768,0.21109421474782294,4.2806145351976745,0.33393483709273186,0,0.1
1757393091.0989435,0.548,-0.484,9.768,0.21109421474782294,4.2806145351976745,0.33393483709273186,0,0.1
1757393091.1263366,0.533,-0.488,9.749,0.21276980518861224,4.23936847289968,0.33468671679198,0,0.1
1757393091.1535442,0.535,-0.491,9.759,0.21444475395775014,4.255485019735033,0.33478696741854647,0,0.1
1757393091.1807609,0.535,-0.491,9.759,0.21444475395775014,4.255485019735033,0.33478696741854647,0,0.1
1757393091.208658,0.58,-0.507,9.747,0.21639674789608093,4.518991480978268,0.33704260651629087,0,0.1
1757393091.2361634,0.58,-0.507,9.747,0.21639674789608093,4.518991480978268,0.33704260651629087,0,0.1
1757393091.2635596,0.555,-0.487,9.735,0.2181687764094578,4.337419986228269,0.338295739348371,0,0.1
1757393091.29074,0.555,-0.487,9.735,0.2181687764094578,4.337419986228269,0.338295739348371,0,0.1
1757393091.317973,0.593,-0.484,9.732,0.22017433433531713,4.497187383805214,0.34020050125313284,0,0.1
1757393091.3452175,0.593,-0.484,9.732,0.22017433433531713,4.497187383805214,0.34020050125313284,0,0.1
1757393091.372426,0.641,-0.489,9.732,0.2224948089282085,4.735734079211593,0.34260651629072686,0,0.1
1757393091.399711,0.641,-0.489,9.732,0.2224948089282085,4.735734079211593,0.34260651629072686,0,0.1
1757393091.4268749,0.659,-0.469,9.732,0.22492141405388683,4.751084226025765,0.34350877192982454,0,0.1
1757393091.4542696,0.659,-0.469,9.732,0.22492141405388683,4.751084226025765,0.34350877192982454,0,0.1
1757393091.481249,0.657,-0.471,9.738,0.22730764395417943,4.745453127051838,0.34360902255639103,0,0.1
1757393091.5084014,0.657,-0.471,9.738,0.22730764395417943,4.745453127051838,0.34360902255639103,0,0.1
1757393091.5351994,0.593,-0.446,9.73,0.22923326002131542,4.3608819863651584,0.34681704260651636,0,0.1
1757393091.562825,0.593,-0.446,9.73,0.22923326002131542,4.3608819863651584,0.34681704260651636,0,0.1
1757393091.590892,0.605,-0.437,9.736,0.2312205656943171,4.383477996591478,0.3474185463659148,0,0.1
1757393091.6179316,0.605,-0.437,9.736,0.2312205656943171,4.383477996591478,0.3474185463659148,0,0.1
1757393091.6455696,0.528,-0.44,9.734,0.23272281796162575,4.038859106706761,0.35127819548872186,0,0.1
1757393091.6729014,0.528,-0.44,9.734,0.23272281796162575,4.038859106706761,0.35127819548872186,0,0.1
1757393091.7006974,0.548,-0.428,9.74,0.23433025839613628,4.083385317390597,0.352280701754386,0,0.1
1757393091.7283795,0.548,-0.428,9.74,0.23433025839613628,4.083385317390597,0.352280701754386,0,0.1
1757393091.7558951,0.521,-0.422,9.744,0.2357737739868453,3.9362102402553694,0.35363408521303263,0,0.1
1757393091.783108,0.521,-0.422,9.744,0.2357737739868453,3.9362102402553694,0.35363408521303263,0,0.1
1757393091.8101816,0.529,-0.447,9.729,0.23725276605342244,4.071783453519459,0.3540350877192982,0,0.1
1757393091.8377948,0.529,-0.447,9.729,0.23725276605342244,4.071783453519459,0.3540350877192982,0,0.1
1757393091.864604,0.566,-0.445,9.732,0.2389346458762312,4.23111285536295,0.3558897243107769,0,0.1
1757393091.8916342,0.566,-0.445,9.732,0.2389346458762312,4.23111285536295,0.3558897243107769,0,0.1
1757393091.9184072,0.559,-0.445,9.754,0.2405638532697712,4.1895302071839255,0.35624060150375936,0,0.1
1757393091.9452164,0.559,-0.445,9.754,0.2405638532697712,4.1895302071839255,0.35624060150375936,0,0.1
1757393091.9720633,0.56,-0.452,9.737,0.24218787645132034,4.227008967926619,0.3562907268170426,0,0.1
1757393091.9991941,0.56,-0.452,9.737,0.24218787645132034,4.227008967926619,0.3562907268170426,0,0.1
1757393092.0260832,0.56,-0.443,9.728,0.2438010818269681,4.197993268758778,0.3562907268170426,0,0.1
1757393092.0530531,0.56,-0.443,9.728,0.2438010818269681,4.197993268758778,0.3562907268170426,0,0.1
1757393092.080054,0.578,-0.436,9.75,0.24550799885136126,4.246800887366327,0.3571929824561403,0,0.1
1757393092.1069753,0.578,-0.436,9.75,0.24550799885136126,4.246800887366327,0.3571929824561403,0,0.1
1757393092.1339703,0.583,-0.421,9.752,0.24723248168474948,4.217387170397995,0.35744360902255634,0,0.1
1757393092.1608872,0.583,-0.421,9.752,0.24723248168474948,4.217387170397995,0.35744360902255634,0,0.1
1757393092.1881914,0.567,-0.421,9.753,0.2488526120015621,4.141520883717046,0.35824561403508765,0,0.1
1757393092.215999,0.567,-0.421,9.753,0.2488526120015621,4.141520883717046,0.35824561403508765,0,0.1
1757393092.2438526,0.534,-0.426,9.785,0.25028086722720133,3.9934202536571988,0.3598997493734335,0,0.1
1757393092.2715986,0.534,-0.426,9.785,0.25028086722720133,3.9934202536571988,0.3598997493734335,0,0.1
1757393092.2990224,0.505,-0.426,9.762,0.2515513367088317,3.8718156930978624,0.36135338345864654,0,0.1
1757393092.3266826,0.505,-0.426,9.762,0.2515513367088317,3.8718156930978624,0.36135338345864654,0,0.1
1757393092.354248,0.509,-0.419,9.779,0.2528354751612202,3.8568909001614915,0.3615538847117794,0,0.1
1757393092.3818543,0.509,-0.419,9.779,0.2528354751612202,3.8568909001614915,0.3615538847117794,0,0.1
1757393092.4086745,0.501,-0.43,9.784,0.25407337522849577,3.860488089690329,0.3619548872180451,0,0.1
1757393092.435638,0.501,-0.43,9.784,0.25407337522849577,3.860488089690329,0.3619548872180451,0,0.1
1757393092.4626224,0.501,-0.456,9.79,0.2553052731535328,3.9584459872860607,0.3619548872180451,0,0.1
1757393092.4897032,0.501,-0.456,9.79,0.2553052731535328,3.9584459872860607,0.3619548872180451,0,0.1
1757393092.516517,0.519,-0.482,9.78,0.2566207025943153,4.142301924581594,0.36285714285714293,0,0.1
1757393092.5435748,0.519,-0.482,9.78,0.2566207025943153,4.142301924581594,0.36285714285714293,0,0.1
1757393092.570659,0.506,-0.476,9.78,0.25786483862675036,4.063067054733975,0.3635087719298246,0,0.1
1757393092.5977323,0.506,-0.476,9.78,0.25786483862675036,4.063067054733975,0.3635087719298246,0,0.1
1757393092.6246367,0.528,-0.483,9.779,0.25921272152423386,4.185243510423355,0.36461152882205516,0,0.1
1757393092.651516,0.528,-0.483,9.779,0.25921272152423386,4.185243510423355,0.36461152882205516,0,0.1
1757393092.6785564,0.518,-0.462,9.778,0.26050344527472186,4.060352169958779,0.3651127819548872,0,0.1
1757393092.7055905,0.518,-0.462,9.778,0.26050344527472186,4.060352169958779,0.3651127819548872,0,0.1
1757393092.732549,0.532,-0.476,9.785,0.26185798632083,4.172609923650571,0.3658145363408521,0,0.1
1757393092.7594137,0.532,-0.476,9.785,0.26185798632083,4.172609923650571,0.3658145363408521,0,0.1
1757393092.7863486,0.501,-0.464,9.792,0.2630534308842977,3.9891466381659915,0.36736842105263157,0,0.1
1757393092.8132646,0.501,-0.464,9.792,0.2630534308842977,3.9891466381659915,0.36736842105263157,0,0.1
1757393092.8404815,0.492,-0.467,9.767,0.2642011875446437,3.9729740414357484,0.36781954887218044,0,0.05
1757393092.8674438,0.492,-0.467,9.767,0.2642011875446437,3.9729740414357484,0.36781954887218044,0,0.05
1757393092.8944013,0.473,-0.44,9.771,0.265257591785796,3.782607689561199,0.3687719298245614,0,0.05
1757393092.9219553,0.473,-0.44,9.771,0.265257591785796,3.782607689561199,0.3687719298245614,0,0.05
1757393092.9489996,0.439,-0.422,9.768,0.26616422092384995,3.5672054312041257,0.37047619047619046,0,0.05
1757393092.976016,0.439,-0.422,9.768,0.26616422092384995,3.5672054312041257,0.37047619047619046,0,0.05
1757393093.0029573,0.421,-0.432,9.758,0.26699530894755436,3.5373633726938114,0.3713784461152883,0,0.05
1757393093.0298223,0.421,-0.432,9.758,0.26699530894755436,3.5373633726938114,0.3713784461152883,0,0.05
1757393093.0568898,0.432,-0.441,9.757,0.2678676072241659,3.6203463855828435,0.3719298245614035,0,0.05
1757393093.0837452,0.432,-0.441,9.757,0.2678676072241659,3.6203463855828435,0.3719298245614035,0,0.05
1757393093.1107252,0.449,-0.411,9.745,0.2688067288964322,3.5742416984242538,0.37278195488721816,0,0.05
1757393093.1377213,0.449,-0.411,9.745,0.2688067288964322,3.5742416984242538,0.37278195488721816,0,0.05
1757393093.164565,0.466,-0.414,9.768,0.26981465397565046,3.651346688583386,0.3736340852130327,0,0.05
1757393093.1917126,0.466,-0.414,9.768,0.26981465397565046,3.651346688583386,0.3736340852130327,0,0.05
1757393093.218793,0.494,-0.425,9.771,0.27094286759388964,3.8155937839951943,0.3750375939849624,0,0.05
1757393093.2458675,0.494,-0.425,9.771,0.27094286759388964,3.8155937839951943,0.3750375939849624,0,0.05
1757393093.2726603,0.474,-0.433,9.765,0.2719774393217202,3.761502672813513,0.3760401002506266,0,0.05
1757393093.2995718,0.474,-0.433,9.765,0.2719774393217202,3.761502672813513,0.3760401002506266,0,0.05
1757393093.3265347,0.562,-0.459,9.764,0.2734251954374359,4.250174411216605,0.3804511278195488,0,0.05
1757393093.3535476,0.562,-0.459,9.764,0.2734251954374359,4.250174411216605,0.3804511278195488,0,0.05
1757393093.3788111,0.434,-0.434,9.752,0.27428493852196845,3.6013158533916667,0.3868671679197995,0,0.05
1757393093.4060175,0.434,-0.434,9.752,0.27428493852196845,3.6013158533916667,0.3868671679197995,0,0.05
1757393093.432923,0.36,-0.398,9.768,0.2748749306502869,3.1447045071529405,0.39057644110275697,0,0.05
1757393093.4599118,0.36,-0.398,9.768,0.2748749306502869,3.1447045071529405,0.39057644110275697,0,0.05
1757393093.486911,0.36,-0.398,9.768,0.2748749306502869,3.1447045071529405,0.39057644110275697,0,0.05
1757393093.5144203,0.319,-0.415,9.771,0.27533730223128144,3.066428735199995,0.3926315789473684,0,0.05
1757393093.5417297,0.352,-0.42,9.748,0.27589923885360756,3.2175906672204455,0.3942857142857143,0,0.05
1757393093.568817,0.352,-0.42,9.748,0.27589923885360756,3.2175906672204455,0.3942857142857143,0,0.05
1757393093.5957854,0.211,-0.391,9.815,0.2761008737762342,2.5918610954265318,0.4013533834586466,0,0.05
1757393093.6232224,0.211,-0.391,9.815,0.2761008737762342,2.5918610954265318,0.4013533834586466,0,0.05
1757393093.6499727,0.224,-0.408,9.879,0.27632794375524167,2.697478122397589,0.4020050125313283,0,0.05
1757393093.6770775,0.224,-0.408,9.879,0.27632794375524167,2.697478122397589,0.4020050125313283,0,0.05
1757393093.7038383,0.224,-0.408,9.879,0.27632794375524167,2.697478122397589,0.4020050125313283,0,0.05
1757393093.730767,0.178,-0.426,9.821,0.27647123268072576,2.691535742057495,0.4043107769423558,0,0.05
1757393093.7576258,0.115,-0.427,9.742,0.2765310199597868,2.5990212992549,0.407468671679198,0,0.05
1757393093.7847161,0.115,-0.427,9.742,0.2765310199597868,2.5990212992549,0.407468671679198,0,0.05
1757393093.8116405,0.008,-0.447,9.797,0.27653130925810193,2.6127953874071848,0.41283208020050116,0,0.05
1757393093.8385046,0.008,-0.447,9.797,0.27653130925810193,2.6127953874071848,0.41283208020050116,0,0.05
1757393093.8654172,-0.015,-0.514,9.831,0.2765323263200887,2.9941759270786457,0.41398496240601496,0,0.05
1757393093.8925674,-0.015,-0.514,9.831,0.2765323263200887,2.9941759270786457,0.41398496240601496,0,0.05
1757393093.919372,-0.064,-0.492,9.798,0.27655084071468666,2.8988327065696438,0.4164411027568922,0,0.05
1757393093.946504,-0.064,-0.492,9.798,0.27655084071468666,2.8988327065696438,0.4164411027568922,0,0.05
1757393093.9734218,-0.111,-0.459,9.787,0.2766065255918595,2.7624264868369623,0.418796992481203,0,0.05
1757393094.0004582,-0.111,-0.459,9.787,0.2766065255918595,2.7624264868369623,0.418796992481203,0,0.05
1757393094.0275438,-0.199,-0.443,9.781,0.27678542682012724,2.8425021777632358,0.42320802005012537,0,0.05
1757393094.0546463,-0.199,-0.443,9.781,0.27678542682012724,2.8425021777632358,0.42320802005012537,0,0.05
1757393094.0815847,-0.212,-0.452,9.797,0.27698832556625924,2.917224528138689,0.42385964912280705,0,0.05
1757393094.1086073,-0.212,-0.452,9.797,0.27698832556625924,2.917224528138689,0.42385964912280705,0,0.05
1757393094.1359587,-0.287,-0.429,9.764,0.27735979340921063,3.025980152577602,0.4276190476190476,0,0.05
1757393094.1633346,-0.287,-0.429,9.764,0.27735979340921063,3.025980152577602,0.4276190476190476,0,0.05
1757393094.1904705,-0.345,-0.41,9.769,0.2778956953606874,3.139590800693967,0.4305263157894736,0,0.05
1757393094.2177818,-0.345,-0.41,9.769,0.2778956953606874,3.139590800693967,0.4305263157894736,0,0.05
1757393094.2449648,-0.42,-0.408,9.824,0.2786880289858178,3.4110000218083925,0.4342857142857144,0,0.05
1757393094.272026,-0.42,-0.408,9.824,0.2786880289858178,3.4110000218083925,0.4342857142857144,0,0.05
1757393094.2990947,-0.435,-0.427,9.791,0.2795354718099297,3.5624305349189314,0.43503759398496245,0,0.05
1757393094.3266637,-0.435,-0.427,9.791,0.2795354718099297,3.5624305349189314,0.43503759398496245,0,0.05
1757393094.3536122,-0.487,-0.431,9.774,0.28059401722061006,3.806666893692788,0.4376441102756892,0,0.05
1757393094.3807714,-0.487,-0.431,9.774,0.28059401722061006,3.806666893692788,0.4376441102756892,0,0.05
1757393094.407829,-0.514,-0.44,9.775,0.2817685087088336,3.9595853711011366,0.43899749373433583,0,0.05
1757393094.435434,-0.514,-0.44,9.775,0.2817685087088336,3.9595853711011366,0.43899749373433583,0,0.05
1757393094.462501,-0.527,-0.452,9.76,0.2829979063526796,4.068930264423824,0.43964912280701757,0,0.05
1757393094.4896455,-0.527,-0.452,9.76,0.2829979063526796,4.068930264423824,0.43964912280701757,0,0.05
1757393094.5164707,-0.543,-0.465,9.768,0.28429726959645607,4.185865329209222,0.4404511278195488,0,0.05
1757393094.5429857,-0.543,-0.465,9.768,0.28429726959645607,4.185865329209222,0.4404511278195488,0,0.05
1757393094.5698192,-0.52,-0.47,9.785,0.28548369042731675,4.097264522149341,0.4416040100250626,0,0.1
1757393094.59694,-0.52,-0.47,9.785,0.28548369042731675,4.097264522149341,0.4416040100250626,0,0.1
1757393094.6237943,-0.533,-0.503,9.764,0.2867248855610549,4.292477662402418,0.44225563909774446,0,0.1
1757393094.6507006,-0.533,-0.503,9.764,0.2867248855610549,4.292477662402418,0.44225563909774446,0,0.1
1757393094.677861,-0.534,-0.502,9.778,0.28796536250042293,4.286601145146423,0.44230576441102754,0,0.1
1757393094.705261,-0.534,-0.502,9.778,0.28796536250042293,4.286601145146423,0.44230576441102754,0,0.1
1757393094.7322528,-0.53,-0.496,9.78,0.2891821225456373,4.244816056323063,0.4425062656641604,0,0.1
1757393094.7592082,-0.53,-0.496,9.78,0.2891821225456373,4.244816056323063,0.4425062656641604,0,0.1
1757393094.7861094,-0.557,-0.49,9.77,0.2905200896667905,4.342247489427297,0.443859649122807,0,0.1
1757393094.813043,-0.557,-0.49,9.77,0.2905200896667905,4.342247489427297,0.443859649122807,0,0.1
1757393094.839777,-0.578,-0.495,9.765,0.29195399038204634,4.456087037301026,0.4449122807017543,0,0.1
1757393094.8668535,-0.578,-0.495,9.765,0.29195399038204634,4.456087037301026,0.4449122807017543,0,0.1
1757393094.8937972,-0.636,-0.498,9.778,0.2936807322586894,4.722563407230495,0.44781954887218045,0,0.1
1757393094.920996,-0.636,-0.498,9.778,0.2936807322586894,4.722563407230495,0.44781954887218045,0,0.1
1757393094.9481862,-0.642,-0.472,9.776,0.2954298266932437,4.659845205547123,0.44812030075187964,0,0.1
1757393094.9753735,-0.642,-0.472,9.776,0.2954298266932437,4.659845205547123,0.44812030075187964,0,0.1
1757393095.0024345,-0.654,-0.456,9.771,0.29723403657723996,4.664791731524141,0.4487218045112782,0,0.1
1757393095.0293312,-0.654,-0.456,9.771,0.29723403657723996,4.664791731524141,0.4487218045112782,0,0.1
1757393095.0565856,-0.641,-0.475,9.785,0.2989569785102867,4.661261205629123,0.44937343358395987,0,0.1
1757393095.0836387,-0.641,-0.475,9.785,0.2989569785102867,4.661261205629123,0.44937343358395987,0,0.1
1757393095.1107895,-0.622,-0.473,9.775,0.30057026632719347,4.570527502775752,0.4503258145363408,0,0.1
1757393095.1378703,-0.622,-0.473,9.775,0.30057026632719347,4.570527502775752,0.4503258145363408,0,0.1
1757393095.1649044,-0.63,-0.464,9.779,0.3022163711647667,4.574559035275467,0.4507268170426065,0,0.1
1757393095.1919594,-0.63,-0.464,9.779,0.3022163711647667,4.574559035275467,0.4507268170426065,0,0.1
1757393095.219094,-0.561,-0.488,9.788,0.3035153002733141,4.344150897717236,0.45418546365914786,0,0.1
1757393095.2460442,-0.561,-0.488,9.788,0.3035153002733141,4.344150897717236,0.45418546365914786,0,0.1
1757393095.272998,-0.575,-0.486,9.768,0.3048739083621293,4.407396828431137,0.4548872180451128,0,0.1
1757393095.2999482,-0.575,-0.486,9.768,0.3048739083621293,4.407396828431137,0.4548872180451128,0,0.1
1757393095.3270562,-0.562,-0.469,9.757,0.306166147704151,4.2903914123945555,0.45553884711779447,0,0.1
1757393095.3543713,-0.562,-0.469,9.757,0.306166147704151,4.2903914123945555,0.45553884711779447,0,0.1
1757393095.3813553,-0.565,-0.483,9.759,0.3074667014491163,4.355632436568006,0.45568922305764403,0,0.1
1757393095.4085388,-0.565,-0.483,9.759,0.3074667014491163,4.355632436568006,0.45568922305764403,0,0.1
1757393095.435791,-0.57,-0.465,9.765,0.3087847510807488,4.30803954445248,0.45593984962406015,0,0.1
1757393095.46283,-0.57,-0.465,9.765,0.3087847510807488,4.30803954445248,0.45593984962406015,0,0.1
1757393095.4899118,-0.585,-0.456,9.768,0.3101670275835264,4.342394128291839,0.45669172932330826,0,0.1
1757393095.5172675,-0.585,-0.456,9.768,0.3101670275835264,4.342394128291839,0.45669172932330826,0,0.1
1757393095.5440443,-0.622,-0.432,9.769,0.3117223043030447,4.432763428270634,0.4585463659147869,0,0.1
1757393095.5712013,-0.622,-0.432,9.769,0.3117223043030447,4.432763428270634,0.4585463659147869,0,0.1
1757393095.5982316,-0.61,-0.415,9.771,0.31321086347698734,4.31806755016718,0.4591478696741854,0,0.1
1757393095.625241,-0.61,-0.415,9.771,0.31321086347698734,4.31806755016718,0.4591478696741854,0,0.1
1757393095.6521242,-0.62,-0.416,9.752,0.3147412349851859,4.378121576454265,0.4596491228070174,0,0.1
1757393095.6789758,-0.62,-0.416,9.752,0.3147412349851859,4.378121576454265,0.4596491228070174,0,0.1
1757393095.7058768,-0.647,-0.411,9.765,0.31639937974022647,4.488237337362302,0.46100250626566414,0,0.1
1757393095.733451,-0.647,-0.411,9.765,0.31639937974022647,4.488237337362302,0.46100250626566414,0,0.1
1757393095.7603774,-0.716,-0.406,9.738,0.3184182901467816,4.831409853680504,0.4644611528822055,0,0.1
1757393095.7871962,-0.716,-0.406,9.738,0.3184182901467816,4.831409853680504,0.4644611528822055,0,0.1
1757393095.8141127,-0.614,-0.439,9.726,0.31989482255891544,4.4376020108411645,0.46957393483709275,0,0.1
1757393095.8413415,-0.614,-0.439,9.726,0.31989482255891544,4.4376020108411645,0.46957393483709275,0,0.1
1757393095.8683336,-0.537,-0.451,9.752,0.321019656719024,4.113041092868766,0.47343358395989976,0,0.1
1757393095.8953018,-0.537,-0.451,9.752,0.321019656719024,4.113041092868766,0.47343358395989976,0,0.1
1757393095.9221988,-0.542,-0.459,9.766,0.3221614967683134,4.159574425391186,0.4736842105263157,0,0.1
1757393095.949224,-0.542,-0.459,9.766,0.3221614967683134,4.159574425391186,0.4736842105263157,0,0.1
1757393095.9763854,-0.502,-0.471,9.762,0.3231378034213886,4.033515313238183,0.47568922305764416,0,0.1
1757393096.0034869,-0.502,-0.471,9.762,0.3231378034213886,4.033515313238183,0.47568922305764416,0,0.1
1757393096.0304387,-0.519,-0.456,9.746,0.32417810305447836,4.054755895017547,0.4765413533834587,0,0.1
1757393096.0574296,-0.519,-0.456,9.746,0.32417810305447836,4.054755895017547,0.4765413533834587,0,0.1
1757393096.0844505,-0.563,-0.463,9.765,0.32539801013528036,4.2690486721320315,0.47874686716791975,0,0.1
1757393096.1116393,-0.563,-0.463,9.765,0.32539801013528036,4.2690486721320315,0.47874686716791975,0,0.1
1757393096.1385944,-0.59,-0.461,9.76,0.3267324823154258,4.3868993866154495,0.48010025062656636,0,0.1
1757393096.1658728,-0.59,-0.461,9.76,0.3267324823154258,4.3868993866154495,0.48010025062656636,0,0.1
1757393096.1934378,-0.62,-0.439,9.734,0.3281998095672818,4.462572597184587,0.4816040100250626,0,0.1
1757393096.2207062,-0.62,-0.439,9.734,0.3281998095672818,4.462572597184587,0.4816040100250626,0,0.1
1757393096.247875,-0.653,-0.435,9.79,0.3298198561336173,4.582199053931714,0.4832581453634085,0,0.1
1757393096.2749908,-0.653,-0.435,9.79,0.3298198561336173,4.582199053931714,0.4832581453634085,0,0.1
1757393096.3021276,-0.671,-0.486,9.785,0.3315218544832301,4.839800800749068,0.4841604010025063,0,0.1
1757393096.3293042,-0.671,-0.486,9.785,0.3315218544832301,4.839800800749068,0.4841604010025063,0,0.1
1757393096.3564718,-0.645,-0.489,9.794,0.3330867792332803,4.724390160827548,0.48546365914786965,0,0.1
1757393096.3837972,-0.645,-0.489,9.794,0.3330867792332803,4.724390160827548,0.48546365914786965,0,0.1
1757393096.4109466,-0.63,-0.455,9.777,0.3345729404778575,4.544607782624242,0.4862155388471177,0,0.1
1757393096.4383326,-0.63,-0.455,9.777,0.3345729404778575,4.544607782624242,0.4862155388471177,0,0.1
1757393096.4653609,-0.654,-0.488,9.796,0.3361671347707863,4.761719735925881,0.48741854636591475,0,0.1
1757393096.4927125,-0.654,-0.488,9.796,0.3361671347707863,4.761719735925881,0.48741854636591475,0,0.1
1757393096.519849,-0.65,-0.513,9.782,0.3377345000144344,4.838581890805123,0.4876190476190476,0,0.1
1757393096.5468006,-0.65,-0.513,9.782,0.3377345000144344,4.838581890805123,0.4876190476190476,0,0.1
1757393096.5738692,-0.605,-0.474,9.77,0.33908650076344826,4.497989651970029,0.4898746867167919,0,0.1
1757393096.6011734,-0.605,-0.474,9.77,0.33908650076344826,4.497989651970029,0.4898746867167919,0,0.1
1757393096.6287932,-0.579,-0.496,9.775,0.34032008095321087,4.459761546544122,0.4911779448621554,0,0.1
1757393096.6561902,-0.579,-0.496,9.775,0.34032008095321087,4.459761546544122,0.4911779448621554,0,0.1
1757393096.6836216,-0.612,-0.476,9.778,0.3416930164636088,4.533623858176954,0.49283208020050123,0,0.1
1757393096.7110195,-0.612,-0.476,9.778,0.3416930164636088,4.533623858176954,0.49283208020050123,0,0.1
1757393096.738553,-0.641,-0.457,9.756,0.34319283209297946,4.613304930334832,0.4942857142857143,0,0.1
1757393096.7663376,-0.641,-0.457,9.756,0.34319283209297946,4.613304930334832,0.4942857142857143,0,0.1
1757393096.7933242,-0.635,-0.471,9.757,0.34465835620219626,4.6325642356073695,0.4945864661654135,0,0.1
1757393096.8202984,-0.635,-0.471,9.757,0.34465835620219626,4.6325642356073695,0.4945864661654135,0,0.1
1757393096.8476996,-0.643,-0.464,9.739,0.34615459696499773,4.654667284727061,0.49498746867167914,0,0.1
1757393096.8756378,-0.643,-0.464,9.739,0.34615459696499773,4.654667284727061,0.49498746867167914,0,0.1
1757393096.9032578,-0.652,-0.45,9.736,0.34768630257748145,4.651887115573297,0.49543859649122807,0,0.1
1757393096.9314697,-0.652,-0.45,9.736,0.34768630257748145,4.651887115573297,0.49543859649122807,0,0.1
1757393096.9590623,-0.687,-0.467,9.745,0.34937900266043465,4.872310518868889,0.49719298245614035,0,0.1
1757393096.986254,-0.687,-0.467,9.745,0.34937900266043465,4.872310518868889,0.49719298245614035,0,0.1
1757393097.0133576,-0.654,-0.45,9.732,0.35090593825126415,4.663422248062991,0.49884711779448626,0,0.1
1757393097.0409703,-0.666,-0.46,9.737,0.35248243573261917,4.751956365072942,0.49944862155388464,0,0.1
1757393097.068656,-0.666,-0.46,9.737,0.35248243573261917,4.751956365072942,0.49944862155388464,0,0.1
1757393097.0962281,-0.656,-0.464,9.728,0.3540052365431901,4.7217920508610645,0.49994987468671676,0,0.1
1757393097.1239884,-0.656,-0.464,9.728,0.3540052365431901,4.7217920508610645,0.49994987468671676,0,0.1
1757393097.1509414,-0.624,-0.473,9.733,0.3553774718521139,4.599483137924488,0.5015538847117794,0,0.1
1757393097.1780581,-0.624,-0.473,9.733,0.3553774718521139,4.599483137924488,0.5015538847117794,0,0.1
1757393097.2050722,-0.62,-0.505,9.737,0.3567269929511923,4.694818068522257,0.5017543859649123,0,0.1
1757393097.2323265,-0.62,-0.505,9.737,0.3567269929511923,4.694818068522257,0.5017543859649123,0,0.1
1757393097.2594876,-0.567,-0.511,9.76,0.3578517430445184,4.471762361187348,0.5044110275689223,0,0.1
1757393097.2873614,-0.567,-0.511,9.76,0.3578517430445184,4.471762361187348,0.5044110275689223,0,0.1
1757393097.3146954,-0.57,-0.505,9.762,0.3589848464768395,4.460577577723787,0.5045614035087719,0,0.1
1757393097.3416245,-0.57,-0.505,9.762,0.3589848464768395,4.460577577723787,0.5045614035087719,0,0.1
1757393097.3689504,-0.583,-0.508,9.744,0.3601664094554072,4.537427017648705,0.5052130325814537,0,0.1
1757393097.3968,-0.583,-0.508,9.744,0.3601664094554072,4.537427017648705,0.5052130325814537,0,0.1
1757393097.4239874,-0.576,-0.522,9.746,0.3613160424060908,4.560261336459321,0.5055639097744361,0,0.1
1757393097.4510376,-0.576,-0.522,9.746,0.3613160424060908,4.560261336459321,0.5055639097744361,0,0.1
1757393097.4782832,-0.617,-0.509,9.761,0.3626306729994031,4.684583673808083,0.5076190476190476,0,0.1
1757393097.5053155,-0.617,-0.509,9.761,0.3626306729994031,4.684583673808083,0.5076190476190476,0,0.1
1757393097.5323358,-0.655,-0.492,9.757,0.36410653317401487,4.799312145284677,0.5095238095238096,0,0.1
1757393097.5595872,-0.655,-0.492,9.757,0.36410653317401487,4.799312145284677,0.5095238095238096,0,0.1
1757393097.5867538,-0.63,-0.517,9.748,0.36546657507903507,4.779078183297677,0.5107769423558898,0,0.1
1757393097.6139643,-0.63,-0.517,9.748,0.36546657507903507,4.779078183297677,0.5107769423558898,0,0.1
1757393097.640925,-0.607,-0.574,9.757,0.3667246105731111,4.893873723151552,0.5119298245614036,0,0.1
1757393097.668054,-0.607,-0.574,9.757,0.3667246105731111,4.893873723151552,0.5119298245614036,0,0.1
1757393097.6940525,-0.635,-0.585,9.727,0.3680964581465027,5.072432502938546,0.5133333333333334,0,0.1
1757393097.7209983,-0.635,-0.585,9.727,0.3680964581465027,5.072432502938546,0.5133333333333334,0,0.1
1757393097.747984,-0.626,-0.404,9.744,0.36942481305402325,4.372437607754938,0.5137844611528822,0,0.1
1757393097.7750006,-0.626,-0.404,9.744,0.36942481305402325,4.372437607754938,0.5137844611528822,0,0.1
1757393097.8020067,-0.688,-0.37,9.825,0.3710229810941635,4.545997163833306,0.5168922305764412,0,0.1
1757393097.829435,-0.688,-0.37,9.825,0.3710229810941635,4.545997163833306,0.5168922305764412,0,0.1
1757393097.8565264,-0.62,-0.477,9.81,0.3723157967371248,4.5591739697365625,0.5203007518796993,0,0.1
1757393097.8836913,-0.62,-0.477,9.81,0.3723157967371248,4.5591739697365625,0.5203007518796993,0,0.1
1757393097.9107409,-0.708,-0.514,9.798,0.37399493646304893,5.1026542020961525,0.5247117794486216,0,0.1
1757393097.9378574,-0.708,-0.514,9.798,0.37399493646304893,5.1026542020961525,0.5247117794486216,0,0.1
1757393097.9650855,-0.626,-0.504,9.802,0.37530241472711046,4.687243650056091,0.5288220551378446,0,0.1
1757393097.992506,-0.626,-0.504,9.802,0.37530241472711046,4.687243650056091,0.5288220551378446,0,0.1
1757393098.0196772,-0.758,-0.419,9.718,0.3772112306122393,5.092917505491666,0.5354385964912282,0,0.1
1757393098.046887,-0.758,-0.419,9.718,0.3772112306122393,5.092917505491666,0.5354385964912282,0,0.1
1757393098.0742674,-0.689,-0.422,9.677,0.378781091133124,4.772736867477485,0.5388972431077694,0,0.1
1757393098.101328,-0.689,-0.422,9.677,0.378781091133124,4.772736867477485,0.5388972431077694,0,0.1
1757393098.1284719,-0.904,-0.338,9.627,0.38146841940061044,5.724863318535027,0.5496741854636592,0,0.1
1757393098.155797,-0.904,-0.338,9.627,0.38146841940061044,5.724863318535027,0.5496741854636592,0,0.1
1757393098.1828036,-0.959,-0.405,9.665,0.3844702296667455,6.147597595320359,0.5524310776942356,0,0.1
1757393098.2100089,-0.959,-0.405,9.665,0.3844702296667455,6.147597595320359,0.5524310776942356,0,0.1
1757393098.2369585,-1.059,-0.458,9.633,0.38809929141909033,6.830084077932346,0.5574436090225564,0,0.1
1757393098.2645726,-1.059,-0.458,9.633,0.38809929141909033,6.830084077932346,0.5574436090225564,0,0.1
1757393098.2919245,-1.023,-0.415,9.609,0.39145546681583077,6.553940210005772,0.5592481203007519,0,0.1
1757393098.3194127,-1.023,-0.415,9.609,0.39145546681583077,6.553940210005772,0.5592481203007519,0,0.1
1757393098.3466353,-1.09,-0.415,9.597,0.39523111276821316,6.9292129143072945,0.5626065162907268,0,0.1
1757393098.374346,-1.09,-0.415,9.597,0.39523111276821316,6.9292129143072945,0.5626065162907268,0,0.1
1757393098.4014432,-0.907,-0.409,9.831,0.3978244022178629,5.778976853218264,0.5717794486215538,0,0.1
1757393098.4288876,-0.907,-0.409,9.831,0.3978244022178629,5.778976853218264,0.5717794486215538,0,0.1
1757393098.4559736,-0.63,-0.27,9.85,0.39906954907634834,3.9805528815335025,0.5856641604010026,0,0.1
1757393098.4841108,-0.63,-0.27,9.85,0.39906954907634834,3.9805528815335025,0.5856641604010026,0,0.1
1757393098.5112987,-0.767,-0.281,9.925,0.40090800378640484,4.704989705502657,0.592531328320802,0,0.1
1757393098.538785,-0.767,-0.281,9.925,0.40090800378640484,4.704989705502657,0.592531328320802,0,0.1
1757393098.5658634,-0.893,-0.354,9.875,0.40338672511623386,5.556058346765868,0.5988471177944862,0,0.1
1757393098.59415,-0.893,-0.354,9.875,0.40338672511623386,5.556058346765868,0.5988471177944862,0,0.1
1757393098.6214604,-0.679,-0.181,10.289,0.40481286108521797,3.90707718385252,0.6095739348370927,0,0.1
1757393098.6489837,-0.679,-0.181,10.289,0.40481286108521797,3.90707718385252,0.6095739348370927,0,0.1
1757393098.6773674,-0.923,0.087,10.59,0.40743499481512385,5.003147466403986,0.6218045112781955,0,0.1
1757393098.706099,-0.923,0.087,10.59,0.40743499481512385,5.003147466403986,0.6218045112781955,0,0.1
1757393098.7336304,-1.347,0.004,9.937,0.41296403899129036,7.719652269622892,0.6430576441102757,0,0.1
1757393098.7615047,-1.347,0.004,9.937,0.41296403899129036,7.719652269622892,0.6430576441102757,0,0.1
1757393098.786795,-1.772,-0.193,8.87,0.4223615246444685,11.362589163250593,0.664360902255639,1,0.1
1757393098.812411,-1.772,-0.193,8.87,0.4223615246444685,11.362589163250593,0.664360902255639,1,0.1
1757393098.8395405,-1.573,-0.041,8.954,0.429622019919836,9.967120352918693,0.6743358395989975,1,0.1
1757393098.8671882,-1.573,-0.041,8.954,0.429622019919836,9.967120352918693,0.6743358395989975,1,0.1
1757393098.8950593,-1.214,0.096,9.384,0.4338888913074406,7.394121581726323,0.6923308270676692,1,0.1
1757393098.923266,-1.214,0.096,9.384,0.4338888913074406,7.394121581726323,0.6923308270676692,1,0.1
1757393098.950725,-1.157,0.039,9.558,0.43772844607130573,6.905978994144467,0.695187969924812,1,0.1
1757393098.9787545,-1.157,0.039,9.558,0.43772844607130573,6.905978994144467,0.695187969924812,1,0.1
1757393099.0066218,-1.228,-0.238,9.661,0.44201374695816875,7.377288562951481,0.6987468671679198,1,0.1
1757393099.034503,-1.228,-0.238,9.661,0.44201374695816875,7.377288562951481,0.6987468671679198,1,0.1
1757393099.0622597,-1.34,-0.212,9.705,0.4470628059903888,7.957835600282153,0.7043609022556392,1,0.1
1757393099.0902784,-1.34,-0.212,9.705,0.4470628059903888,7.957835600282153,0.7043609022556392,1,0.1
1757393099.1180687,-1.322,-0.055,9.64,0.4519229608019491,7.8153305921952345,0.7052631578947368,1,0.1
1757393099.1466422,-1.325,-0.037,9.616,0.4567531335415226,7.848469917872814,0.7054135338345866,1,0.1
1757393099.1743782,-1.325,-0.037,9.616,0.4567531335415226,7.848469917872814,0.7054135338345866,1,0.1
1757393099.2016935,-1.336,-0.079,9.61,0.4616120286560999,7.928285915036655,0.7059649122807019,1,0.1
1757393099.2289853,-1.336,-0.079,9.61,0.4616120286560999,7.928285915036655,0.7059649122807019,1,0.1
1757393099.2567668,-1.27,-0.161,9.643,0.46595913447425835,7.562130221213929,0.7092731829573935,1,0.1
1757393099.2845492,-1.27,-0.161,9.643,0.46595913447425835,7.562130221213929,0.7092731829573935,1,0.1
1757393099.3121877,-1.244,-0.266,9.621,0.47009228349335835,7.532149063417184,0.7105764411027569,1,0.1
1757393099.3398006,-1.244,-0.266,9.621,0.47009228349335835,7.532149063417184,0.7105764411027569,1,0.1
1757393099.367406,-1.293,-0.343,9.57,0.4745169939001131,7.957403442787024,0.7130325814536341,1,0.1
1757393099.3949761,-1.293,-0.343,9.57,0.4745169939001131,7.957403442787024,0.7130325814536341,1,0.1
1757393099.422435,-1.306,-0.427,9.56,0.47898900561495145,8.178952065896173,0.7136842105263158,1,0.1
1757393099.4503133,-1.306,-0.427,9.56,0.47898900561495145,8.178952065896173,0.7136842105263158,1,0.1
1757393099.4774702,-1.339,-0.46,9.562,0.48364529357784514,8.422386662904417,0.7153383458646617,1,0.1
1757393099.5054607,-1.339,-0.46,9.562,0.48364529357784514,8.422386662904417,0.7153383458646617,1,0.1
1757393099.5328166,-1.294,-0.449,9.581,0.4879537478081299,8.13579118806104,0.7175939849624061,1,0.1
1757393099.5606184,-1.294,-0.449,9.581,0.4879537478081299,8.13579118806104,0.7175939849624061,1,0.1
1757393099.586591,-1.224,-0.366,9.502,0.49177667695814936,7.657528363390063,0.7211027568922307,1,0.1
1757393099.6137073,-1.224,-0.366,9.502,0.49177667695814936,7.657528363390063,0.7211027568922307,1,0.1
1757393099.6406238,-1.222,-0.233,9.4,0.49555777665172407,7.538829474725564,0.721203007518797,1,0.1
1757393099.66792,-1.222,-0.233,9.4,0.49555777665172407,7.538829474725564,0.721203007518797,1,0.1
1757393099.6952453,-1.172,-0.261,9.146,0.499010490871685,7.479163719380471,0.7237092731829574,1,0.1
1757393099.722884,-1.172,-0.261,9.146,0.499010490871685,7.479163719380471,0.7237092731829574,1,0.1
1757393099.7503908,-1.336,-0.434,9.102,0.5034617264499854,8.773322962154273,0.7319298245614037,1,0.1
1757393099.778714,-1.336,-0.434,9.102,0.5034617264499854,8.773322962154273,0.7319298245614037,1,0.1
1757393099.8061194,-1.363,-0.767,9.165,0.5080532772259224,9.684119772190627,0.7332832080200502,1,0.1
1757393099.83451,-1.363,-0.767,9.165,0.5080532772259224,9.684119772190627,0.7332832080200502,1,0.1
1757393099.8600023,-0.832,1.225,8.979,0.5097535605564713,9.36498779952473,0.7598997493734337,1,0.1
1757393099.887957,-0.832,1.225,8.979,0.5097535605564713,9.36498779952473,0.7598997493734337,1,0.1
1757393099.9154532,-1.514,0.899,9.519,0.5153437517812747,10.479934400394177,0.7940852130325815,2,0.1
1757393099.943867,-1.514,0.899,9.519,0.5153437517812747,10.479934400394177,0.7940852130325815,2,0.1
1757393099.9708834,-1.319,0.588,9.598,0.5195465186102203,8.556614009473124,0.803859649122807,2,0.1
1757393099.9990995,-1.319,0.588,9.598,0.5195465186102203,8.556614009473124,0.803859649122807,2,0.1
1757393100.0262265,-1.393,0.551,9.7,0.5241943413467948,8.779093742639539,0.8075689223057645,2,0.1
1757393100.0535984,-1.393,0.551,9.7,0.5241943413467948,8.779093742639539,0.8075689223057645,2,0.1
1757393100.0806577,-1.411,0.313,9.744,0.5289206084092394,8.437001828116154,0.8084711779448622,2,0.1
1757393100.1079936,-1.411,0.313,9.744,0.5289206084092394,8.437001828116154,0.8084711779448622,2,0.1
1757393100.1354213,-1.434,-0.002,9.802,0.5337582786243226,8.323145865759303,0.809624060150376,2,0.05
1757393100.1629188,-1.434,-0.002,9.802,0.5337582786243226,8.323145865759303,0.809624060150376,2,0.05
1757393100.190536,-0.632,-0.496,9.974,0.5346928651104295,4.605158573123978,0.8498245614035089,2,0.05
1757393100.2187164,-0.632,-0.496,9.974,0.5346928651104295,4.605158573123978,0.8498245614035089,2,0.05
1757393100.245958,-0.565,-0.483,9.924,0.5354386262682214,4.283485925675468,0.8531829573934837,2,0.05
1757393100.2748415,-0.565,-0.483,9.924,0.5354386262682214,4.283485925675468,0.8531829573934837,2,0.05
1757393100.3023546,-0.469,-0.515,9.778,0.5359518868331372,4.074681861094707,0.8579949874686718,2,0.05
1757393100.3303435,-0.469,-0.515,9.778,0.5359518868331372,4.074681861094707,0.8579949874686718,2,0.05
1757393100.3575585,-0.451,-0.447,9.803,0.5364260689973969,3.706149861034717,0.8588972431077694,2,0.05
1757393100.3848126,-0.451,-0.447,9.803,0.5364260689973969,3.706149861034717,0.8588972431077694,2,0.05
1757393100.4118924,-0.433,-0.392,9.814,0.5368627850764104,3.405957263824649,0.8597994987468671,2,0.05
1757393100.439017,-0.433,-0.392,9.814,0.5368627850764104,3.405957263824649,0.8597994987468671,2,0.05
1757393100.4661489,-0.427,-0.352,9.797,0.5372871415732933,3.2329149273793543,0.8601002506265665,2,0.05
1757393100.4932199,-0.427,-0.352,9.797,0.5372871415732933,3.2329149273793543,0.8601002506265665,2,0.05
1757393100.5202804,-0.412,-0.323,9.792,0.5376819064279549,3.0603498027602236,0.8608521303258145,2,0.05
1757393100.5475888,-0.412,-0.323,9.792,0.5376819064279549,3.0603498027602236,0.8608521303258145,2,0.05
1757393100.5751767,-0.403,-0.294,9.797,0.5380593415228473,2.914869267542412,0.8613032581453633,2,0.05
1757393100.6022387,-0.403,-0.294,9.797,0.5380593415228473,2.914869267542412,0.8613032581453633,2,0.05
1757393100.629437,-0.394,-0.216,9.836,0.5384198594034213,2.6155428790521076,0.8617543859649124,2,0.05
1757393100.6568246,-0.394,-0.216,9.836,0.5384198594034213,2.6155428790521076,0.8617543859649124,2,0.05
1757393100.6839945,-0.394,-0.208,9.814,0.5387801360480915,2.5993140047075878,0.8617543859649124,2,0.05
1757393100.7110567,-0.394,-0.208,9.814,0.5387801360480915,2.5993140047075878,0.8617543859649124,2,0.05
1757393100.7380743,-0.392,-0.208,9.825,0.5391365272359127,2.5861204033918126,0.8618546365914789,2,0.05
1757393100.7651248,-0.392,-0.208,9.825,0.5391365272359127,2.5861204033918126,0.8618546365914789,2,0.05
1757393100.7923265,-0.384,-0.209,9.822,0.5394782989147943,2.548640101117745,0.8622556390977444,2,0.05
1757393100.8197477,-0.384,-0.209,9.822,0.5394782989147943,2.548640101117745,0.8622556390977444,2,0.05
1757393100.846837,-0.377,-0.209,9.825,0.5398075189361482,2.512153612877956,0.8626065162907268,2,0.05
1757393100.8741865,-0.377,-0.209,9.825,0.5398075189361482,2.512153612877956,0.8626065162907268,2,0.05
1757393100.9013286,-0.367,-0.202,9.811,0.5401193201506497,2.4449812303890406,0.8631077694235589,2,0.05
1757393100.9284272,-0.369,-0.192,9.825,0.5404343461513156,2.424293638692533,0.8632080200501252,2,0.05
1757393100.9556482,-0.369,-0.192,9.825,0.5404343461513156,2.424293638692533,0.8632080200501252,2,0.05
1757393100.9828541,-0.379,-0.195,9.824,0.5407664791756235,2.484270210225529,0.8637092731829573,2,0.05
1757393101.0100212,-0.379,-0.195,9.824,0.5407664791756235,2.484270210225529,0.8637092731829573,2,0.05
1757393101.0371408,-0.374,-0.197,9.818,0.5410897106765199,2.465332585581293,0.8639598997493734,2,0.05
1757393101.0646133,-0.374,-0.197,9.818,0.5410897106765199,2.465332585581293,0.8639598997493734,2,0.05
1757393101.0916066,-0.374,-0.197,9.818,0.5410897106765199,2.465332585581293,0.8639598997493734,2,0.05
1757393101.1187248,-0.372,-0.192,9.833,0.5414093045007631,2.4378161297512086,0.8640601503759396,2,0.05
1757393101.1457646,-0.369,-0.187,9.832,0.5417235803433335,2.40928268548847,0.8642105263157893,2,0.05
1757393101.1728218,-0.369,-0.187,9.832,0.5417235803433335,2.40928268548847,0.8642105263157893,2,0.05
1757393101.1998415,-0.364,-0.191,9.816,0.542029221998224,2.3979945801102827,0.8644611528822054,2,0.05
1757393101.227015,-0.364,-0.191,9.816,0.542029221998224,2.3979945801102827,0.8644611528822054,2,0.05
1757393101.254182,-0.373,-0.2,9.795,0.542349979256937,2.474178777515375,0.8649122807017543,2,0.05
1757393101.28125,-0.373,-0.2,9.795,0.542349979256937,2.474178777515375,0.8649122807017543,2,0.05
1757393101.308412,-0.371,-0.199,9.793,0.542667119420368,2.461630516034219,0.8650125313283208,2,0.05
1757393101.3357198,-0.371,-0.199,9.793,0.542667119420368,2.461630516034219,0.8650125313283208,2,0.05
1757393101.3628623,-0.37,-0.197,9.789,0.5429823684982783,2.451975178898233,0.865062656641604,2,0.05
1757393101.3898332,-0.37,-0.197,9.789,0.5429823684982783,2.451975178898233,0.865062656641604,2,0.05
1757393101.416847,-0.37,-0.196,9.799,0.5432974346525116,2.446738443328916,0.8650626566416041,2,0.05
1757393101.443829,-0.37,-0.196,9.799,0.5432974346525116,2.446738443328916,0.8650626566416041,2,0.05
1757393101.47092,-0.377,-0.188,9.803,0.5436243418023148,2.4607225014457126,0.8654135338345865,2,0.05
1757393101.4979832,-0.377,-0.188,9.803,0.5436243418023148,2.4607225014457126,0.8654135338345865,2,0.05
1757393101.525057,-0.389,-0.184,9.794,0.5439721752994356,2.5158041061132455,0.8660150375939849,2,0.05
1757393101.5520923,-0.389,-0.184,9.794,0.5439721752994356,2.5158041061132455,0.8660150375939849,2,0.05
1757393101.579323,-0.396,-0.18,9.795,0.544332405337033,2.542797996350759,0.8663659147869673,2,0.05
1757393101.6053312,-0.396,-0.18,9.795,0.544332405337033,2.542797996350759,0.8663659147869673,2,0.05
1757393101.6323986,-0.396,-0.185,9.801,0.5446923971380544,2.5534530540484193,0.8663659147869675,2,0.05
1757393101.659543,-0.396,-0.185,9.801,0.5446923971380544,2.5534530540484193,0.8663659147869675,2,0.05
1757393101.6865928,-0.397,-0.181,9.798,0.5450539698048258,2.5497501696742964,0.8664160401002508,2,0.05
1757393101.7139285,-0.397,-0.181,9.798,0.5450539698048258,2.5497501696742964,0.8664160401002508,2,0.05
1757393101.7410138,-0.397,-0.181,9.798,0.5450539698048258,2.5497501696742964,0.8664160401002508,2,0.05
1757393101.7679257,-0.388,-0.173,9.808,0.5453991107436827,2.480144154399546,0.8668671679197997,2,0.05
1757393101.7949789,-0.394,-0.169,9.807,0.5457547800981682,2.5031060281816773,0.8671679197994987,2,0.05
1757393101.821918,-0.394,-0.169,9.807,0.5457547800981682,2.5031060281816773,0.8671679197994987,2,0.05
1757393101.8490324,-0.383,-0.172,9.809,0.5460906541042431,2.4509011202539113,0.8677192982456141,2,0.05
1757393101.8760543,-0.383,-0.172,9.809,0.5460906541042431,2.4509011202539113,0.8677192982456141,2,0.05
1757393101.9030921,-0.381,-0.172,9.808,0.5464228262069585,2.4405167383483737,0.8678195488721804,2,0.05
1757393101.9300587,-0.381,-0.172,9.808,0.5464228262069585,2.4405167383483737,0.8678195488721804,2,0.05
1757393101.9583297,-0.391,-0.161,9.803,0.5467724458126981,2.4699074640662304,0.8683208020050126,2,0.05
1757393101.9858644,-0.391,-0.161,9.803,0.5467724458126981,2.4699074640662304,0.8683208020050126,2,0.05
1757393102.0131948,-0.397,-0.167,9.791,0.5471326438808052,2.5187514272412557,0.8686215538847119,2,0.05
1757393102.040382,-0.397,-0.167,9.791,0.5471326438808052,2.5187514272412557,0.8686215538847119,2,0.05
1757393102.0662968,-0.402,-0.164,9.799,0.5475017260246766,2.536954055079562,0.8688721804511278,2,0.05
1757393102.0933173,-0.402,-0.164,9.799,0.5475017260246766,2.536954055079562,0.8688721804511278,2,0.05
1757393102.1203709,-0.414,-0.155,9.8,0.5478929001182621,2.5827826842542385,0.8694736842105262,2,0.05
1757393102.1476054,-0.414,-0.155,9.8,0.5478929001182621,2.5827826842542385,0.8694736842105262,2,0.05
1757393102.1746473,-0.416,-0.155,9.795,0.5482875796514088,2.5950364589778934,0.8695739348370927,2,0.05
1757393102.20171,-0.416,-0.155,9.795,0.5482875796514088,2.5950364589778934,0.8695739348370927,2,0.05
1757393102.2287545,-0.423,-0.159,9.808,0.5486953549101724,2.637993058856879,0.8699248120300751,2,0.05
1757393102.256125,-0.423,-0.159,9.808,0.5486953549101724,2.637993058856879,0.8699248120300751,2,0.05
1757393102.2832677,-0.423,-0.167,9.813,0.5491028273465727,2.653410052830889,0.8699248120300751,2,0.05
1757393102.3104103,-0.423,-0.167,9.813,0.5491028273465727,2.653410052830889,0.8699248120300751,2,0.05
1757393102.3375585,-0.43,-0.173,9.804,0.5495235800218222,2.7067150658661667,0.8702756892230575,2,0.05
1757393102.364827,-0.43,-0.173,9.804,0.5495235800218222,2.7067150658661667,0.8702756892230575,2,0.05
1757393102.3920588,-0.423,-0.176,9.81,0.5499304387829428,2.673927093154131,0.8706265664160401,2,0.05
1757393102.419191,-0.423,-0.176,9.81,0.5499304387829428,2.673927093154131,0.8706265664160401,2,0.05
1757393102.4461386,-0.41,-0.166,9.8,0.5503123999148121,2.5843330528897996,0.8712781954887218,2,0.05
1757393102.473187,-0.41,-0.166,9.8,0.5503123999148121,2.5843330528897996,0.8712781954887218,2,0.05
1757393102.5001192,-0.409,-0.167,9.792,0.5506922370980002,2.5832316319862487,0.871328320802005,2,0.05
1757393102.5256226,-0.409,-0.167,9.792,0.5506922370980002,2.5832316319862487,0.871328320802005,2,0.05
1757393102.5528831,-0.399,-0.18,9.805,0.5510534842463115,2.5561459994924265,0.8718295739348368,2,0.05
1757393102.5800252,-0.399,-0.18,9.805,0.5510534842463115,2.5561459994924265,0.8718295739348368,2,0.05
1757393102.6073017,-0.4,-0.186,9.798,0.5514163059794297,2.5778578606264406,0.8718796992481203,2,0.05
1757393102.6342788,-0.4,-0.186,9.798,0.5514163059794297,2.5778578606264406,0.8718796992481203,2,0.05
1757393102.661376,-0.4,-0.186,9.798,0.5514163059794297,2.5778578606264406,0.8718796992481203,2,0.05
1757393102.6884375,-0.392,-0.177,9.795,0.5517645353771842,2.514299105069499,0.8722807017543859,2,0.05
1757393102.7155693,-0.399,-0.184,9.796,0.5521250809372817,2.568181103402791,0.8726315789473683,2,0.05
1757393102.7427123,-0.399,-0.184,9.796,0.5521250809372817,2.568181103402791,0.8726315789473683,2,0.05
1757393102.7698805,-0.393,-0.184,9.786,0.5524746396894612,2.5390072267185406,0.8729323308270677,2,0.05
1757393102.7969706,-0.393,-0.184,9.786,0.5524746396894612,2.5390072267185406,0.8729323308270677,2,0.05
1757393102.823962,-0.392,-0.182,9.798,0.5528222024304017,2.5256795783254593,0.8729824561403509,2,0.05
1757393102.8509188,-0.392,-0.182,9.798,0.5528222024304017,2.5256795783254593,0.8729824561403509,2,0.05
1757393102.8779464,-0.381,-0.184,9.801,0.5531503321882759,2.471893833131761,0.8735338345864662,2,0.05
1757393102.9049985,-0.381,-0.184,9.801,0.5531503321882759,2.471893833131761,0.8735338345864662,2,0.05
1757393102.9320326,-0.383,-0.194,9.796,0.5534817183069374,2.509505438668212,0.8736340852130327,2,0.05
1757393102.9592533,-0.383,-0.194,9.796,0.5534817183069374,2.509505438668212,0.8736340852130327,2,0.05
1757393102.9863808,-0.371,-0.199,9.811,0.5537924836976392,2.457119763513055,0.8742355889724313,2,0.05
1757393103.0133815,-0.371,-0.199,9.811,0.5537924836976392,2.457119763513055,0.8742355889724313,2,0.05
1757393103.04015,-0.371,-0.194,9.821,0.5541030747974605,2.4409929257645877,0.874235588972431,2,0.05
1757393103.0673127,-0.371,-0.194,9.821,0.5541030747974605,2.4409929257645877,0.874235588972431,2,0.05
1757393103.0947812,-0.379,-0.197,9.8,0.5544270195436005,2.4957076067433155,0.8746365914786968,2,0.05
1757393103.1223311,-0.379,-0.197,9.8,0.5544270195436005,2.4957076067433155,0.8746365914786968,2,0.05
1757393103.1495492,-0.368,-0.197,9.796,0.5547322597433829,2.4399247200184684,0.8751879699248122,2,0.05
1757393103.1767893,-0.368,-0.197,9.796,0.5547322597433829,2.4399247200184684,0.8751879699248122,2,0.05
1757393103.204003,-0.367,-0.196,9.78,0.5550356767812318,2.435997245242616,0.8752380952380953,2,0.05
1757393103.231432,-0.367,-0.196,9.78,0.5550356767812318,2.435997245242616,0.8752380952380953,2,0.05
1757393103.2586994,-0.369,-0.2,9.774,0.555342241325113,2.458886289386539,0.8753383458646616,2,0.05
1757393103.2857594,-0.369,-0.2,9.774,0.555342241325113,2.458886289386539,0.8753383458646616,2,0.05
1757393103.312815,-0.372,-0.204,9.784,0.5556536376196957,2.482964174412023,0.8754887218045114,2,0.05
1757393103.3398054,-0.372,-0.204,9.784,0.5556536376196957,2.482964174412023,0.8754887218045114,2,0.05
1757393103.3669312,-0.373,-0.207,9.784,0.5559665345144437,2.4965522412933603,0.8755388471177946,2,0.05
1757393103.394031,-0.373,-0.207,9.784,0.5559665345144437,2.4965522412933603,0.8755388471177946,2,0.05
1757393103.4210742,-0.366,-0.202,9.777,0.5562676311812508,2.448350448222905,0.8758897243107769,2,0.05
1757393103.4480908,-0.366,-0.202,9.777,0.5562676311812508,2.448350448222905,0.8758897243107769,2,0.05
1757393103.4753618,-0.369,-0.21,9.779,0.5565735171565389,2.486030281076448,0.8760401002506266,2,0.05
1757393103.5029273,-0.369,-0.21,9.779,0.5565735171565389,2.486030281076448,0.8760401002506266,2,0.05
1757393103.5302668,-0.371,-0.196,9.78,0.5568825571877791,2.4566550214769687,0.876140350877193,2,0.05
1757393103.5572588,-0.371,-0.196,9.78,0.5568825571877791,2.4566550214769687,0.876140350877193,2,0.05
1757393103.5845048,-0.362,-0.203,9.788,0.5571766259454896,2.4280184964040057,0.8765914786967418,2,0.05
1757393103.612029,-0.362,-0.203,9.788,0.5571766259454896,2.4280184964040057,0.8765914786967418,2,0.05
1757393103.639209,-0.361,-0.205,9.782,0.5574689184160854,2.4301609646194797,0.876641604010025,2,0.05
1757393103.6666095,-0.361,-0.205,9.782,0.5574689184160854,2.4301609646194797,0.876641604010025,2,0.05
1757393103.6950696,-0.352,-0.211,9.785,0.5577466763684029,2.4016550060282307,0.877092731829574,2,0.05
1757393103.7228777,-0.352,-0.211,9.785,0.5577466763684029,2.4016550060282307,0.877092731829574,2,0.05
1757393103.7502203,-0.362,-0.21,9.799,0.5580402897640994,2.445539376810875,0.8775939849624059,2,0.05
1757393103.7779064,-0.362,-0.21,9.799,0.5580402897640994,2.445539376810875,0.8775939849624059,2,0.05
1757393103.805077,-0.355,-0.2,9.804,0.5583225120841896,2.3798863028047763,0.8779448621553884,2,0.05
1757393103.832464,-0.355,-0.2,9.804,0.5583225120841896,2.3798863028047763,0.8779448621553884,2,0.05
1757393103.859575,-0.349,-0.2,9.819,0.5585951396136561,2.3458660149561674,0.8782456140350876,2,0.05
1757393103.886873,-0.349,-0.2,9.819,0.5585951396136561,2.3458660149561674,0.8782456140350876,2,0.05
1757393103.9139771,-0.358,-0.197,9.82,0.5588818658714917,2.382779180755157,0.8786967418546366,2,0.05
1757393103.941073,-0.358,-0.197,9.82,0.5588818658714917,2.382779180755157,0.8786967418546366,2,0.05
1757393103.9684057,-0.351,-0.199,9.82,0.5591573503943232,2.3528638216108306,0.865814536340852,2,0.05
1757393103.996029,-0.351,-0.199,9.82,0.5591573503943232,2.3528638216108306,0.865814536340852,2,0.05
1757393104.02329,-0.34,-0.191,9.804,0.5592599596788599,2.277864655441951,0.8661654135338344,2,0.05
1757393104.050482,-0.34,-0.191,9.804,0.5592599596788599,2.277864655441951,0.8661654135338344,2,0.05
1757393104.0782785,-0.33,-0.196,9.807,0.5593522615490171,2.241247535272557,0.8665162907268169,2,0.05
1757393104.105779,-0.33,-0.196,9.807,0.5593522615490171,2.241247535272557,0.8665162907268169,2,0.05
1757393104.1339333,-0.322,-0.203,9.817,0.5594363592045122,2.2204962203032585,0.8667167919799497,2,0.05
1757393104.1617703,-0.322,-0.203,9.817,0.5594363592045122,2.2204962203032585,0.8667167919799497,2,0.05
1757393104.1898873,-0.305,-0.209,9.804,0.5595011885599529,2.159769234794289,0.8672180451127819,2,0.05
1757393104.2167244,-0.305,-0.209,9.804,0.5595011885599529,2.159769234794289,0.8672180451127819,2,0.05
1757393104.244044,-0.289,-0.215,9.806,0.5595525824263525,2.103693739494663,0.8676691729323308,2,0.05
1757393104.2715874,-0.289,-0.215,9.806,0.5595525824263525,2.103693739494663,0.8676691729323308,2,0.05
1757393104.298751,-0.286,-0.221,9.814,0.5596077018769489,2.1091790091459,0.8677192982456141,2,0.05
1757393104.3257833,-0.286,-0.221,9.814,0.5596077018769489,2.1091790091459,0.8677192982456141,2,0.05
1757393104.3529348,-0.288,-0.232,9.812,0.5596675062034601,2.158498820405493,0.8671679197994987,2,0.05
1757393104.3800178,-0.288,-0.232,9.812,0.5596675062034601,2.158498820405493,0.8671679197994987,2,0.05
1757393104.4072526,-0.28,-0.237,9.798,0.5597030172332467,2.144148739725228,0.8670175438596491,2,0.05
1757393104.434496,-0.28,-0.237,9.798,0.5597030172332467,2.144148739725228,0.8670175438596491,2,0.05
1757393104.461696,-0.279,-0.223,9.79,0.5597247247531594,2.089400263592856,0.8669674185463659,2,0.05
1757393104.488871,-0.279,-0.223,9.79,0.5597247247531594,2.089400263592856,0.8669674185463659,2,0.05
1757393104.5147598,-0.278,-0.236,9.8,0.559742847207537,2.1310291738824545,0.8667669172932329,2,0.05
1757393104.5401409,-0.278,-0.236,9.8,0.559742847207537,2.1310291738824545,0.8667669172932329,2,0.05
1757393104.5672941,-0.261,-0.241,9.806,0.5597463242398292,2.074789176485338,0.8666666666666666,2,0.05
1757393104.5944536,-0.261,-0.241,9.806,0.5597463242398292,2.074789176485338,0.8666666666666666,2,0.05
1757393104.6214652,-0.264,-0.24,9.808,0.5597306182441694,2.0833301461711873,0.8659147869674185,2,0.05
1757393104.6485293,-0.264,-0.24,9.808,0.5597306182441694,2.0833301461711873,0.8659147869674185,2,0.05
1757393104.675545,-0.274,-0.246,9.822,0.55970393289667,2.1470214891538033,0.866265664160401,2,0.05
1757393104.702706,-0.274,-0.246,9.822,0.55970393289667,2.1470214891538033,0.866265664160401,2,0.05
1757393104.7298107,-0.262,-0.228,9.818,0.5596589072819266,2.026014761506053,0.8666666666666667,2,0.05
1757393104.7569265,-0.262,-0.228,9.818,0.5596589072819266,2.026014761506053,0.8666666666666667,2,0.05
1757393104.7841694,-0.262,-0.225,9.826,0.5596085171796441,2.0129404569582032,0.8658145363408523,2,0.05
1757393104.81144,-0.262,-0.225,9.826,0.5596085171796441,2.0129404569582032,0.8658145363408523,2,0.05
1757393104.8366892,-0.282,-0.226,9.83,0.5595588440905925,2.105451098207896,0.8667669172932332,2,0.05
1757393104.8637748,-0.282,-0.226,9.83,0.5595588440905925,2.105451098207896,0.8667669172932332,2,0.05
1757393104.8908455,-0.293,-0.231,9.85,0.5595247201866956,2.1692721265563746,0.8665664160401002,2,0.05
1757393104.918479,-0.293,-0.231,9.85,0.5595247201866956,2.1692721265563746,0.8665664160401002,2,0.05
1757393104.9455974,-0.284,-0.233,9.837,0.5594571744110536,2.1386346609478215,0.8666666666666668,2,0.05
1757393104.9730196,-0.284,-0.233,9.837,0.5594571744110536,2.1386346609478215,0.8666666666666668,2,0.05
1757393105.0003846,-0.29,-0.234,9.822,0.559386789261241,2.172685125908266,0.866967418546366,2,0.05
1757393105.0275493,-0.29,-0.234,9.822,0.559386789261241,2.172685125908266,0.866967418546366,2,0.05
1757393105.0548084,-0.277,-0.239,9.822,0.5592999217772161,2.1331979444722085,0.8673684210526317,2,0.05
1757393105.082038,-0.277,-0.239,9.822,0.5592999217772161,2.1331979444722085,0.8673684210526317,2,0.05
1757393105.109253,-0.292,-0.231,9.807,0.5592244629842297,2.174196089212463,0.8671679197994987,2,0.05
1757393105.1362507,-0.292,-0.231,9.807,0.5592244629842297,2.174196089212463,0.8671679197994987,2,0.05
1757393105.1635513,-0.306,-0.222,9.792,0.5591375948726753,2.210966129812876,0.8671177944862156,2,0.05
1757393105.190617,-0.306,-0.222,9.792,0.5591375948726753,2.210966129812876,0.8671177944862156,2,0.05
1757393105.217977,-0.315,-0.221,9.787,0.5590382902807285,2.25152662473421,0.8675187969924814,2,0.05
1757393105.2451887,-0.315,-0.221,9.787,0.5590382902807285,2.25152662473421,0.8675187969924814,2,0.05
1757393105.2722545,-0.327,-0.215,9.798,0.5589544994898958,2.2872760343522365,0.8679197994987469,2,0.05
1757393105.2984772,-0.327,-0.215,9.798,0.5589544994898958,2.2872760343522365,0.8679197994987469,2,0.05
1757393105.3256137,-0.326,-0.218,9.784,0.5588759992162841,2.295365925628328,0.8674185463659149,2,0.05
1757393105.3528016,-0.326,-0.218,9.784,0.5588759992162841,2.295365925628328,0.8674185463659149,2,0.05
1757393105.379984,-0.324,-0.22,9.784,0.5587758047732561,2.292203158124919,0.8670676691729323,2,0.05
1757393105.4072473,-0.324,-0.22,9.784,0.5587758047732561,2.292203158124919,0.8670676691729323,2,0.05
1757393105.434459,-0.325,-0.226,9.796,0.558692448937696,2.314054124215172,0.8669172932330826,2,0.05
1757393105.4617534,-0.325,-0.226,9.796,0.558692448937696,2.314054124215172,0.8669172932330826,2,0.05
1757393105.4889452,-0.335,-0.225,9.814,0.558630580079537,2.354647328324179,0.8668170426065164,2,0.05
1757393105.5160003,-0.335,-0.225,9.814,0.558630580079537,2.354647328324179,0.8668170426065164,2,0.05
1757393105.5429273,-0.338,-0.229,9.822,0.5585929868875906,2.380241499658249,0.86671679197995,2,0.05
1757393105.5700312,-0.338,-0.229,9.822,0.5585929868875906,2.380241499658249,0.86671679197995,2,0.05
1757393105.5973012,-0.345,-0.218,9.82,0.5585741356346532,2.379755405774545,0.8669674185463659,2,0.05
1757393105.624458,-0.345,-0.218,9.82,0.5585741356346532,2.379755405774545,0.8669674185463659,2,0.05
1757393105.6515827,-0.355,-0.225,9.832,0.5585741356346532,2.4477849018039994,0.8672681704260651,2,0.05
1757393105.6792974,-0.355,-0.225,9.832,0.5585741356346532,2.4477849018039994,0.8672681704260651,2,0.05
1757393105.7064767,-0.349,-0.217,9.84,0.5585582914969573,2.391537436097314,0.8675187969924811,2,0.05
1757393105.7335255,-0.349,-0.217,9.84,0.5585582914969573,2.391537436097314,0.8675187969924811,2,0.05
1757393105.760615,-0.358,-0.223,9.83,0.5585582914969573,2.4568703867005666,0.8676190476190476,2,0.05
1757393105.7877178,-0.358,-0.223,9.83,0.5585582914969573,2.4568703867005666,0.8676190476190476,2,0.05
1757393105.8151007,-0.359,-0.222,9.824,0.558548569956096,2.4602454866870955,0.8673182957393484,2,0.05
1757393105.8423784,-0.359,-0.222,9.824,0.558548569956096,2.4602454866870955,0.8673182957393484,2,0.05
1757393105.8695438,-0.372,-0.225,9.81,0.558548569956096,2.537527682819614,0.8678696741854636,2,0.05
1757393105.8966281,-0.372,-0.225,9.81,0.558548569956096,2.537527682819614,0.8678696741854636,2,0.05
1757393105.9237654,-0.368,-0.206,9.809,0.5585452667420967,2.461895714994143,0.8673684210526317,2,0.05
1757393105.9508698,-0.368,-0.206,9.809,0.5585452667420967,2.461895714994143,0.8673684210526317,2,0.05
1757393105.977921,-0.377,-0.212,9.804,0.5585797145439494,2.5260583037315745,0.8675187969924811,2,0.05
1757393106.0050662,-0.377,-0.212,9.804,0.5585797145439494,2.5260583037315745,0.8675187969924811,2,0.05
1757393106.0322547,-0.386,-0.208,9.808,0.5586198864165148,2.5597500849514447,0.8674686716791981,2,0.05
1757393106.0593128,-0.379,-0.202,9.801,0.5586640493176557,2.5090421268588696,0.8675689223057643,2,0.05
1757393106.0865033,-0.379,-0.202,9.801,0.5586640493176557,2.5090421268588696,0.8675689223057643,2,0.05
1757393106.1137874,-0.397,-0.198,9.777,0.5587472773982886,2.5980416683012177,0.8680701754385965,2,0.05
1757393106.1410093,-0.397,-0.198,9.777,0.5587472773982886,2.5980416683012177,0.8680701754385965,2,0.05
1757393106.1682293,-0.39,-0.201,9.78,0.558830446110446,2.5686750900942648,0.8678696741854637,2,0.05
1757393106.1955256,-0.39,-0.201,9.78,0.558830446110446,2.5686750900942648,0.8678696741854637,2,0.05
1757393106.2228665,-0.403,-0.196,9.782,0.5589530660082294,2.6230122044696227,0.8681203007518797,2,0.05
1757393106.2499754,-0.403,-0.196,9.782,0.5589530660082294,2.6230122044696227,0.8681203007518797,2,0.05
1757393106.2772233,-0.396,-0.204,9.778,0.5590747445556811,2.608424510416392,0.8681203007518797,2,0.05
1757393106.304378,-0.396,-0.204,9.778,0.5590747445556811,2.608424510416392,0.8681203007518797,2,0.05
1757393106.331534,-0.409,-0.201,9.775,0.5592096655101734,2.6692603819091403,0.8687218045112782,2,0.05
1757393106.3594599,-0.409,-0.201,9.775,0.5592096655101734,2.6692603819091403,0.8687218045112782,2,0.05
1757393106.3854675,-0.394,-0.185,9.781,0.5593161717669176,2.5480787107830984,0.8690726817042607,2,0.05
1757393106.412934,-0.394,-0.185,9.781,0.5593161717669176,2.5480787107830984,0.8690726817042607,2,0.05
1757393106.4406023,-0.399,-0.186,9.778,0.5594196479388259,2.577822132366758,0.8692230576441105,2,0.05
1757393106.4679756,-0.399,-0.186,9.778,0.5594196479388259,2.577822132366758,0.8692230576441105,2,0.05
1757393106.495348,-0.399,-0.186,9.778,0.5594196479388259,2.577822132366758,0.8692230576441105,2,0.05
1757393106.5227017,-0.405,-0.197,9.786,0.5595308704620326,2.6350051276542743,0.8692731829573935,2,0.05
1757393106.5500565,-0.403,-0.204,9.788,0.5596459550465812,2.642179750114349,0.8693233082706767,2,0.05
1757393106.576625,-0.403,-0.204,9.788,0.5596459550465812,2.642179750114349,0.8693233082706767,2,0.05
1757393106.6025722,-0.411,-0.205,9.81,0.5597770426696687,2.680539764463548,0.8695739348370928,2,0.05
1757393106.6297293,-0.411,-0.205,9.81,0.5597770426696687,2.680539764463548,0.8695739348370928,2,0.05
1757393106.65695,-0.415,-0.204,9.808,0.559911008554038,2.6993933141660915,0.869624060150376,2,0.05
1757393106.6840787,-0.415,-0.204,9.808,0.559911008554038,2.6993933141660915,0.869624060150376,2,0.05
1757393106.7111366,-0.425,-0.194,9.796,0.560059184372509,2.730442205208926,0.8695238095238095,2,0.05
1757393106.7383518,-0.425,-0.194,9.796,0.560059184372509,2.730442205208926,0.8695238095238095,2,0.05
1757393106.7655454,-0.425,-0.194,9.798,0.5602250998482663,2.7298857015506934,0.8692731829573934,2,0.05
1757393106.793284,-0.425,-0.194,9.798,0.5602250998482663,2.7298857015506934,0.8692731829573934,2,0.05
1757393106.8205867,-0.424,-0.189,9.813,0.5603817448846813,2.7084311165317523,0.8692731829573935,2,0.05
1757393106.8482711,-0.424,-0.189,9.813,0.5603817448846813,2.7084311165317523,0.8692731829573935,2,0.05
1757393106.8753777,-0.423,-0.178,9.8,0.5605379313659336,2.6811553600701705,0.8688220551378445,2,0.05
1757393106.9025996,-0.423,-0.178,9.8,0.5605379313659336,2.6811553600701705,0.8688220551378445,2,0.05
1757393106.9297593,-0.438,-0.175,9.797,0.5607373560768,2.7563164095447448,0.8686215538847119,2,0.05
1757393106.9569833,-0.438,-0.175,9.797,0.5607373560768,2.7563164095447448,0.8686215538847119,2,0.05
1757393106.9840975,-0.441,-0.179,9.772,0.5609688783702711,2.7883758673409282,0.8685213032581452,2,0.05
1757393107.011363,-0.441,-0.179,9.772,0.5609688783702711,2.7883758673409282,0.8685213032581452,2,0.05
1757393107.0384371,-0.448,-0.176,9.766,0.5612208143859242,2.8216224248512116,0.868671679197995,2,0.05
1757393107.0657258,-0.448,-0.176,9.766,0.5612208143859242,2.8216224248512116,0.868671679197995,2,0.05
1757393107.0931423,-0.453,-0.182,9.787,0.561487902808244,2.8556522397521777,0.8685213032581454,2,0.05
1757393107.1203535,-0.453,-0.182,9.787,0.561487902808244,2.8556522397521777,0.8685213032581454,2,0.05
1757393107.1475172,-0.446,-0.186,9.799,0.5617511148186535,2.8232139637181684,0.8687218045112782,2,0.05
1757393107.1749873,-0.446,-0.186,9.799,0.5617511148186535,2.8232139637181684,0.8687218045112782,2,0.05
1757393107.2023513,-0.455,-0.191,9.794,0.5620360086328989,2.8843653770826925,0.8687218045112782,2,0.05
1757393107.2293816,-0.455,-0.191,9.794,0.5620360086328989,2.8843653770826925,0.8687218045112782,2,0.05
1757393107.2564514,-0.455,-0.188,9.791,0.562331821525334,2.878515110167186,0.8686215538847119,2,0.05
1757393107.28349,-0.455,-0.188,9.791,0.562331821525334,2.878515110167186,0.8686215538847119,2,0.05
1757393107.3109102,-0.475,-0.188,9.786,0.5626712094998286,2.9882563545628726,0.8694235588972431,2,0.05
1757393107.3381236,-0.475,-0.188,9.786,0.5626712094998286,2.9882563545628726,0.8694235588972431,2,0.05
1757393107.3654573,-0.483,-0.177,9.789,0.5630321682639456,3.0081168812297028,0.8697243107769423,2,0.05
1757393107.3926613,-0.483,-0.177,9.789,0.5630321682639456,3.0081168812297028,0.8697243107769423,2,0.05
1757393107.4198256,-0.495,-0.173,9.798,0.5634212855404027,3.0633817022469723,0.8701253132832081,2,0.05
1757393107.4470153,-0.495,-0.173,9.798,0.5634212855404027,3.0633817022469723,0.8701253132832081,2,0.05
1757393107.474695,-0.484,-0.172,9.805,0.5637815401376671,2.9988071278168293,0.8702756892230576,2,0.05
1757393107.5020752,-0.484,-0.172,9.805,0.5637815401376671,2.9988071278168293,0.8702756892230576,2,0.05
1757393107.5296757,-0.491,-0.173,9.802,0.5641470442180833,3.0401341884880937,0.8705764411027569,2,0.05
1757393107.557258,-0.491,-0.173,9.802,0.5641470442180833,3.0401341884880937,0.8705764411027569,2,0.05
1757393107.5848897,-0.503,-0.17,9.803,0.5645399432281121,3.1002303734543553,0.8708270676691731,2,0.05
1757393107.6124265,-0.503,-0.17,9.803,0.5645399432281121,3.1002303734543553,0.8708270676691731,2,0.05
1757393107.6396685,-0.508,-0.159,9.789,0.5649521639041664,3.112537343634454,0.8706265664160401,2,0.05
1757393107.6670473,-0.508,-0.159,9.789,0.5649521639041664,3.112537343634454,0.8706265664160401,2,0.05
1757393107.694172,-0.509,-0.163,9.782,0.5653768190331118,3.1273788064901775,0.8699248120300752,2,0.05
1757393107.7217233,-0.509,-0.163,9.782,0.5653768190331118,3.1273788064901775,0.8699248120300752,2,0.05
1757393107.7488153,-0.502,-0.159,9.773,0.5657678565454209,3.0841690500471546,0.8702756892230576,2,0.05
1757393107.7755318,-0.502,-0.159,9.773,0.5657678565454209,3.0841690500471546,0.8702756892230576,2,0.05
1757393107.802904,-0.492,-0.157,9.772,0.5661366774021976,3.0252231895497643,0.870375939849624,2,0.05
1757393107.8302655,-0.492,-0.157,9.772,0.5661366774021976,3.0252231895497643,0.870375939849624,2,0.05
1757393107.8577251,-0.49,-0.159,9.776,0.5664911098155028,3.0164411024754125,0.8702255639097745,2,0.05
1757393107.8848884,-0.49,-0.159,9.776,0.5664911098155028,3.0164411024754125,0.8702255639097745,2,0.05
1757393107.91214,-0.487,-0.158,9.762,0.5668450207067184,3.002250642656676,0.8692731829573935,2,0.05
1757393107.9393494,-0.487,-0.158,9.762,0.5668450207067184,3.002250642656676,0.8692731829573935,2,0.05
1757393107.9666812,-0.485,-0.159,9.761,0.5671664989224946,2.9932420529847357,0.8692230576441105,2,0.05
1757393107.9937673,-0.485,-0.159,9.761,0.5671664989224946,2.9932420529847357,0.8692230576441105,2,0.05
1757393108.0213475,-0.496,-0.159,9.779,0.5675154953831657,3.0488811218013088,0.8697243107769423,2,0.05
1757393108.0490198,-0.496,-0.159,9.779,0.5675154953831657,3.0488811218013088,0.8697243107769423,2,0.05
1757393108.0763683,-0.483,-0.159,9.78,0.5678375626004324,2.9763359817766943,0.8703258145363408,2,0.05
1757393108.1039333,-0.483,-0.159,9.78,0.5678375626004324,2.9763359817766943,0.8703258145363408,2,0.05
1757393108.1314912,-0.482,-0.158,9.774,0.5681560239054058,2.9707809561862386,0.8702255639097745,2,0.05
1757393108.158744,-0.482,-0.158,9.774,0.5681560239054058,2.9707809561862386,0.8702255639097745,2,0.05
1757393108.1860585,-0.486,-0.16,9.769,0.5684788958263974,2.9981777280126956,0.8702255639097745,2,0.05
1757393108.2135873,-0.486,-0.16,9.769,0.5684788958263974,2.9981777280126956,0.8702255639097745,2,0.05
1757393108.2411265,-0.487,-0.159,9.781,0.5687984309050088,2.9982372384464604,0.8702255639097743,2,0.05
1757393108.268532,-0.487,-0.159,9.781,0.5687984309050088,2.9982372384464604,0.8702255639097743,2,0.05
1757393108.2959993,-0.475,-0.157,9.782,0.5690910977163498,2.9276869197939286,0.8705263157894738,2,0.05
1757393108.3235242,-0.475,-0.157,9.782,0.5690910977163498,2.9276869197939286,0.8705263157894738,2,0.05
1757393108.3509748,-0.473,-0.162,9.784,0.5693713638742293,2.9253318473473215,0.8701754385964914,2,0.05
1757393108.3781383,-0.473,-0.162,9.784,0.5693713638742293,2.9253318473473215,0.8701754385964914,2,0.05
1757393108.405621,-0.472,-0.17,9.788,0.5696369962528769,2.934111434509023,0.8699248120300752,2,0.05
1757393108.432808,-0.472,-0.17,9.788,0.5696369962528769,2.934111434509023,0.8699248120300752,2,0.05
1757393108.4598687,-0.472,-0.161,9.793,0.5698940296230519,2.9152388200981,0.8694736842105262,2,0.05
1757393108.4870932,-0.472,-0.161,9.793,0.5698940296230519,2.9152388200981,0.8694736842105262,2,0.05
1757393108.5144658,-0.469,-0.154,9.781,0.5701574058977047,2.8892047306016657,0.8692230576441105,2,0.05
1757393108.541606,-0.469,-0.154,9.781,0.5701574058977047,2.8892047306016657,0.8692230576441105,2,0.05
1757393108.568892,-0.451,-0.166,9.777,0.5703731497888028,2.814058862132187,0.8699749373433584,2,0.05
1757393108.596122,-0.451,-0.166,9.777,0.5703731497888028,2.814058862132187,0.8699749373433584,2,0.05
1757393108.62334,-0.457,-0.169,9.779,0.5706049859578866,2.852454202855133,0.869624060150376,2,0.05
1757393108.6504636,-0.457,-0.169,9.779,0.5706049859578866,2.852454202855133,0.869624060150376,2,0.05
1757393108.6777759,-0.449,-0.166,9.78,0.5708022096138031,2.802230590638304,0.8674686716791981,2,0.05
1757393108.704882,-0.449,-0.166,9.78,0.5708022096138031,2.802230590638304,0.8674686716791981,2,0.05
1757393108.7321813,-0.449,-0.165,9.779,0.5710682467971757,2.800495170807563,0.8640601503759399,2,0.05
1757393108.7593005,-0.449,-0.165,9.779,0.5710682467971757,2.800495170807563,0.8640601503759399,2,0.05
1757393108.7865024,-0.439,-0.151,9.772,0.5713888190190635,2.7199352686505196,0.8599498746867168,2,0.05
1757393108.8136733,-0.429,-0.158,9.767,0.5717582203169448,2.679926662321959,0.8565413533834586,2,0.05
1757393108.8409142,-0.429,-0.158,9.767,0.5717582203169448,2.679926662321959,0.8565413533834586,2,0.05
1757393108.8682609,-0.425,-0.165,9.786,0.57214854932963,2.6673409536768995,0.8562406015037594,2,0.05
1757393108.8955262,-0.425,-0.165,9.786,0.57214854932963,2.6673409536768995,0.8562406015037594,2,0.05
1757393108.9227443,-0.416,-0.171,9.797,0.5725199035841462,2.6285691525117896,0.8498245614035087,2,0.05
1757393108.949977,-0.416,-0.171,9.797,0.5725199035841462,2.6285691525117896,0.8498245614035087,2,0.05
1757393108.977229,-0.404,-0.171,9.786,0.5727957052911623,2.566809283553447,0.8262656641604009,2,0.05
1757393109.004963,-0.404,-0.171,9.786,0.5727957052911623,2.566809283553447,0.8262656641604009,2,0.05
1757393109.0322156,-0.391,-0.179,9.77,0.5721375992713641,2.5202413928654295,0.8041604010025063,2,0.05
1757393109.059447,-0.391,-0.179,9.77,0.5721375992713641,2.5202413928654295,0.8041604010025063,2,0.05
1757393109.0866358,-0.404,-0.181,9.771,0.5723883930514314,2.594115304346512,0.804310776942356,2,0.05
1757393109.1139915,-0.404,-0.181,9.771,0.5723883930514314,2.594115304346512,0.804310776942356,2,0.05
1757393109.141148,-0.397,-0.178,9.781,0.5726362239677124,2.546950224699934,0.8003508771929826,2,0.05
1757393109.1683478,-0.397,-0.178,9.781,0.5726362239677124,2.546950224699934,0.8003508771929826,2,0.05
1757393109.195789,-0.391,-0.187,9.79,0.5729363031786343,2.5349071047881493,0.7775438596491226,2,0.05
1757393109.2232132,-0.391,-0.187,9.79,0.5729363031786343,2.5349071047881493,0.7775438596491226,2,0.05
1757393109.2506113,-0.398,-0.176,9.78,0.5730341132951859,2.547794822907365,0.7736340852130326,2,0.05
1757393109.2780836,-0.398,-0.176,9.78,0.5730341132951859,2.547794822907365,0.7736340852130326,2,0.05
1757393109.305348,-0.393,-0.181,9.767,0.5729825542719429,2.5365422971412444,0.771528822055138,2,0.05
1757393109.3324723,-0.393,-0.181,9.767,0.5729825542719429,2.5365422971412444,0.771528822055138,2,0.05
1757393109.3596127,-0.399,-0.186,9.77,0.5730230776330042,2.579930087766862,0.7596491228070176,2,0.05
1757393109.3867779,-0.399,-0.186,9.77,0.5730230776330042,2.579930087766862,0.7596491228070176,2,0.05
1757393109.4139163,-0.384,-0.202,9.786,0.5733066609590368,2.538704227194991,0.7581453634085213,2,0.05
1757393109.4411156,-0.384,-0.202,9.786,0.5733066609590368,2.538704227194991,0.7581453634085213,2,0.05
1757393109.4681487,-0.384,-0.196,9.804,0.5736115802527003,2.5179471285402335,0.7498245614035088,2,0.05
1757393109.495549,-0.384,-0.196,9.804,0.5736115802527003,2.5179471285402335,0.7498245614035088,2,0.05
1757393109.5226314,-0.382,-0.195,9.803,0.5737900596036847,2.505160014287926,0.7471679197994987,2,0.05
1757393109.549675,-0.382,-0.195,9.803,0.5737900596036847,2.505160014287926,0.7471679197994987,2,0.05
1757393109.576773,-0.372,-0.196,9.815,0.5738848599675723,2.4530589575347297,0.7391979949874685,2,0.05
1757393109.6040347,-0.372,-0.196,9.815,0.5738848599675723,2.4530589575347297,0.7391979949874685,2,0.05
1757393109.6310844,-0.374,-0.205,9.805,0.5741473852592207,2.4906855155084764,0.7391979949874686,2,0.05
1757393109.658062,-0.374,-0.205,9.805,0.5741473852592207,2.4906855155084764,0.7391979949874686,2,0.05
1757393109.6851845,-0.373,-0.2,9.813,0.5744093662189014,2.469646012166156,0.7389974937343359,2,0.05
1757393109.7122378,-0.373,-0.2,9.813,0.5744093662189014,2.469646012166156,0.7389974937343359,2,0.05
1757393109.7392225,-0.366,-0.199,9.8,0.5746569411396681,2.4341997832921605,0.7362406015037594,2,0.05
1757393109.7662625,-0.366,-0.199,9.8,0.5746569411396681,2.4341997832921605,0.7362406015037594,2,0.05
1757393109.7933812,-0.358,-0.211,9.8,0.574845170458968,2.4280843622422426,0.7343358395989975,2,0.05
1757393109.820451,-0.358,-0.211,9.8,0.574845170458968,2.4280843622422426,0.7343358395989975,2,0.05
1757393109.8475244,-0.358,-0.203,9.791,0.5749879390039412,2.4069224369606266,0.7280701754385965,2,0.05
1757393109.8745239,-0.358,-0.203,9.791,0.5749879390039412,2.4069224369606266,0.7280701754385965,2,0.05
1757393109.9016874,-0.368,-0.198,9.788,0.5749766321338633,2.4446796116464586,0.7250125313283209,2,0.05
1757393109.9287567,-0.368,-0.198,9.788,0.5749766321338633,2.4446796116464586,0.7250125313283209,2,0.05
1757393109.9558182,-0.359,-0.2,9.776,0.5750559016304415,2.4071115614380005,0.7179448621553884,2,0.05
1757393109.9833765,-0.359,-0.2,9.776,0.5750559016304415,2.4071115614380005,0.7179448621553884,2,0.05
1757393110.010514,-0.357,-0.195,9.761,0.5752813420405706,2.386393012594687,0.7158897243107769,2,0.05
1757393110.0377445,-0.357,-0.195,9.761,0.5752813420405706,2.386393012594687,0.7158897243107769,2,0.05
1757393110.0648146,-0.355,-0.195,9.786,0.5755283507352179,2.3700512389017536,0.7134837092731828,2,0.05
1757393110.0920272,-0.355,-0.195,9.786,0.5755283507352179,2.3700512389017536,0.7134837092731828,2,0.05
1757393110.1190464,-0.356,-0.193,9.77,0.5757472709444658,2.373458346776027,0.7090726817042607,2,0.05
1757393110.1460655,-0.356,-0.193,9.77,0.5757472709444658,2.373458346776027,0.7090726817042607,2,0.05
1757393110.171371,-0.363,-0.198,9.779,0.5760220329987387,2.421214858156406,0.7047619047619049,2,0.05
1757393110.1974397,-0.363,-0.198,9.779,0.5760220329987387,2.421214858156406,0.7047619047619049,2,0.05
1757393110.2250803,-0.356,-0.186,9.795,0.5762379369670136,2.3482006168115177,0.6879197994987469,2,0.05
1757393110.2522435,-0.356,-0.186,9.795,0.5762379369670136,2.3482006168115177,0.6879197994987469,2,0.05
1757393110.279523,-0.351,-0.193,9.805,0.575945312073985,2.3393944957900383,0.6723308270676691,2,0.05
1757393110.306863,-0.351,-0.193,9.805,0.575945312073985,2.3393944957900383,0.6723308270676691,2,0.05
1757393110.3341973,-0.348,-0.194,9.79,0.5761281129228117,2.3304701062305075,0.6703759398496241,2,0.05
1757393110.3614717,-0.348,-0.194,9.79,0.5761281129228117,2.3304701062305075,0.6703759398496241,2,0.05
1757393110.3885694,-0.339,-0.204,9.785,0.5763285998456089,2.3154414034778483,0.6685714285714286,2,0.05
1757393110.4143143,-0.339,-0.204,9.785,0.5763285998456089,2.3154414034778483,0.6685714285714286,2,0.05
1757393110.4409373,-0.321,-0.207,9.795,0.5765281389490022,2.2331143836999443,0.6658646616541354,2,0.05
1757393110.468026,-0.321,-0.207,9.795,0.5765281389490022,2.2331143836999443,0.6658646616541354,2,0.05
1757393110.495405,-0.324,-0.203,9.784,0.5766877946514909,2.237879350542717,0.6626065162907268,2,0.05
1757393110.522485,-0.324,-0.203,9.784,0.5766877946514909,2.237879350542717,0.6626065162907268,2,0.05
1757393110.5491428,-0.313,-0.198,9.796,0.5768743645716977,2.165216696394673,0.6629573934837094,2,0.05
1757393110.5763414,-0.313,-0.198,9.796,0.5768743645716977,2.165216696394673,0.6629573934837094,2,0.05
1757393110.6033983,-0.313,-0.2,9.786,0.5770589506280965,2.1737007130601205,0.6532330827067668,2,0.05
1757393110.6305392,-0.313,-0.2,9.786,0.5770589506280965,2.1737007130601205,0.6532330827067668,2,0.05
1757393110.6577098,-0.314,-0.205,9.8,0.5770683668336014,2.1913402639702335,0.6518796992481204,2,0.05
1757393110.68309,-0.314,-0.205,9.8,0.5770683668336014,2.1913402639702335,0.6518796992481204,2,0.05
1757393110.709823,-0.3,-0.214,9.803,0.577094704099769,2.152795011422488,0.6494235588972431,2,0.05
1757393110.7370217,-0.3,-0.214,9.803,0.577094704099769,2.152795011422488,0.6494235588972431,2,0.05
1757393110.764053,-0.301,-0.212,9.8,0.5770375984283866,2.1514641820299407,0.6471177944862156,2,0.05
1757393110.7914534,-0.301,-0.212,9.8,0.5770375984283866,2.1514641820299407,0.6471177944862156,2,0.05
1757393110.8184412,-0.295,-0.217,9.796,0.5768983012628829,2.1409608010820946,0.6428571428571429,2,0.05
1757393110.845902,-0.295,-0.217,9.796,0.5768983012628829,2.1409608010820946,0.6428571428571429,2,0.05
1757393110.87336,-0.295,-0.22,9.797,0.5768944465844683,2.15117040731204,0.6423558897243108,2,0.05
1757393110.9004724,-0.295,-0.22,9.797,0.5768944465844683,2.15117040731204,0.6423558897243108,2,0.05
1757393110.9276001,-0.294,-0.22,9.794,0.5769020129103382,2.1471485603129263,0.6409022556390976,2,0.05
1757393110.9547453,-0.294,-0.22,9.794,0.5769020129103382,2.1471485603129263,0.6409022556390976,2,0.05
1757393110.9822485,-0.29,-0.219,9.789,0.5768651250509083,2.126043789969124,0.6395989974937345,2,0.05
1757393111.0093286,-0.29,-0.219,9.789,0.5768651250509083,2.126043789969124,0.6395989974937345,2,0.05
1757393111.0545733,-0.28,-0.232,9.791,0.5767725829995736,2.12692009135067,0.6369924812030074,2,0.05
1757393111.0820827,-0.28,-0.232,9.791,0.5767725829995736,2.12692009135067,0.6369924812030074,2,0.05
