timestamp,ax,ay,az,rms,tilt_now,jerk,tilt_crosses,freq
1755688941.6253598,9.721,-0.204,0.135,0.48605000000000004,89.20453340925573,0.48726817042606513,1,2.5
1755688941.7498274,9.931,-0.094,0.138,0.6948427915723095,89.20391152894813,0.4977944862155388,1,0.05
1755688941.7803414,9.752,-0.216,0.176,0.8488582125420004,88.96631555551677,0.5067669172932329,1,0.05
1755688941.808891,9.795,-0.24,0.15,0.98000782012186,89.12290790421159,0.5089223057644108,1,0.05
1755688941.8369486,9.841,-0.276,0.309,1.0965986184561787,88.20225291895001,0.5112280701754384,1,0.05
1755688941.865313,9.805,-0.231,0.145,1.201196733470417,89.1529853840707,0.5130325814536338,1,0.05
1755688941.8932652,9.862,-0.214,0.142,1.2984687915002038,89.17526626538502,0.5158897243107767,1,0.05
1755688941.9219344,9.683,-0.25,0.066,1.3857930671640697,89.60960412992111,0.524862155388471,1,0.05
1755688941.950516,9.817,-0.135,0.164,1.4701551440239224,89.04301255432624,0.5315789473684209,1,0.05
1755688941.9787993,9.74,-0.243,0.119,1.5487172587338207,89.30023224846836,0.5354385964912279,1,0.05
1755688942.0070064,9.769,-0.199,0.321,1.6239176549320473,88.11838269143608,0.536892230576441,1,0.05
1755688942.0353022,9.843,-0.207,0.321,1.6968559669282481,88.13254416811749,0.5406015037593983,1,0.05
1755688942.0636683,9.771,-0.178,0.257,1.7657863050210805,88.49358509568057,0.5442105263157891,1,0.05
1755688942.1070313,9.972,-0.168,0.259,1.8348305739222899,88.51241803817196,0.5542857142857139,1,0.05
1755688942.1354702,9.721,-0.204,0.109,1.8981169188171734,89.35772001785719,0.5668671679197991,1,0.05
1755688942.16372,9.752,-0.197,0.147,1.9597452889342533,89.13657463598045,0.5684210526315785,1,0.05
1755688942.192336,9.662,-0.293,0.228,2.0184120509697716,88.64882895457204,0.5729323308270673,1,0.05
1755688942.2207284,9.745,-0.171,0.214,2.0763910445771048,88.74218162573052,0.5770927318295734,1,0.05
1755688942.2492027,9.874,-0.233,0.333,2.134277268772734,88.06897283620161,0.5835588972431074,1,0.05
1755688942.2776742,9.776,-0.283,0.354,2.189535315997438,87.92702888852796,0.5884711779448619,1,0.05
1755688942.3068705,9.991,-0.103,0.352,2.245799435056479,87.98231352696529,0.5992481203007515,1,0.05
1755688942.3351321,9.843,-0.243,0.285,2.299092587304826,88.34199264402422,0.6066666666666662,1,0.05
1755688942.363613,10.055,-0.334,-0.003,2.3534197006696447,90.01708528916181,0.6172932330827063,1,0.05
1755688942.3921402,9.674,-0.245,-0.174,2.402613156024082,91.03010090985427,0.6363909774436086,1,0.05
1755688942.4206676,9.674,-0.245,-0.174,2.402613156024082,91.03010090985427,0.6363909774436086,1,0.05
1755688942.4484966,9.838,-0.228,0.359,2.452450934779328,87.91069853372134,0.6446115288220546,1,0.05
1755688942.4765928,9.91,-0.192,0.062,2.5020063624019824,89.64161195933681,0.6482205513784457,1,0.05
1755688942.5046906,9.91,-0.192,0.062,2.5020063624019824,89.64161195933681,0.6482205513784457,1,0.05
1755688942.5330334,9.74,-0.327,-3.082,2.5489615213847387,107.54950280095782,0.656741854636591,1,0.05
1755688942.561822,9.74,-0.327,-3.082,2.5489615213847387,107.54950280095782,0.656741854636591,1,0.05
1755688942.5894694,12.561,-0.139,-0.109,2.6251955431929255,90.49714997965177,0.7981453634085208,1,0.05
1755688942.6175225,12.561,-0.139,-0.109,2.6251955431929255,90.49714997965177,0.7981453634085208,1,0.05
1755688942.6457932,8.875,1.101,5.064,2.6624360466497596,60.47925282113773,0.9829072681704256,1,0.05
1755688942.6740627,13.972,0.209,3.702,2.752563834409658,75.16158209355966,1.2383959899749368,1,0.05
1755688942.7029216,13.972,0.209,3.702,2.752563834409658,75.16158209355966,1.2383959899749368,1,0.05
1755688942.7307436,12.969,-0.221,5.08,2.827913553310992,68.61238230455652,1.2886716791979946,1,0.05
1755688942.7599914,12.969,-0.221,5.08,2.827913553310992,68.61238230455652,1.2886716791979946,1,0.05
1755688942.788239,5.449,-1.526,4.125,2.8410075796273406,53.9089632367858,1.6656140350877189,1,0.05
1755688942.8166406,5.449,-1.526,4.125,2.8410075796273406,53.9089632367858,1.6656140350877189,1,0.05
1755688942.8444939,4.7,-2.026,5.508,2.850710274212376,42.89845937551961,1.7031578947368418,1,0.05
1755688942.8729334,4.7,-2.026,5.508,2.850710274212376,42.89845937551961,1.7031578947368418,1,0.05
1755688942.9009676,4.39,-3.561,7.159,2.8591483552799426,38.29430709368809,1.7186967418546364,1,0.05
1755688942.929141,4.39,-3.561,7.159,2.8591483552799426,38.29430709368809,1.7186967418546364,1,0.05
1755688942.9571848,3.84,-3.552,6.29,2.8655877787113764,39.747637129077596,1.7462656641604006,1,0.05
1755688942.9862783,3.84,-3.552,6.29,2.8655877787113764,39.747637129077596,1.7462656641604006,1,0.05
1755688943.0144508,4.738,-3.886,6.252,2.875363442679899,44.425089280052866,1.7912781954887216,1,0.05
1755688943.0428753,4.738,-3.886,6.252,2.875363442679899,44.425089280052866,1.7912781954887216,1,0.05
1755688943.0706716,4.738,-3.886,6.252,2.875363442679899,44.425089280052866,1.7912781954887216,1,0.05
1755688943.09843,4.738,-3.886,6.252,2.875363442679899,44.425089280052866,1.7912781954887216,1,0.05
1755688943.1260834,4.738,-3.886,6.252,2.875363442679899,44.425089280052866,1.7912781954887216,1,0.05
1755688943.153887,4.679,-3.778,5.643,2.8848652533523986,46.822161879975084,1.7942355889724306,1,0.05
1755688943.1823003,4.529,-3.393,6.691,2.893739299332267,40.22330840000735,1.8017543859649119,1,0.05
1755688943.2108605,7.092,-2.055,0.242,2.915384758912621,88.12281671594374,1.9302255639097743,1,0.05
1755688943.23944,9.481,-0.19,0.259,2.9536742702945427,88.43550886778844,2.049974937343358,1,0.05
1755688943.267842,9.481,-0.19,0.259,2.9536742702945427,88.43550886778844,2.049974937343358,1,0.05
1755688943.2960672,11.965,0.065,-1.894,3.0136513994654393,98.99487174477363,2.1744862155388462,1,0.05
1755688943.3251123,11.965,0.065,-1.894,3.0136513994654393,98.99487174477363,2.1744862155388462,1,0.05
1755688943.3533652,11.583,0.759,-3.018,3.0687960961914693,104.57403759561008,2.193634085213032,1,0.05
1755688943.3828106,10.708,0.697,-2.419,3.1151505003771485,102.70376643107589,2.2374937343358385,1,0.05
1755688943.4112005,10.708,0.697,-2.419,3.1151505003771485,102.70376643107589,2.2374937343358385,1,0.05
1755688943.43923,9.695,0.649,-4.41,3.152640988520577,114.41129648320027,2.2882706766917287,1,0.05
1755688943.46802,9.695,0.649,-4.41,3.152640988520577,114.41129648320027,2.2882706766917287,1,0.05
1755688943.4959676,9.695,0.649,-4.41,3.152640988520577,114.41129648320027,2.2882706766917287,1,0.05
1755688943.5235624,11.827,0.966,-2.234,3.2076221761610264,100.66187591098006,2.3951378446115283,1,0.05
1755688943.5536468,11.674,0.639,-3.058,3.2602984088883646,104.65780385318429,2.402807017543859,1,0.05
1755688943.5817394,11.674,0.639,-3.058,3.2602984088883646,104.65780385318429,2.402807017543859,1,0.05
1755688943.6099327,7.368,-0.25,1.495,3.281046216529112,78.53656705480337,2.6186466165413527,1,0.05
1755688943.6390073,7.368,-0.25,1.495,3.281046216529112,78.53656705480337,2.6186466165413527,1,0.05
1755688943.666916,6.672,-0.457,1.832,3.2979619820428496,74.68030832542779,2.653533834586466,1,0.05
1755688943.6960623,6.672,-0.457,1.832,3.2979619820428496,74.68030832542779,2.653533834586466,1,0.05
1755688943.724255,9.988,-0.757,3.17,3.3355589629026197,72.43881608186094,2.819749373433583,1,0.05
1755688943.7526724,9.988,-0.757,3.17,3.3355589629026197,72.43881608186094,2.819749373433583,1,0.05
1755688943.7805727,7.115,-1.569,3.647,3.3544763611478916,63.40961516679603,2.9637593984962405,1,0.05
1755688943.8092039,7.115,-1.569,3.647,3.3544763611478916,63.40961516679603,2.9637593984962405,1,0.05
1755688943.8373177,6.808,-1.615,3.911,3.371703399989388,60.79659560082656,2.979147869674185,1,0.05
1755688943.8657832,6.808,-1.615,3.911,3.371703399989388,60.79659560082656,2.979147869674185,1,0.05
1755688943.894292,8.651,-0.8,2.806,3.3993357174601044,72.10070980812603,3.0715288220551376,1,0.05
1755688943.923142,9.733,-0.432,2.174,3.433993526857615,77.42086690609631,3.1257644110275686,1,0.05
1755688943.951911,9.733,-0.432,2.174,3.433993526857615,77.42086690609631,3.1257644110275686,1,0.05
1755688943.9813676,10.625,0.404,1.079,3.4748436087110455,84.20548324672275,3.1704761904761902,1,0.05
1755688944.0103695,10.625,0.404,1.079,3.4748436087110455,84.20548324672275,3.1704761904761902,1,0.05
1755688944.0387418,10.573,1.149,-0.34,3.51482701245737,91.83107436369224,3.1730827067669165,1,0.05
1755688944.0676327,10.573,1.149,-0.34,3.51482701245737,91.83107436369224,3.1730827067669165,1,0.05
1755688944.0958555,10.182,1.137,-0.114,3.55150555926638,90.63750773525464,3.1926817042606515,1,0.05
1755688944.1246152,10.182,1.137,-0.114,3.55150555926638,90.63750773525464,3.1926817042606515,1,0.05
1755688944.1534514,10.699,0.764,-0.62,3.5915683537975442,93.3081386374227,3.2185964912280696,1,0.05
1755688944.1823688,10.699,0.764,-0.62,3.5915683537975442,93.3081386374227,3.2185964912280696,1,0.05
1755688944.2108192,7.635,0.24,0.756,3.611799593346785,84.34791135970733,3.3721804511278184,1,0.05
1755688944.2398572,7.635,0.24,0.756,3.611799593346785,84.34791135970733,3.3721804511278184,1,0.05
1755688944.2677827,7.237,0.168,-0.423,3.629880400922323,93.3442125116379,3.3921303258145357,1,0.05
1755688944.2963467,7.237,0.168,-0.423,3.629880400922323,93.3442125116379,3.3921303258145357,1,0.05
1755688944.3244076,7.237,0.168,-0.423,3.629880400922323,93.3442125116379,3.3921303258145357,1,0.05
1755688944.352838,7.237,0.168,-0.423,3.629880400922323,93.3442125116379,3.3921303258145357,1,0.05
1755688944.3803885,10.577,1.206,0.565,3.66820310881227,86.96193961075706,3.55954887218045,1,0.05
1755688944.4094408,10.317,1.668,1.744,3.70429686580328,80.52609154939101,3.5725814536340845,1,0.05
1755688944.4384975,9.194,0.61,0.701,3.7327120649736703,85.64942582181654,3.6288721804511272,1,0.05
1755688944.467398,10.105,1.279,0.601,3.766751507930939,86.62319204316798,3.6745363408521308,1,0.05
1755688944.4963224,10.105,1.279,0.601,3.766751507930939,86.62319204316798,3.6745363408521308,1,0.05
1755688944.524086,-7.905,-4.446,-19.454,3.787431779583627,155.00494273310812,4.577293233082707,1,0.05
1755688944.553209,-7.905,-4.446,-19.454,3.787431779583627,155.00494273310812,4.577293233082707,1,0.05
1755688944.5817487,9.516,-0.408,2.968,3.817201216205402,72.69247110616297,5.4505263157894746,1,0.05
1755688944.6103728,9.516,-0.408,2.968,3.817201216205402,72.69247110616297,5.4505263157894746,1,0.05
1755688944.6397684,10.019,-0.392,1.112,3.8499319510219916,83.67151534040212,5.475739348370928,1,0.05
1755688944.6696327,10.019,-0.392,1.112,3.8499319510219916,83.67151534040212,5.475739348370928,1,0.05
1755688944.6976454,9.655,0.067,0.587,3.880080358703928,86.52092508815949,5.493984962406015,1,0.05
1755688944.7265937,9.655,0.067,0.587,3.880080358703928,86.52092508815949,5.493984962406015,1,0.05
1755688944.7550423,9.681,-0.211,-1.214,3.9101570291357866,97.14591658471285,5.495288220551379,1,0.05
1755688944.7841184,9.681,-0.211,-1.214,3.9101570291357866,97.14591658471285,5.495288220551379,1,0.05
1755688944.8124492,9.874,-0.192,0.468,3.94120129941367,87.28688315176072,5.5049624060150375,1,0.05
1755688944.841803,9.831,-0.298,0.539,3.9717362808978143,86.86324875677559,5.5071177944862155,1,0.05
1755688944.8712575,9.831,-0.298,0.539,3.9717362808978143,86.86324875677559,5.5071177944862155,1,0.05
1755688944.9003694,9.888,-0.209,0.437,4.002389342005598,87.47002499124602,5.509974937343358,1,0.05
1755688944.9291923,9.888,-0.209,0.437,4.002389342005598,87.47002499124602,5.509974937343358,1,0.05
1755688944.9574196,9.86,-0.192,0.349,4.032638025536138,87.97321528294553,5.511378446115288,1,0.05
1755688944.9858613,9.86,-0.192,0.349,4.032638025536138,87.97321528294553,5.511378446115288,1,0.05
1755688945.0142202,9.8,-0.207,0.062,4.062298542081811,89.6376021651225,5.51438596491228,1,0.05
1755688945.0426023,9.8,-0.207,0.062,4.062298542081811,89.6376021651225,5.51438596491228,1,0.05
1755688945.0709624,9.867,-0.226,0.485,4.092146584312444,87.18669941732728,5.517744360902255,1,0.05
1755688945.1001468,9.867,-0.226,0.485,4.092146584312444,87.18669941732728,5.517744360902255,1,0.05
1755688945.1288483,9.769,-0.329,0.121,4.121194859503734,89.2907659779517,5.52265664160401,1,0.05
1755688945.157104,9.769,-0.329,0.121,4.121194859503734,89.2907659779517,5.52265664160401,1,0.05
1755688945.185563,9.817,-0.24,0.344,4.15032297448042,87.99370410441115,5.525062656641603,1,0.05
1755688945.213492,9.817,-0.24,0.344,4.15032297448042,87.99370410441115,5.525062656641603,1,0.05
1755688945.2415488,9.636,-0.255,0.582,4.178194829408988,86.54482608715374,5.534135338345863,1,0.05
1755688945.2704115,9.79,-0.219,0.323,4.206771004285829,88.1108066826255,5.541854636591477,1,0.05
1755688945.2992759,9.79,-0.219,0.323,4.206771004285829,88.1108066826255,5.541854636591477,1,0.05
1755688945.327573,9.807,-0.262,0.39,4.23525269671126,87.72350072166648,5.542706766917293,1,0.05
1755688945.356121,9.807,-0.262,0.39,4.23525269671126,87.72350072166648,5.542706766917293,1,0.05
1755688945.384121,9.802,-0.245,0.451,4.263515382287251,87.36644216974834,5.542957393483709,1,0.05
1755688945.4126532,9.802,-0.245,0.451,4.263515382287251,87.36644216974834,5.542957393483709,1,0.05
1755688945.4414117,9.905,-0.267,0.375,4.292183124879459,87.832622943309,5.548120300751879,1,0.05
1755688945.4711323,9.905,-0.267,0.375,4.292183124879459,87.832622943309,5.548120300751879,1,0.05
1755688945.5010672,9.669,-0.274,0.366,4.319324007295586,87.83309077372175,5.5599498746867155,1,0.05
1755688945.5302973,9.669,-0.274,0.366,4.319324007295586,87.83309077372175,5.5599498746867155,1,0.05
1755688945.5588717,9.669,-0.274,0.366,4.319324007295586,87.83309077372175,5.5599498746867155,1,0.05
1755688945.587044,9.914,-0.207,0.354,4.347675053404981,87.95544903150973,5.572230576441102,1,0.05
1755688945.6156282,9.705,-0.255,0.397,4.374670951340226,87.65832922895757,5.582706766917292,1,0.05
1755688945.64421,9.748,-0.226,0.413,4.401738826020917,87.57461346622271,5.58486215538847,1,0.05
1755688945.6726072,9.748,-0.226,0.413,4.401738826020917,87.57461346622271,5.58486215538847,1,0.05
1755688945.7007341,9.748,-0.226,0.413,4.401738826020917,87.57461346622271,5.58486215538847,1,0.05
1755688945.7289226,9.831,-0.279,0.492,4.429099919283827,87.13612981889577,5.589022556390976,1,0.05
1755688945.757468,9.669,-0.303,0.39,4.455406827384005,87.69135362189968,5.597142857142855,1,0.05
1755688945.7862558,9.669,-0.303,0.39,4.455406827384005,87.69135362189968,5.597142857142855,1,0.05
1755688945.8145342,9.869,-0.235,0.38,4.482649094006802,87.79557350034192,5.607167919799497,1,0.05
1755688945.8432343,9.869,-0.235,0.38,4.482649094006802,87.79557350034192,5.607167919799497,1,0.05
1755688945.8719072,9.614,-0.332,0.359,4.508349519502675,87.8627630755898,5.619949874686716,1,0.05
1755688945.9012399,9.614,-0.332,0.359,4.508349519502675,87.8627630755898,5.619949874686716,1,0.05
1755688945.9299598,9.614,-0.332,0.359,4.508349519502675,87.8627630755898,5.619949874686716,1,0.05
1755688945.958122,9.776,-0.238,0.406,4.534770206967493,87.6225605877991,5.628070175438594,1,0.05
1755688945.9870238,9.767,-0.296,0.344,4.5609896461732955,87.98376467883035,5.628521303258143,1,0.05
1755688946.0160494,9.767,-0.296,0.344,4.5609896461732955,87.98376467883035,5.628521303258143,1,0.05
1755688946.0444095,9.805,-0.219,0.276,4.587261886463428,88.38801422746278,5.630426065162905,1,0.05
1755688946.072862,9.805,-0.219,0.276,4.587261886463428,88.38801422746278,5.630426065162905,1,0.05
1755688946.1012888,9.864,-0.235,0.454,4.613698934152509,87.36551339856665,5.633383458646613,1,0.05
1755688946.1302,9.864,-0.235,0.454,4.613698934152509,87.36551339856665,5.633383458646613,1,0.05
1755688946.1584814,9.686,-0.247,0.268,4.639047784297981,88.4156136877199,5.642305764411025,1,0.05
1755688946.18725,9.686,-0.247,0.268,4.639047784297981,88.4156136877199,5.642305764411025,1,0.05
1755688946.2160556,9.848,-0.173,0.399,4.665106869622603,87.68023980198048,5.650426065162906,1,0.05
1755688946.24512,9.848,-0.173,0.399,4.665106869622603,87.68023980198048,5.650426065162906,1,0.05
1755688946.2732925,9.848,-0.173,0.399,4.665106869622603,87.68023980198048,5.650426065162906,1,0.05
1755688946.3021433,9.597,-0.276,0.295,4.689720474345992,88.24007964430075,5.6630075187969915,1,0.05
1755688946.3313825,10.084,-0.163,0.482,4.716746311547824,87.2637878061221,5.687418546365913,1,0.05
1755688946.3601348,10.084,-0.163,0.482,4.716746311547824,87.2637878061221,5.687418546365913,1,0.05
1755688946.3882632,9.776,-0.243,0.33,4.742006031997429,88.06724644310657,5.702857142857142,1,0.05
1755688946.417385,9.879,-0.187,0.466,4.767662719824044,87.29979906261806,5.708020050125312,1,0.05
1755688946.4469125,9.879,-0.187,0.466,4.767662719824044,87.29979906261806,5.708020050125312,1,0.05
1755688946.474949,9.729,-0.293,0.335,4.7924149875089075,88.02879868148509,5.715538847117792,1,0.05
1755688946.5034173,9.729,-0.293,0.335,4.7924149875089075,88.02879868148509,5.715538847117792,1,0.05
1755688946.5318635,9.738,-0.245,0.53,4.817085531989234,86.88567935753527,5.715989974937342,1,0.05
1755688946.5609224,9.738,-0.245,0.53,4.817085531989234,86.88567935753527,5.715989974937342,1,0.05
1755688946.5887377,9.795,-0.283,0.302,4.841917810640738,88.23474886480493,5.718847117794483,1,0.05
1755688946.6173441,9.705,-0.257,0.321,4.866172587105805,88.10625405579303,5.723358395989973,1,0.05
1755688946.646381,9.705,-0.257,0.321,4.866172587105805,88.10625405579303,5.723358395989973,1,0.05
1755688946.6745248,9.874,-0.231,0.387,4.891152761619698,87.75612041752609,5.731829573934836,1,0.05
1755688946.7032783,9.874,-0.231,0.387,4.891152761619698,87.75612041752609,5.731829573934836,1,0.05
1755688946.7315464,9.557,-0.267,0.437,4.914439536712198,87.38295678758564,5.747719298245613,1,0.05
1755688946.7601643,9.557,-0.267,0.437,4.914439536712198,87.38295678758564,5.747719298245613,1,0.05
1755688946.7887335,9.817,-0.214,0.423,4.938891543909422,87.53332111313732,5.760751879699248,1,0.05
1755688946.818221,9.817,-0.214,0.423,4.938891543909422,87.53332111313732,5.760751879699248,1,0.05
1755688946.847591,9.807,-0.221,0.501,4.963173662587276,87.0762734408565,5.7612531328320795,1,0.05
1755688946.8757353,9.807,-0.221,0.501,4.963173662587276,87.0762734408565,5.7612531328320795,1,0.05
1755688946.903837,9.755,-0.195,0.401,4.987082600829868,87.64653018636896,5.763859649122806,1,0.05
1755688946.932396,9.755,-0.195,0.401,4.987082600829868,87.64653018636896,5.763859649122806,1,0.05
1755688946.9604905,9.798,-0.204,0.337,5.011087195160347,88.03052763634311,5.766015037593984,1,0.05
1755688946.9894753,9.798,-0.204,0.337,5.011087195160347,88.03052763634311,5.766015037593984,1,0.05
1755688947.0182023,9.798,-0.204,0.337,5.011087195160347,88.03052763634311,5.766015037593984,1,0.05
1755688947.04697,9.7,-0.252,0.387,5.034502942446255,87.71605712955092,5.7709273182957395,1,0.05
1755688947.0750723,9.922,-0.252,0.23,5.058886743889411,88.67250316007234,5.782055137844611,1,0.05
1755688947.1039555,9.922,-0.252,0.23,5.058886743889411,88.67250316007234,5.782055137844611,1,0.05
1755688947.1328995,9.7,-0.262,0.546,5.08208225902533,86.77946914349278,5.793182957393483,1,0.05
1755688947.16172,9.836,-0.207,0.444,5.105822884462405,87.41597720428243,5.8,1,0.05
1755688947.1903486,9.836,-0.207,0.444,5.105822884462405,87.41597720428243,5.8,1,0.05
1755688947.2194982,9.836,-0.207,0.444,5.105822884462405,87.41597720428243,5.8,1,0.05
1755688947.247857,9.836,-0.207,0.444,5.105822884462405,87.41597720428243,5.8,1,0.05
1755688947.275778,9.652,-0.291,0.442,5.128579733951691,87.37923990183327,5.809223057644109,1,0.05
1755688947.3050234,9.721,-0.219,0.359,5.151560413117564,87.88554359808056,5.812681704260652,1,0.05
1755688947.333237,9.721,-0.219,0.359,5.151560413117564,87.88554359808056,5.812681704260652,1,0.05
1755688947.3616483,9.721,-0.219,0.359,5.151560413117564,87.88554359808056,5.812681704260652,1,0.05
1755688947.3899927,9.891,-0.209,0.423,5.175244379978592,87.55171807529977,5.821203007518797,1,0.05
1755688947.4181614,9.8,0.281,2.179,5.198389596067228,77.46937033866662,5.825764411027569,1,0.05
1755688947.446984,11.245,0.094,-0.737,5.228707245103707,93.74968550910785,5.898195488721805,1,0.05
1755688947.4757178,11.245,0.094,-0.737,5.228707245103707,93.74968550910785,5.898195488721805,1,0.05
1755688947.5042624,10.179,-0.202,1.188,5.2534188446667756,83.34437466475704,5.9516290726817065,1,0.05
1755688947.53274,10.179,-0.202,1.188,5.2534188446667756,83.34437466475704,5.9516290726817065,1,0.05
1755688947.5612903,10.129,-0.233,0.912,5.277774261940349,84.85640048406935,5.954135338345865,1,0.05
1755688947.5905535,8.203,-0.231,1.877,5.2936872010442775,77.11647048164713,6.050676691729324,1,0.05
1755688947.619242,8.203,-0.231,1.877,5.2936872010442775,77.11647048164713,6.050676691729324,1,0.05
1755688947.6480536,8.448,0.411,1.794,5.310512775853194,78.02464201375417,6.06295739348371,1,0.05
1755688947.6770723,8.448,0.411,1.794,5.310512775853194,78.02464201375417,6.06295739348371,1,0.05
1755688947.7058554,9.953,1.704,1.689,5.333779285366052,80.50438450104674,6.138395989974938,1,0.05
1755688947.7351367,9.953,1.704,1.689,5.333779285366052,80.50438450104674,6.138395989974938,1,0.05
1755688947.7648222,9.953,1.704,1.689,5.333779285366052,80.50438450104674,6.138395989974938,1,0.05
1755688947.7933195,10.108,1.74,-0.114,5.35767026094365,90.63680028660679,6.146165413533835,1,0.05
1755688947.8224866,11.147,1.956,0.399,5.386582371736275,87.98083221628963,6.198245614035089,1,0.05
1755688947.8512852,11.147,1.956,0.399,5.386582371736275,87.98083221628963,6.198245614035089,1,0.05
1755688947.8803017,9.774,2.045,0.644,5.408705698917256,86.30995764098105,6.267067669172932,1,0.05
1755688947.9100952,9.774,2.045,0.644,5.408705698917256,86.30995764098105,6.267067669172932,1,0.05
1755688947.9390528,11.171,1.826,1.478,5.437469580604566,82.56075055858801,6.337092731829574,1,0.05
1755688947.9681263,11.171,1.826,1.478,5.437469580604566,82.56075055858801,6.337092731829574,1,0.05
1755688947.9969442,9.011,-0.305,-0.354,5.456103989340746,92.2484397534557,6.4453634085213025,1,0.05
1755688948.0256224,9.168,-1.288,0.363,5.47532659322711,87.75462882484928,6.453233082706766,1,0.05
1755688948.0544097,9.168,-1.288,0.363,5.47532659322711,87.75462882484928,6.453233082706766,1,0.05
1755688948.082893,8.508,-2.194,-0.05,5.491827242594217,90.32604695039024,6.486315789473683,1,0.05
1755688948.112344,8.508,-2.194,-0.05,5.491827242594217,90.32604695039024,6.486315789473683,1,0.05
1755688948.1404727,8.355,-3.996,0.05,5.5076929403335475,89.69067823338565,6.493984962406014,1,0.05
1755688948.1694858,8.355,-3.996,0.05,5.5076929403335475,89.69067823338565,6.493984962406014,1,0.05
1755688948.1985404,8.184,-4.535,-0.368,5.522872999173528,92.25233645909287,6.502556390977443,1,0.05
1755688948.2273812,8.184,-4.535,-0.368,5.522872999173528,92.25233645909287,6.502556390977443,1,0.05
1755688948.2554939,7.945,-3.453,1.345,5.537141295605522,81.17475516890585,6.514536340852129,1,0.05
1755688948.284422,7.945,-3.453,1.345,5.537141295605522,81.17475516890585,6.514536340852129,1,0.05
1755688948.3129377,7.845,-2.658,1.402,5.551017365312416,80.39309892729457,6.519548872180451,1,0.05
1755688948.342101,7.845,-2.658,1.402,5.551017365312416,80.39309892729457,6.519548872180451,1,0.05
1755688948.370635,9.881,-2.189,1.245,5.572959643896589,82.9868905633392,6.621604010025061,1,0.05
1755688948.399584,9.881,-2.189,1.245,5.572959643896589,82.9868905633392,6.621604010025061,1,0.05
1755688948.4277923,10.11,-1.877,1.183,5.595838582598679,83.43715198502747,6.633082706766917,1,0.05
1755688948.4570372,10.11,-1.877,1.183,5.595838582598679,83.43715198502747,6.633082706766917,1,0.05
1755688948.4861782,9.986,-1.235,1.922,5.6180699472772675,79.18595780775445,6.639298245614035,1,0.05
1755688948.5150108,10.024,-1.033,1.803,5.640382200923977,79.85593232328995,6.641203007518797,1,0.05
1755688948.543957,10.024,-1.033,1.803,5.640382200923977,79.85593232328995,6.641203007518797,1,0.05
1755688948.5724258,9.316,-0.606,4.146,5.659583112959822,66.05388823942145,6.676691729323308,1,0.05
1755688948.6013165,9.316,-0.606,4.146,5.659583112959822,66.05388823942145,6.676691729323308,1,0.05
1755688948.6295948,8.06,-0.67,4.873,5.673913112878977,58.93051244216517,6.739649122807015,1,0.05
1755688948.6597836,8.06,-0.67,4.873,5.673913112878977,58.93051244216517,6.739649122807015,1,0.05
1755688948.688401,7.788,-0.514,5.988,5.687259654042533,52.50436030533472,6.753283208020048,1,0.05
1755688948.717587,7.788,-0.514,5.988,5.687259654042533,52.50436030533472,6.753283208020048,1,0.05
1755688948.746477,6.646,-0.716,6.534,5.696959334811861,45.65213412317135,6.810526315789473,1,0.05
1755688948.775181,6.646,-0.716,6.534,5.696959334811861,45.65213412317135,6.810526315789473,1,0.05
1755688948.8039808,6.372,-0.279,7.941,5.705861163969905,38.770965295966896,6.824260651629073,1,0.05
1755688948.8331487,6.822,-0.574,7.328,5.716047658347505,43.05279476148732,6.846817042606516,1,0.05
1755688948.8626037,6.822,-0.574,7.328,5.716047658347505,43.05279476148732,6.846817042606516,1,0.05
1755688948.8911211,8.048,-0.793,6.183,5.730194289245348,52.5998153622018,6.908270676691728,1,0.05
1755688948.92006,8.048,-0.793,6.183,5.730194289245348,52.5998153622018,6.908270676691728,1,0.05
1755688948.9492345,8.048,-0.793,6.183,5.730194289245348,52.5998153622018,6.908270676691728,1,0.05
1755688948.978097,8.927,0.005,3.79,5.74755208023381,66.99612406506232,6.952330827067669,1,0.05
1755688949.007242,8.927,0.005,3.79,5.74755208023381,66.99612406506232,6.952330827067669,1,0.05
1755688949.0364714,9.473,-0.279,0.28,5.767035567559819,88.30769541490677,6.979699248120301,1,0.05
1755688949.0662377,10.243,-0.348,-1.431,5.789732019705229,97.9485142842829,7.018295739348371,1,0.05
1755688949.0961025,10.243,-0.348,-1.431,5.789732019705229,97.9485142842829,7.018295739348371,1,0.05
1755688949.1248133,10.248,-0.091,-1.633,5.81236187964927,99.05350706599305,7.018546365914786,1,0.05
1755688949.1540542,10.248,-0.091,-1.633,5.81236187964927,99.05350706599305,7.018546365914786,1,0.05
1755688949.1821728,9.314,-0.368,-1.656,5.830988519110632,100.07395924219078,7.065363408521302,1,0.05
1755688949.211983,9.314,-0.368,-1.656,5.830988519110632,100.07395924219078,7.065363408521302,1,0.05
1755688949.240902,9.988,-0.113,-1.431,5.852335215108581,98.15287629494179,7.099147869674185,1,0.05
1755688949.2700076,9.376,-0.42,-1.126,5.871081749558594,96.84127926718254,7.12982456140351,1,0.05
1755688949.2992013,9.376,-0.42,-1.126,5.871081749558594,96.84127926718254,7.12982456140351,1,0.05
1755688949.3275259,9.376,-0.42,-1.126,5.871081749558594,96.84127926718254,7.12982456140351,1,0.05
1755688949.3562248,10.239,-0.142,-0.354,5.893360137688855,91.97994747731396,7.173082706766916,1,0.05
1755688949.3856924,8.989,-0.283,2.956,5.910473670950578,71.80515808753593,7.235739348370927,1,0.05
1755688949.414576,8.989,-0.283,2.956,5.910473670950578,71.80515808753593,7.235739348370927,1,0.05
1755688949.4440136,8.441,-0.401,4.831,5.925523202005035,60.244224669078015,7.263208020050124,1,0.05
1755688949.4733899,8.441,-0.401,4.831,5.925523202005035,60.244224669078015,7.263208020050124,1,0.05
1755688949.502296,8.274,-0.375,5.052,5.939947214201487,58.618427978822936,7.27157894736842,1,0.05
1755688949.5314963,8.274,-0.375,5.052,5.939947214201487,58.618427978822936,7.27157894736842,1,0.05
1755688949.5597277,8.274,-0.375,5.052,5.939947214201487,58.618427978822936,7.27157894736842,1,0.05
1755688949.5879834,8.05,-0.449,5.634,5.953568606936515,55.05454848271353,7.282807017543859,1,0.05
1755688949.617009,8.002,-0.668,4.543,5.966997500208962,60.50033121287236,7.285213032581454,1,0.05
1755688949.6463506,8.055,-0.175,3.664,5.980574113745268,65.54560024390501,7.287869674185463,1,0.05
1755688949.675274,8.055,-0.175,3.664,5.980574113745268,65.54560024390501,7.287869674185463,1,0.05
1755688949.704344,9.7,-0.435,0.527,6.000207640573783,86.8932998461744,7.370325814536342,1,0.05
1755688949.7333834,9.7,-0.435,0.527,6.000207640573783,86.8932998461744,7.370325814536342,1,0.05
1755688949.7623763,11.633,-0.041,0.487,6.028333804004221,87.60280339563995,7.467218045112782,1,0.05
1755688949.7911768,11.633,-0.041,0.487,6.028333804004221,87.60280339563995,7.467218045112782,1,0.05
1755688949.820356,8.589,-0.815,-0.024,6.043611151869386,90.15938363655377,7.6197994987468665,1,0.05
1755688949.8499076,8.589,-0.815,-0.024,6.043611151869386,90.15938363655377,7.6197994987468665,1,0.05
1755688949.8782184,6.908,-1.855,-0.49,6.053473128295855,93.9189445930817,7.70406015037594,1,0.05
1755688949.9079957,6.908,-1.855,-0.49,6.053473128295855,93.9189445930817,7.70406015037594,1,0.05
1755688949.9366913,11.297,0.041,-0.371,6.079769110541946,91.88093807899882,7.924060150375939,1,0.05
1755688949.9663377,9.8,-0.06,-0.259,6.0994829647684075,91.51386483801787,7.999097744360902,1,0.05
1755688949.9963746,9.8,-0.06,-0.259,6.0994829647684075,91.51386483801787,7.999097744360902,1,0.05
1755688950.0247493,9.731,-0.151,-0.126,6.118858009465492,90.74175274270465,8.002556390977444,1,0.05
1755688950.053783,9.731,-0.151,-0.126,6.118858009465492,90.74175274270465,8.002556390977444,1,0.05
1755688950.0824745,9.731,-0.151,-0.126,6.118858009465492,90.74175274270465,8.002556390977444,1,0.05
1755688950.1114516,9.845,-0.207,0.159,6.138626344916263,89.0749391088657,8.00827067669173,1,0.05
1755688950.1401713,9.726,-0.293,0.138,6.157858482662621,89.1874663468344,8.01423558897243,1,0.05
1755688950.1689413,9.726,-0.293,0.138,6.157858482662621,89.1874663468344,8.01423558897243,1,0.05
1755688950.1982746,9.817,-0.183,0.138,6.177390615381222,89.19477195941415,8.018796992481203,1,0.05
1755688950.2277849,9.817,-0.183,0.138,6.177390615381222,89.19477195941415,8.018796992481203,1,0.05
1755688950.256417,9.674,-0.286,0.245,6.1962989360585246,88.5498925531734,8.0259649122807,1,0.05
1755688950.2854984,9.674,-0.286,0.245,6.1962989360585246,88.5498925531734,8.0259649122807,1,0.05
1755688950.313914,9.674,-0.286,0.245,6.1962989360585246,88.5498925531734,8.0259649122807,1,0.05
1755688950.3429074,9.531,-0.199,0.611,6.214597364874091,86.33277875840487,8.033132832080199,1,0.05
1755688950.3716743,9.781,-0.245,0.368,6.233810256175592,87.84599691816778,8.045664160401001,1,0.05
1755688950.4009297,9.781,-0.245,0.368,6.233810256175592,87.84599691816778,8.045664160401001,1,0.05
1755688950.429263,9.819,-0.204,0.268,6.253113001737615,88.43689305362395,8.047568922305762,1,0.05
1755688950.458939,9.683,-0.322,0.333,6.271827758715955,88.03145202892443,8.05438596491228,1,0.05
1755688950.4880028,9.683,-0.322,0.333,6.271827758715955,88.03145202892443,8.05438596491228,1,0.05
1755688950.516895,9.807,-0.382,0.808,6.290967060595692,85.29358435906593,8.060601503759397,1,0.05
1755688950.546437,9.807,-0.382,0.808,6.290967060595692,85.29358435906593,8.060601503759397,1,0.05
1755688950.5753365,9.807,-0.382,0.808,6.290967060595692,85.29358435906593,8.060601503759397,1,0.05
1755688950.6042852,9.807,-0.382,0.808,6.290967060595692,85.29358435906593,8.060601503759397,1,0.05
1755688950.633032,9.652,-0.334,0.589,6.309450793650743,86.510018141532,8.068370927318295,1,0.05
1755688950.6621504,9.729,-0.372,0.644,6.32817532310855,86.21565366083973,8.072230576441102,1,0.05
1755688950.6910372,9.729,-0.372,0.644,6.32817532310855,86.21565366083973,8.072230576441102,1,0.05
1755688950.719331,10.167,-0.161,0.656,6.348560674869541,86.30871345542724,8.094185463659148,1,0.05
1755688950.7492955,12.053,-1.146,1.953,6.377100412021125,80.83672922727693,8.188721804511278,1,0.05
1755688950.77861,12.053,-1.146,1.953,6.377100412021125,80.83672922727693,8.188721804511278,1,0.05
1755688950.8078234,12.053,-1.146,1.953,6.377100412021125,80.83672922727693,8.188721804511278,1,0.05
1755688950.836438,9.447,0.38,4.225,6.394569898554554,65.92153863294546,8.319348370927319,1,0.05
1755688950.8656008,8.555,-0.428,3.621,6.408860604662891,67.0846372945335,8.36406015037594,1,0.05
1755688950.8955998,5.807,-0.377,5.361,6.415434308953682,47.346971118091425,8.501804511278195,1,0.05
1755688950.92513,5.807,-0.377,5.361,6.415434308953682,47.346971118091425,8.501804511278195,1,0.05
1755688950.9539454,7.182,-0.387,6.247,6.425476650218254,49.02394152469918,8.570726817042607,1,0.05
1755688950.983397,7.182,-0.387,6.247,6.425476650218254,49.02394152469918,8.570726817042607,1,0.05
1755688951.012111,8.222,-0.243,6.855,6.438614244734654,50.193024855075926,8.622857142857143,1,0.05
1755688951.0415797,8.222,-0.243,6.855,6.438614244734654,50.193024855075926,8.622857142857143,1,0.05
1755688951.0708346,6.593,-0.757,7.368,6.447047581257641,42.00918734236996,8.704511278195488,1,0.05
1755688951.10065,7.723,-0.363,5.938,6.458601577547574,52.47486177886875,8.761152882205513,1,0.05
1755688951.1299396,7.723,-0.363,5.938,6.458601577547574,52.47486177886875,8.761152882205513,1,0.05
1755688951.1592195,7.464,-0.449,5.432,6.46937497579944,54.0035932292073,8.774135338345864,1,0.05
1755688951.1881766,7.464,-0.449,5.432,6.46937497579944,54.0035932292073,8.774135338345864,1,0.05
1755688951.2171016,9.423,-0.235,1.383,6.486508683413598,81.65295296656305,8.87233082706767,1,0.05
1755688951.2473447,9.423,-0.235,1.383,6.486508683413598,81.65295296656305,8.87233082706767,1,0.05
1755688951.2763913,10.396,0.166,0.554,6.507302585557245,86.94999693943025,8.92110275689223,1,0.05
1755688951.3062165,10.396,0.166,0.554,6.507302585557245,86.94999693943025,8.92110275689223,1,0.05
1755688951.3348033,11.102,0.584,-0.77,6.530935840291191,93.96204210229602,8.956491228070176,1,0.05
1755688951.363825,11.102,0.584,-0.77,6.530935840291191,93.96204210229602,8.956491228070176,1,0.05
1755688951.3921287,9.917,0.329,0.325,6.549732068756706,88.12400540224434,9.015889724310778,1,0.05
1755688951.4218638,9.917,0.329,0.325,6.549732068756706,88.12400540224434,9.015889724310778,1,0.05
1755688951.450887,11.343,0.377,2.623,6.574241347486415,76.98650328248256,9.08736842105263,1,0.05
1755688951.4802654,11.343,0.377,2.623,6.574241347486415,76.98650328248256,9.08736842105263,1,0.05
1755688951.5087464,6.224,-0.211,4.12,6.581602748191355,56.51242799776775,9.343959899749374,1,0.05
1755688951.5381708,6.224,-0.211,4.12,6.581602748191355,56.51242799776775,9.343959899749374,1,0.05
1755688951.567062,6.388,-0.365,4.988,6.589348305788668,52.06117759196631,9.352180451127818,1,0.05
1755688951.5965466,6.388,-0.365,4.988,6.589348305788668,52.06117759196631,9.352180451127818,1,0.05
1755688951.625293,9.337,-0.024,4.862,6.6058655767052965,62.493002708447314,9.5,1,0.05
1755688951.654337,8.923,-0.115,3.018,6.620914577307277,71.31451622556979,9.520751879699246,1,0.05
1755688951.6835365,8.923,-0.115,3.018,6.620914577307277,71.31451622556979,9.520751879699246,1,0.05
1755688951.7135274,10.68,-0.086,2.01,6.642414157518335,79.34181799700139,9.608822055137843,1,0.05
1755688951.7437649,10.68,-0.086,2.01,6.642414157518335,79.34181799700139,9.608822055137843,1,0.05
1755688951.7732356,10.043,-0.166,0.454,6.661367762141646,87.41202418570717,9.640751879699247,1,0.05
1755688951.8035069,9.204,-0.334,0.822,6.677245277994511,84.89985061660103,9.682807017543858,1,0.05
1755688951.8325727,9.204,-0.334,0.822,6.677245277994511,84.89985061660103,9.682807017543858,1,0.05
1755688951.8614113,10.587,-0.12,0.905,6.698194975140692,85.11442093787633,9.752130325814536,1,0.05
1755688951.8904796,10.587,-0.12,0.905,6.698194975140692,85.11442093787633,9.752130325814536,1,0.05
1755688951.9200597,9.488,-0.372,-0.136,6.714973662271507,90.82058509157879,9.807218045112782,1,0.05
1755688951.950048,9.488,-0.372,-0.136,6.714973662271507,90.82058509157879,9.807218045112782,1,0.05
1755688951.9782927,9.488,-0.372,-0.136,6.714973662271507,90.82058509157879,9.807218045112782,1,0.05
1755688952.007182,9.488,-0.372,-0.136,6.714973662271507,90.82058509157879,9.807218045112782,1,0.05
1755688952.035905,9.488,-0.372,-0.136,6.714973662271507,90.82058509157879,9.807218045112782,1,0.05
1755688952.0650473,9.914,-0.216,0.321,6.733245114727371,88.14593877339333,9.82857142857143,1,0.05
1755688952.0950837,9.659,-0.286,0.371,6.7505429764945575,87.80132605856913,9.841353383458646,1,0.05
1755688952.1244676,9.776,-0.25,0.271,6.768216598004234,88.4126319523558,9.84721804511278,1,0.05
1755688952.1537461,9.793,-0.274,0.295,6.785905469427053,88.27524361763864,9.848070175438595,1,0.05
1755688952.1835139,9.7,-0.166,0.266,6.8032152722076935,88.4294196767678,9.852731829573933,1,0.05
1755688952.2121644,9.7,-0.166,0.266,6.8032152722076935,88.4294196767678,9.852731829573933,1,0.05
1755688952.2410274,9.855,-0.144,0.29,6.821036622281103,88.3146412436142,9.860501253132831,1,0.05
1755688952.2705524,9.855,-0.144,0.29,6.821036622281103,88.3146412436142,9.860501253132831,1,0.05
1755688952.2993262,9.695,-0.245,0.34,6.838239770949831,87.99212222397705,9.868521303258143,1,0.05
1755688952.3285418,9.695,-0.245,0.34,6.838239770949831,87.99212222397705,9.868521303258143,1,0.05
1755688952.357379,9.793,-0.135,0.254,6.855747974327819,88.51439965031636,9.873433583959898,1,0.05
1755688952.3861609,9.793,-0.135,0.254,6.855747974327819,88.51439965031636,9.873433583959898,1,0.05
1755688952.4151788,9.769,-0.214,0.209,6.873126194825757,88.77468312433054,9.874636591478696,1,0.05
1755688952.4448574,9.769,-0.214,0.209,6.873126194825757,88.77468312433054,9.874636591478696,1,0.05
1755688952.4735997,9.781,-0.216,0.252,6.89050314509035,88.52450405463179,9.875238095238094,1,0.05
1755688952.502566,9.781,-0.216,0.252,6.89050314509035,88.52450405463179,9.875238095238094,1,0.05
1755688952.5316885,9.836,-0.207,0.209,6.908031617798228,88.78300462881238,9.877994987468671,1,0.05
1755688952.5611427,9.836,-0.207,0.209,6.908031617798228,88.78300462881238,9.877994987468671,1,0.05
1755688952.5900035,9.605,-0.204,0.252,6.92470511249396,88.49745219282936,9.889573934837092,1,0.05
1755688952.6197636,9.974,-0.216,0.347,6.942639453766845,88.00792410597111,9.908070175438596,1,0.05
1755688952.6494584,9.974,-0.216,0.347,6.942639453766845,88.00792410597111,9.908070175438596,1,0.05
1755688952.6788464,9.7,-0.293,0.399,6.959559439001868,87.64559476237591,9.921804511278195,1,0.05
1755688952.708261,9.7,-0.293,0.399,6.959559439001868,87.64559476237591,9.921804511278195,1,0.05
1755688952.7374814,9.821,-0.235,0.273,6.976861592972875,88.408181623354,9.927869674185462,1,0.05
1755688952.7673874,9.821,-0.235,0.273,6.976861592972875,88.408181623354,9.927869674185462,1,0.05
1755688952.79637,9.81,-0.216,0.24,6.994082351352463,88.59888740776447,9.928421052631577,1,0.05
1755688952.8252435,9.81,-0.216,0.24,6.994082351352463,88.59888740776447,9.928421052631577,1,0.05
1755688952.8538837,9.874,-0.159,0.299,7.0114854080644,88.26574985313337,9.931629072681703,1,0.05
1755688952.882844,9.874,-0.159,0.299,7.0114854080644,88.26574985313337,9.931629072681703,1,0.05
1755688952.911518,9.903,-0.166,0.271,7.028947371406334,88.43268679129996,9.933082706766916,1,0.05
1755688952.94068,9.903,-0.166,0.271,7.028947371406334,88.43268679129996,9.933082706766916,1,0.05
1755688952.969564,9.647,-0.235,0.29,7.0454781720263675,88.2786513535756,9.945914786967418,1,0.05
1755688952.9987793,9.819,-0.221,0.318,7.062562889985476,88.14552567801371,9.954536340852131,1,0.05
1755688953.0282192,9.819,-0.221,0.318,7.062562889985476,88.14552567801371,9.954536340852131,1,0.05
1755688953.0580037,9.819,-0.221,0.318,7.062562889985476,88.14552567801371,9.954536340852131,1,0.05
1755688953.086833,9.817,-0.243,0.292,7.0795994447073065,88.29679965753786,9.954636591478694,1,0.05
1755688953.1161678,9.743,-0.202,0.309,7.096340142636906,88.18385883093194,9.958345864661652,1,0.05
1755688953.1460242,9.743,-0.202,0.309,7.096340142636906,88.18385883093194,9.958345864661652,1,0.05
1755688953.1746466,9.743,-0.202,0.309,7.096340142636906,88.18385883093194,9.958345864661652,1,0.05
1755688953.2040265,9.743,-0.202,0.309,7.096340142636906,88.18385883093194,9.958345864661652,1,0.05
1755688953.2334917,9.743,-0.202,0.309,7.096340142636906,88.18385883093194,9.958345864661652,1,0.05
1755688953.2631998,9.743,-0.202,0.309,7.096340142636906,88.18385883093194,9.958345864661652,1,0.05
1755688953.2923849,9.872,-0.211,0.18,7.113486091924268,88.95565807032098,9.964812030075187,1,0.05
1755688953.3221922,9.602,-0.255,0.363,7.129669023874811,87.83574794239249,9.978345864661653,1,0.05
1755688953.3517404,9.848,-0.18,0.323,7.146652233738535,88.12176911682444,9.990676691729323,1,0.05
1755688953.381,9.719,-0.283,0.33,7.163154720686968,88.05614313269447,9.997142857142856,1,0.05
1755688953.4109747,9.7,-0.247,0.328,7.1795550386148586,88.06394072571653,9.998095238095239,1,0.05
1755688953.4403932,9.69,-0.247,0.257,7.195884296075083,88.48123983115616,9.99859649122807,1,0.05
1755688953.4700332,9.69,-0.247,0.257,7.195884296075083,88.48123983115616,9.99859649122807,1,0.05
1755688953.4991822,9.726,-0.235,0.378,7.212297726279746,87.77497426468398,10.000401002506266,1,0.05
1755688953.5287611,9.726,-0.235,0.378,7.212297726279746,87.77497426468398,10.000401002506266,1,0.05
1755688953.5578558,9.881,-0.159,0.112,7.229199395161265,89.35067078649679,10.008170426065163,1,0.05
1755688953.5868895,9.85,-0.305,0.323,7.245956123590592,88.12273588520901,10.009724310776942,1,0.05
1755688953.616198,9.85,-0.305,0.323,7.245956123590592,88.12273588520901,10.009724310776942,1,0.05
1755688953.6450913,9.79,-0.283,0.328,7.262471369650967,88.08190494544287,10.012731829573935,1,0.05
1755688953.674858,9.79,-0.283,0.328,7.262471369650967,88.08190494544287,10.012731829573935,1,0.05
1755688953.7041156,9.862,-0.226,0.321,7.279192125847484,88.13621659454175,10.016340852130325,1,0.05
1755688953.733174,9.862,-0.226,0.321,7.279192125847484,88.13621659454175,10.016340852130325,1,0.05
1755688953.7621207,9.767,-0.226,0.492,7.295555066442855,87.11700711351115,10.021102756892232,1,0.05
1755688953.7917724,9.767,-0.226,0.492,7.295555066442855,87.11700711351115,10.021102756892232,1,0.05
1755688953.820837,9.833,-0.228,0.245,7.312102532787679,88.57309138176643,10.024411027568924,1,0.05
1755688953.8506837,9.833,-0.228,0.245,7.312102532787679,88.57309138176643,10.024411027568924,1,0.05
1755688953.8800726,9.802,-0.147,0.173,7.328508815577696,88.98897911711119,10.025964912280703,1,0.05
1755688953.9097788,9.802,-0.147,0.173,7.328508815577696,88.98897911711119,10.025964912280703,1,0.05
1755688953.9388576,9.802,-0.147,0.173,7.328508815577696,88.98897911711119,10.025964912280703,1,0.05
1755688953.9683115,9.707,-0.235,0.359,7.344563028696807,87.8825798291604,10.030726817042606,1,0.05
1755688953.998524,9.707,-0.235,0.359,7.344563028696807,87.8825798291604,10.030726817042606,1,0.05
1755688954.0271559,9.776,-0.291,0.178,7.360810520757888,88.9573436863376,10.034185463659147,1,0.05
1755688954.0559642,9.821,-0.163,0.359,7.377171654841711,87.90681174238637,10.036441102756891,1,0.05
1755688954.0864146,9.779,-0.173,0.285,7.393357405637847,88.33090052735443,10.038546365914787,1,0.05
1755688954.1158667,9.779,-0.173,0.285,7.393357405637847,88.33090052735443,10.038546365914787,1,0.05
1755688954.1450088,9.726,-0.291,0.399,7.40933339899751,87.6518614392439,10.041203007518797,1,0.05
1755688954.1740746,9.726,-0.291,0.399,7.40933339899751,87.6518614392439,10.041203007518797,1,0.05
1755688954.2029612,9.893,-0.168,0.287,7.425826556013815,88.33853134102756,10.049573934837094,1,0.05
1755688954.2324853,10.873,-0.11,1.998,7.44570046150797,79.58812847009752,10.098696741854635,1,0.05
1755688954.2621167,10.873,-0.11,1.998,7.44570046150797,79.58812847009752,10.098696741854635,1,0.05
1755688954.2910926,10.873,-0.11,1.998,7.44570046150797,79.58812847009752,10.098696741854635,1,0.05
1755688954.3199728,14.185,-0.166,-1.136,7.479404449887705,94.57842526010587,10.264711779448621,1,0.05
1755688954.3499072,10.632,-0.63,3.909,7.498272433367569,69.84585896377621,10.442807017543858,1,0.05
1755688954.3789577,10.632,-0.63,3.909,7.498272433367569,69.84585896377621,10.442807017543858,1,0.05
1755688954.407656,4.297,-0.483,-0.447,7.501349879021775,95.90199055055497,10.76035087719298,1,0.05
1755688954.4375758,4.297,-0.483,-0.447,7.501349879021775,95.90199055055497,10.76035087719298,1,0.05
1755688954.4669445,2.349,1.394,9.063,7.502269290687985,16.77223698292475,10.857994987468672,1,0.05
1755688954.4969976,2.349,1.394,9.063,7.502269290687985,16.77223698292475,10.857994987468672,1,0.05
1755688954.5258226,-3.311,-0.49,10.327,7.504095635884447,17.95791532187677,11.141704260651627,1,0.05
1755688954.5561216,-3.311,-0.49,10.327,7.504095635884447,17.95791532187677,11.141704260651627,1,0.05
1755688954.5852945,-3.311,-0.49,10.327,7.504095635884447,17.95791532187677,11.141704260651627,1,0.05
1755688954.6153624,-3.311,-0.49,10.327,7.504095635884447,17.95791532187677,11.141704260651627,1,0.05
1755688954.6450777,-1.05,-0.108,9.783,7.504279283348934,6.158122397505891,11.255037593984962,1,0.05
1755688954.6740704,-2.009,-0.716,12.601,7.504951549810298,9.606529830321108,11.303107769423558,1,0.05
1755688954.703777,2.123,-1.081,6.791,7.5057022048240105,19.331530545436937,11.510225563909774,2,0.05
1755688954.7336202,7.89,0.305,3.712,7.516062522192056,64.82094633591657,11.799298245614036,2,0.05
1755688954.7634392,7.89,0.305,3.712,7.516062522192056,64.82094633591657,11.799298245614036,2,0.05
1755688954.7924109,9.588,1.394,-0.007,7.531335883991631,90.04139522947685,11.884411027568923,2,0.05
1755688954.8225503,9.588,1.394,-0.007,7.531335883991631,90.04139522947685,11.884411027568923,2,0.05
1755688954.8521423,9.588,1.394,-0.007,7.531335883991631,90.04139522947685,11.884411027568923,2,0.05
1755688954.8813841,7.416,-1.081,-2.704,7.540458397040593,109.83964976204649,11.993283208020049,2,0.05
1755688954.9120748,9.099,-1.226,-2.555,7.554170526272226,105.55110495892018,12.077644110275688,2,0.05
1755688954.9417353,9.831,-0.392,-2.524,7.570146216718671,104.38810249530245,12.114335839598997,2,0.05
1755688954.9736147,9.831,-0.392,-2.524,7.570146216718671,104.38810249530245,12.114335839598997,2,0.05
1755688955.0029778,7.678,-0.606,-0.858,7.57987420426619,96.35662102815166,12.222255639097746,2,0.05
1755688955.033826,7.678,-0.606,-0.858,7.57987420426619,96.35662102815166,12.222255639097746,2,0.05
1755688955.0629566,8.52,-0.464,-1.635,7.591835677390548,100.84738514721602,12.264461152882207,2,0.05
1755688955.0928726,8.52,-0.464,-1.635,7.591835677390548,100.84738514721602,12.264461152882207,2,0.05
1755688955.1220582,10.732,0.339,0.58,7.610775815414615,86.90805659740104,12.375338345864662,2,0.05
1755688955.1513739,10.754,0.582,0.411,7.629746378648507,87.81451088325875,12.376441102756893,2,0.05
1755688955.1809437,10.754,0.582,0.411,7.629746378648507,87.81451088325875,12.376441102756893,2,0.05
1755688955.2100968,10.754,0.582,0.411,7.629746378648507,87.81451088325875,12.376441102756893,2,0.05
1755688955.2391,9.316,-2.711,2.488,7.643951821047803,75.61752819638866,12.448521303258143,2,0.05
1755688955.2691996,9.316,-2.711,2.488,7.643951821047803,75.61752819638866,12.448521303258143,2,0.05
1755688955.29901,9.736,-0.06,0.328,7.659436903748213,88.07050593748228,12.469573934837092,2,0.05
1755688955.328198,9.965,0.087,0.363,7.675625495358668,87.91386009312548,12.481052631578944,2,0.05
1755688955.3583784,9.965,0.087,0.363,7.675625495358668,87.91386009312548,12.481052631578944,2,0.05
1755688955.389112,9.485,-0.228,0.097,7.6902626618016106,89.41424437989696,12.505112781954885,2,0.05
1755688955.4186702,9.485,-0.228,0.097,7.6902626618016106,89.41424437989696,12.505112781954885,2,0.05
1755688955.4481258,9.814,-0.127,0.321,7.705902043077111,88.12677272293946,12.521604010025062,2,0.05
1755688955.4782357,9.814,-0.127,0.321,7.705902043077111,88.12677272293946,12.521604010025062,2,0.05
1755688955.507557,9.824,-0.223,0.183,7.721541538935085,88.93310099855228,12.522105263157894,2,0.05
1755688955.5375113,9.786,-0.269,0.159,7.737029031062247,89.06950863534128,12.524010025062656,2,0.05
1755688955.5670495,9.786,-0.269,0.159,7.737029031062247,89.06950863534128,12.524010025062656,2,0.05
1755688955.5968792,9.717,0.012,0.425,7.752268600222776,87.49560790588059,12.527468671679198,2,0.05
1755688955.6263762,9.717,0.012,0.425,7.752268600222776,87.49560790588059,12.527468671679198,2,0.05
1755688955.655389,9.576,-0.512,0.489,7.767040484637633,87.08088314902172,12.53453634085213,2,0.05
1755688955.6847236,9.576,-0.512,0.489,7.767040484637633,87.08088314902172,12.53453634085213,2,0.05
1755688955.7143044,16.535,1.132,7.335,7.810917580700747,66.12732535492597,12.883358395989973,2,0.05
1755688955.7438982,16.535,1.132,7.335,7.810917580700747,66.12732535492597,12.883358395989973,2,0.05
1755688955.7737641,14.747,1.115,2.454,7.845643279871957,80.57857635192131,12.972982456140349,2,0.05
1755688955.8045745,1.002,0.036,2.16,7.84580324026801,24.9001719718812,13.661954887218045,2,0.05
1755688955.834518,1.002,0.036,2.16,7.84580324026801,24.9001719718812,13.661954887218045,2,0.05
1755688955.8645048,-2.657,-0.223,8.911,7.846927908901674,16.658189160977372,13.845363408521303,2,0.05
1755688955.8949502,-2.657,-0.223,8.911,7.846927908901674,16.658189160977372,13.845363408521303,2,0.05
1755688955.9246163,-4.984,-0.279,7.485,7.850883915044217,33.69962125291024,13.962005012531327,2,0.05
1755688955.9548419,-4.984,-0.279,7.485,7.850883915044217,33.69962125291024,13.962005012531327,2,0.05
1755688955.9844263,-2.421,-1.134,10.139,7.851817073136638,14.771391901162964,14.090476190476188,2,0.05
1755688956.015075,-2.421,-1.134,10.139,7.851817073136638,14.771391901162964,14.090476190476188,2,0.05
1755688956.0450797,-4.317,0.029,10.02,7.854783419834057,23.3086993289747,14.185513784461152,2,0.05
1755688956.074537,4.452,-1.451,5.406,7.857936964146505,40.89797203290563,14.625062656641603,2,0.05
1755688956.1055233,4.452,-1.451,5.406,7.857936964146505,40.89797203290563,14.625062656641603,2,0.05
1755688956.1358216,5.218,0.502,1.991,7.86226698494143,69.20271207308487,14.66345864661654,2,0.05
1755688956.1659422,5.218,0.502,1.991,7.86226698494143,69.20271207308487,14.66345864661654,2,0.05
1755688956.196225,13.393,-0.077,-6.984,7.890733379414108,117.54014090014559,15.073233082706768,2,0.05
1755688956.2262006,13.393,-0.077,-6.984,7.890733379414108,117.54014090014559,15.073233082706768,2,0.05
1755688956.255899,9.173,-0.408,-2.906,7.904051688058472,107.56187112874916,15.284761904761904,2,0.05
1755688956.286456,9.173,-0.408,-2.906,7.904051688058472,107.56187112874916,15.284761904761904,2,0.05
1755688956.3168077,11.245,0.961,-4.263,7.924024113416112,110.69280367079308,15.388621553884713,2,0.05
1755688956.3476496,11.245,0.961,-4.263,7.924024113416112,110.69280367079308,15.388621553884713,2,0.05
1755688956.3772132,8.017,-0.002,-3.068,7.934156468869265,110.94118770939156,15.550426065162908,2,0.05
1755688956.4073398,8.894,0.322,-2.609,7.946609148718717,106.33859229020804,15.59438596491228,2,0.05
1755688956.4379766,8.894,0.322,-2.609,7.946609148718717,106.33859229020804,15.59438596491228,2,0.05
1755688956.4677627,9.407,-0.05,-1.842,7.960516697112067,101.0788489953443,15.620100250626567,2,0.05
1755688956.4985871,9.407,-0.05,-1.842,7.960516697112067,101.0788489953443,15.620100250626567,2,0.05
1755688956.5279632,17.742,-0.029,0.494,8.009792287881128,88.40509715215636,16.037894736842105,2,0.05
1755688956.5580626,9.559,-0.848,-1.212,8.024039425220941,97.19809026910131,16.448070175438595,2,0.05
1755688956.5883887,9.559,-0.848,-1.212,8.024039425220941,97.19809026910131,16.448070175438595,2,0.05
1755688956.6174574,9.531,-0.074,0.763,8.038178189117234,85.42311000671141,16.449473684210524,2,0.05
1755688956.6473112,9.531,-0.074,0.763,8.038178189117234,85.42311000671141,16.449473684210524,2,0.05
1755688956.6767163,9.783,-0.031,0.487,8.05304764188689,87.15016962972976,16.46210526315789,2,0.05
1755688956.7068362,9.783,-0.031,0.487,8.05304764188689,87.15016962972976,16.46210526315789,2,0.05
1755688956.7370021,9.731,-0.18,0.397,8.067732471085046,87.66417294299723,16.46471177944862,2,0.05
1755688956.7672007,9.731,-0.18,0.397,8.067732471085046,87.66417294299723,16.46471177944862,2,0.05
1755688956.7976894,9.75,-0.25,0.556,8.082447864044655,86.73727631644701,16.465664160401,2,0.05
1755688956.828568,9.762,-0.192,0.287,8.097172659947422,88.31633101888768,16.4662656641604,2,0.05
1755688956.8585618,9.762,-0.192,0.287,8.097172659947422,88.31633101888768,16.4662656641604,2,0.05
1755688956.8884008,9.762,-0.192,0.287,8.097172659947422,88.31633101888768,16.4662656641604,2,0.05
1755688956.9183042,9.628,-0.094,0.252,8.111470338045994,88.50077346469116,16.472982456140347,2,0.05
1755688956.9486382,9.821,-0.175,0.28,8.12632027103904,88.36717957516046,16.482656641604006,2,0.05
1755688956.9785087,9.821,-0.175,0.28,8.12632027103904,88.36717957516046,16.482656641604006,2,0.05
1755688957.0085075,9.821,-0.175,0.28,8.12632027103904,88.36717957516046,16.482656641604006,2,0.05
1755688957.0382986,9.755,-0.252,0.368,8.140944736945462,87.84030431044387,16.4859649122807,2,0.05
1755688957.0688555,9.731,-0.396,0.451,8.155471299226061,87.34861841590315,16.487167919799496,2,0.05
1755688957.0986674,9.774,-0.286,0.39,8.170100354493817,87.71598513668019,16.489323308270674,2,0.05
1755688957.1286275,9.774,-0.286,0.39,8.170100354493817,87.71598513668019,16.489323308270674,2,0.05
1755688957.1586719,9.774,-0.286,0.39,8.170100354493817,87.71598513668019,16.489323308270674,2,0.05
1755688957.1880755,10.081,-0.132,-0.098,8.185634135789359,90.5569217621335,16.504711779448623,2,0.05
1755688957.2184565,9.8,-0.156,0.392,8.200286958698458,87.70967980710415,16.5187969924812,2,0.05
1755688957.2485113,9.8,-0.156,0.392,8.200286958698458,87.70967980710415,16.5187969924812,2,0.05
1755688957.27768,9.8,-0.156,0.392,8.200286958698458,87.70967980710415,16.5187969924812,2,0.05
1755688957.3078237,9.698,-0.214,0.297,8.214611020310093,88.24629903186698,16.52390977443609,2,0.05
1755688957.3378775,9.898,-0.137,0.725,8.229505466612196,85.81113024499443,16.533934837092733,2,0.05
1755688957.368014,9.752,-0.329,0.287,8.24393801438366,88.31523770518649,16.54125313283208,2,0.05
1755688957.398261,9.752,-0.329,0.287,8.24393801438366,88.31523770518649,16.54125313283208,2,0.05
1755688957.4276292,10.775,-0.096,-0.452,8.261523197782598,92.40199457092638,16.5925313283208,2,0.05
1755688957.4583745,10.775,-0.096,-0.452,8.261523197782598,92.40199457092638,16.5925313283208,2,0.05
1755688957.488314,9.771,-0.322,-0.048,8.275955935721262,90.28131032386298,16.642857142857142,2,0.05
1755688957.5192509,9.771,-0.322,-0.048,8.275955935721262,90.28131032386298,16.642857142857142,2,0.05
1755688957.5489328,9.86,-0.192,0.309,8.290626975687665,88.20534979722872,16.647318295739346,2,0.05
1755688957.5791728,9.86,-0.192,0.309,8.290626975687665,88.20534979722872,16.647318295739346,2,0.05
1755688957.6093168,9.74,-0.223,0.387,8.304918100138014,87.72525574759348,16.653333333333332,2,0.05
1755688957.6388052,9.659,-0.231,0.406,8.318948572536076,87.59377126664751,16.65739348370927,2,0.05
1755688957.6691222,9.659,-0.231,0.406,8.318948572536076,87.59377126664751,16.65739348370927,2,0.05
1755688957.6989138,9.659,-0.231,0.406,8.318948572536076,87.59377126664751,16.65739348370927,2,0.05
1755688957.7285762,9.848,-0.204,0.285,8.333508451576682,88.34268467476815,16.6668671679198,2,0.05
1755688957.7590234,9.848,-0.204,0.285,8.333508451576682,88.34268467476815,16.6668671679198,2,0.05
1755688957.788947,9.712,-0.269,0.425,8.34764460626469,87.4952776676958,16.673684210526314,2,0.05
1755688957.8202114,9.812,-0.19,0.347,8.36204872220319,87.97496621896012,16.678696741854637,2,0.05
1755688957.850599,9.678,-0.195,0.337,8.37603832623156,88.00609982942566,16.685413533834584,2,0.05
1755688957.881121,9.678,-0.195,0.337,8.37603832623156,88.00609982942566,16.685413533834584,2,0.05
1755688957.910991,9.714,-0.274,0.328,8.390108612676,88.06687097217642,16.68721804511278,2,0.05
1755688957.941535,9.714,-0.274,0.328,8.390108612676,88.06687097217642,16.68721804511278,2,0.05
1755688957.971246,9.934,-0.216,0.254,8.40479823806021,88.53568340372446,16.698245614035084,2,0.05
1755688958.002816,9.934,-0.216,0.254,8.40479823806021,88.53568340372446,16.698245614035084,2,0.05
1755688958.0323558,9.664,-0.226,0.314,8.41867659804675,88.13952448615211,16.711779448621552,2,0.05
1755688958.062104,9.664,-0.226,0.314,8.41867659804675,88.13952448615211,16.711779448621552,2,0.05
1755688958.0919034,10.034,-0.151,0.409,8.433612426030734,87.66609930032233,16.73032581453634,2,0.05
1755688958.1228702,9.812,-0.207,0.29,8.44786996304394,88.30745542980527,16.741453634085214,2,0.05
1755688958.1529481,9.812,-0.207,0.29,8.44786996304394,88.30745542980527,16.741453634085214,2,0.05
1755688958.1823893,9.819,-0.171,0.371,8.462123776865948,87.83649972720079,16.741804511278193,2,0.05
1755688958.212203,9.819,-0.171,0.371,8.462123776865948,87.83649972720079,16.741804511278193,2,0.05
1755688958.2414258,9.883,-0.267,0.34,8.476539567388333,88.03037657114464,16.745012531328317,2,0.05
1755688958.2715335,9.883,-0.267,0.34,8.476539567388333,88.03037657114464,16.745012531328317,2,0.05
1755688958.3011236,9.74,-0.262,0.463,8.490517772050183,87.2794229098849,16.752180451127817,2,0.05
1755688958.3309958,9.74,-0.262,0.463,8.490517772050183,87.2794229098849,16.752180451127817,2,0.05
1755688958.3612576,9.829,-0.173,0.318,8.50472898686372,88.14722900896633,16.75664160401002,2,0.05
1755688958.3912184,9.595,-0.25,0.311,8.518249538637617,88.14416756347657,16.76837092731829,2,0.05
1755688958.4221349,9.595,-0.25,0.311,8.518249538637617,88.14416756347657,16.76837092731829,2,0.05
1755688958.4525547,9.876,-0.202,0.442,8.532550242600392,87.43797476366593,16.782456140350874,2,0.05
1755688958.4827952,9.876,-0.202,0.442,8.532550242600392,87.43797476366593,16.782456140350874,2,0.05
1755688958.5126777,9.731,-0.315,0.356,8.546411208513197,87.90591504051716,16.78972431077694,2,0.05
1755688958.5432503,9.731,-0.315,0.356,8.546411208513197,87.90591504051716,16.78972431077694,2,0.05
1755688958.572666,9.812,-0.163,0.278,8.560480880476284,88.37731644366733,16.79378446115288,2,0.05
1755688958.6024938,9.812,-0.163,0.278,8.560480880476284,88.37731644366733,16.79378446115288,2,0.05
1755688958.632167,9.652,-0.183,0.554,8.57407345810613,86.71556276615557,16.801804511278192,2,0.05
1755688958.6633291,9.917,-0.296,0.052,8.58839932044965,89.69970484966137,16.815087719298244,2,0.05
1755688958.6936455,9.917,-0.296,0.052,8.58839932044965,89.69970484966137,16.815087719298244,2,0.05
1755688958.723612,9.917,-0.296,0.052,8.58839932044965,89.69970484966137,16.815087719298244,2,0.05
1755688958.7535706,10.589,-0.372,0.318,8.604703376061257,88.28091787429211,16.848771929824558,2,0.05
1755688958.7831976,9.64,0.44,-3.65,8.618192628968094,110.71846864729491,16.896340852130326,2,0.05
1755688958.8140776,9.64,0.44,-3.65,8.618192628968094,110.71846864729491,16.896340852130326,2,0.05
1755688958.8436503,9.264,1.44,-8.231,8.630631403900875,131.28151504649884,16.91518796992481,2,0.05
1755688958.8741639,9.264,1.44,-8.231,8.630631403900875,131.28151504649884,16.91518796992481,2,0.05
1755688958.9038413,1.67,0.868,-5.532,8.631035319125974,161.2105829678962,17.295839598997492,2,0.05
1755688958.933565,1.67,0.868,-5.532,8.631035319125974,161.2105829678962,17.295839598997492,2,0.05
1755688958.9638026,-0.876,-1.084,-6.739,8.631146454556312,168.31523146475317,17.423458646616538,2,0.05
1755688958.9933636,-0.876,-1.084,-6.739,8.631146454556312,168.31523146475317,17.423458646616538,2,0.05
1755688959.0230343,1.355,-1.288,-11.339,8.631412351550585,170.63775448564286,17.53528822055138,2,0.05
1755688959.0535762,1.355,-1.288,-11.339,8.631412351550585,170.63775448564286,17.53528822055138,2,0.05
1755688959.083685,0.046,-0.584,-9.693,8.63141265798942,176.54146306731778,17.600902255639095,2,0.05
1755688959.1141524,0.046,-0.584,-9.693,8.63141265798942,176.54146306731778,17.600902255639095,2,0.05
1755688959.1441498,2.55,-0.865,-7.392,8.632354297785744,159.98460816446956,17.726416040100247,2,0.05
1755688959.1744046,10.475,-1.56,-2.645,8.64822841887285,104.02284442227918,18.123659147869674,2,0.05
1755688959.2048697,8.117,-0.531,-1.186,8.657746185208943,98.29535604711899,18.241854636591473,2,0.05
1755688959.235158,8.117,-0.531,-1.186,8.657746185208943,98.29535604711899,18.241854636591473,2,0.05
1755688959.2645085,8.117,-0.531,-1.186,8.657746185208943,98.29535604711899,18.241854636591473,2,0.05
1755688959.2946107,6.145,0.8,7.742,8.663196382975512,38.67449848467122,18.34070175438596,2,0.05
1755688959.3252966,2.094,-0.358,9.992,8.663829041480447,12.002836926452293,18.54375939849624,2,0.05
1755688959.3555942,2.094,-0.358,9.992,8.663829041480447,12.002836926452293,18.54375939849624,2,0.05
1755688959.3856769,3.918,-0.447,8.274,8.666043530354553,25.48262692896473,18.635187969924807,2,0.05
1755688959.4165413,4.433,-0.447,10.03,8.668877620113228,23.951525065730344,18.661002506265664,2,0.05
1755688959.4471128,4.433,-0.447,10.03,8.668877620113228,23.951525065730344,18.661002506265664,2,0.05
1755688959.4773371,5.79,-0.596,7.328,8.67371024663033,38.459942155431285,18.729022556390976,2,0.05
1755688959.507503,5.79,-0.596,7.328,8.67371024663033,38.459942155431285,18.729022556390976,2,0.05
1755688959.5377133,4.891,0.19,4.066,8.677157031251653,50.28371365597198,18.774085213032578,2,0.05
1755688959.5684352,4.891,0.19,4.066,8.677157031251653,50.28371365597198,18.774085213032578,2,0.05
1755688959.5984163,11.393,-1.098,-0.72,8.695835512905013,93.5994619185586,19.099999999999998,2,0.05
1755688959.6290338,11.393,-1.098,-0.72,8.695835512905013,93.5994619185586,19.099999999999998,2,0.05
1755688959.6586978,11.393,-1.098,-0.72,8.695835512905013,93.5994619185586,19.099999999999998,2,0.05
1755688959.68863,11.393,-1.098,-0.72,8.695835512905013,93.5994619185586,19.099999999999998,2,0.05
1755688959.7183483,11.393,-1.098,-0.72,8.695835512905013,93.5994619185586,19.099999999999998,2,0.05
1755688959.7488601,10.384,-0.37,-0.658,8.711321593621717,93.62350437526166,19.150576441102757,2,0.05
1755688959.7792683,11.111,-1.103,-2.388,8.729018255794864,102.07203217077257,19.187017543859646,2,0.05
1755688959.8103783,9.581,-0.269,-0.573,8.742153545465785,93.42120209151007,19.263709273182954,2,0.05
1755688959.841452,10.055,-0.197,-0.033,8.756597865324181,90.18800508740348,19.287468671679196,2,0.05
1755688959.872054,9.786,-0.108,-0.014,8.770257730819544,90.08196316383352,19.300952380952378,2,0.05
1755688959.9031737,9.786,-0.108,-0.014,8.770257730819544,90.08196316383352,19.300952380952378,2,0.05
1755688959.9331946,9.712,-0.252,0.342,8.783691025132885,87.98388815925732,19.304661654135337,2,0.05
1755688959.964277,9.841,-0.24,0.447,8.79746220381196,87.40005848139913,19.31112781954887,2,0.05
1755688959.9947171,9.841,-0.24,0.447,8.79746220381196,87.40005848139913,19.31112781954887,2,0.05
1755688960.0245707,9.69,-0.308,0.349,8.810793464694312,87.93833776900328,19.318696741854637,2,0.05
1755688960.0563295,9.69,-0.308,0.349,8.810793464694312,87.93833776900328,19.318696741854637,2,0.05
1755688960.0867333,9.743,-0.231,0.38,8.824250483752147,87.76708829700992,19.321353383458646,2,0.05
1755688960.118619,9.743,-0.231,0.38,8.824250483752147,87.76708829700992,19.321353383458646,2,0.05
1755688960.1494825,9.767,-0.233,0.304,8.837753239511725,88.21773869522346,19.32255639097744,2,0.05
1755688960.1800592,9.724,-0.233,0.375,8.8511170347307,87.79215145689463,19.32471177944862,2,0.05
1755688960.2101824,9.724,-0.233,0.375,8.8511170347307,87.79215145689463,19.32471177944862,2,0.05
1755688960.2403398,9.938,0.017,0.525,8.865053997156476,86.97602083376425,19.33543859649123,2,0.05
1755688960.2705429,9.938,0.017,0.525,8.865053997156476,86.97602083376425,19.33543859649123,2,0.05
1755688960.3009272,9.574,-0.283,0.399,8.877969140659367,87.61459881172836,19.353684210526314,2,0.05
1755688960.3315132,9.574,-0.283,0.399,8.877969140659367,87.61459881172836,19.353684210526314,2,0.05
1755688960.361332,9.852,-0.221,0.363,8.891624757180209,87.89040397067974,19.367619047619048,2,0.05
1755688960.3914523,9.74,-0.252,0.266,8.904951421681087,88.43616064214673,19.37323308270677,2,0.05
1755688960.421946,9.74,-0.252,0.266,8.904951421681087,88.43616064214673,19.37323308270677,2,0.05
1755688960.4524913,9.85,-0.19,0.344,8.918560201764633,88.00019497024498,19.37874686716792,2,0.05
1755688960.4829652,9.85,-0.19,0.344,8.918560201764633,88.00019497024498,19.37874686716792,2,0.05
1755688960.5131714,9.903,-0.219,0.371,8.932294755268659,87.85503289096371,19.38140350877193,2,0.05
1755688960.5433123,9.903,-0.219,0.371,8.932294755268659,87.85503289096371,19.38140350877193,2,0.05
1755688960.5733752,9.581,-0.084,0.466,8.945131552833642,87.2155531500436,19.39754385964912,2,0.05
1755688960.603748,9.581,-0.084,0.466,8.945131552833642,87.2155531500436,19.39754385964912,2,0.05
1755688960.6339607,10.458,-0.118,0.751,8.960401938947829,85.89284097400355,19.441503759398497,2,0.05
1755688960.664279,9.502,-0.341,0.943,8.97298851651444,84.33601764610367,19.48942355889724,2,0.05
1755688960.6947794,9.502,-0.341,0.943,8.97298851651444,84.33601764610367,19.48942355889724,2,0.05
1755688960.7245345,10.105,-0.428,1.851,8.98720203845446,79.628924539473,19.519649122807014,2,0.05
1755688960.7550154,10.105,-0.428,1.851,8.98720203845446,79.628924539473,19.519649122807014,2,0.05
1755688960.7853138,9.337,-0.132,3.02,8.999319385514662,72.07816795723596,19.558145363408517,2,0.05
1755688960.8159297,9.337,-0.132,3.02,8.999319385514662,72.07816795723596,19.558145363408517,2,0.05
1755688960.8468602,9.006,-0.25,3.942,9.01057819967731,66.36871559115292,19.57473684210526,2,0.05
1755688960.8772836,7.371,-0.396,4.289,9.018112252295378,59.8418271771433,19.656691729323306,2,0.05
1755688960.9078329,7.371,-0.396,4.289,9.018112252295378,59.8418271771433,19.656691729323306,2,0.05
1755688960.9375336,8.312,-0.231,4.738,9.027683642828874,60.32554206999432,19.703859649122805,2,0.05
1755688960.9683104,8.312,-0.231,4.738,9.027683642828874,60.32554206999432,19.703859649122805,2,0.05
1755688960.9979508,8.031,-0.053,3.837,9.036609671635707,64.46324453686304,19.717944862155385,2,0.05
1755688961.0284724,8.031,-0.053,3.837,9.036609671635707,64.46324453686304,19.717944862155385,2,0.05
1755688961.058505,8.622,-0.305,2.569,9.046886843964613,73.41791805204402,19.747568922305764,2,0.05
1755688961.0892522,8.622,-0.305,2.569,9.046886843964613,73.41791805204402,19.747568922305764,2,0.05
1755688961.1200125,11.216,0.389,0.967,9.06425166285116,85.07531194151349,19.877593984962406,2,0.05
1755688961.1504438,11.216,0.389,0.967,9.06425166285116,85.07531194151349,19.877593984962406,2,0.05
1755688961.1805253,10.007,-0.137,0.824,9.078050910300075,85.29318899944866,19.9381954887218,2,0.05
1755688961.2107952,10.415,0.12,0.461,9.092974699871323,87.46573450585123,19.95864661654135,2,0.30000000000000004
1755688961.2414758,10.415,0.12,0.461,9.092974699871323,87.46573450585123,19.95864661654135,2,0.30000000000000004
1755688961.2712193,9.428,-0.281,1.837,9.105185712136793,78.97911301645082,20.00812030075188,2,0.30000000000000004
1755688961.3017147,9.428,-0.281,1.837,9.105185712136793,78.97911301645082,20.00812030075188,2,0.30000000000000004
1755688961.3314173,8.582,-0.252,2.291,9.115291200093392,75.05936070423482,20.050526315789472,2,0.30000000000000004
1755688961.362103,9.256,-0.25,1.875,9.127032239589164,78.55254374129451,20.084310776942356,2,0.30000000000000004
1755688961.3924978,9.256,-0.25,1.875,9.127032239589164,78.55254374129451,20.084310776942356,2,0.30000000000000004
1755688961.4223232,10.575,-0.154,1.024,9.142335263213662,84.46975267798037,20.150426065162904,2,0.30000000000000004
1755688961.4529302,10.575,-0.154,1.024,9.142335263213662,84.46975267798037,20.150426065162904,2,0.30000000000000004
1755688961.4831877,10.286,-0.168,0.556,9.15678975159963,86.90635374704668,20.164912280701756,2,0.30000000000000004
1755688961.5134592,10.286,-0.168,0.556,9.15678975159963,86.90635374704668,20.164912280701756,2,0.30000000000000004
1755688961.5433958,10.754,-0.132,0.516,9.172563428235316,87.25313901898706,20.188370927318296,2,0.30000000000000004
1755688961.5739594,10.754,-0.132,0.516,9.172563428235316,87.25313901898706,20.188370927318296,2,0.30000000000000004
1755688961.6039796,8.586,-0.147,2.495,9.182604115118979,73.79894885269145,20.297042606516293,2,0.30000000000000004
1755688961.634616,8.586,-0.147,2.495,9.182604115118979,73.79894885269145,20.297042606516293,2,0.30000000000000004
1755688961.664296,8.184,-0.257,2.298,9.191717085234945,74.32304181212696,20.31719298245614,2,0.30000000000000004
1755688961.6947436,9.652,-0.221,1.882,9.204377531098993,78.96941177152792,20.39077694235589,2,0.30000000000000004
1755688961.7251668,9.652,-0.221,1.882,9.204377531098993,78.96941177152792,20.39077694235589,2,0.30000000000000004
1755688961.755445,10.568,-0.077,1.112,9.219532108247142,83.99341009726452,20.43669172932331,2,0.30000000000000004
1755688961.7860405,10.568,-0.077,1.112,9.219532108247142,83.99341009726452,20.43669172932331,2,0.30000000000000004
1755688961.8161726,10.744,-0.156,0.934,9.235169523890724,85.03216102192081,20.445513784461152,2,0.30000000000000004
1755688961.846576,9.485,0.041,2.474,9.247338492642086,75.38122398144365,20.508621553884712,2,0.30000000000000004
1755688961.8770885,9.485,0.041,2.474,9.247338492642086,75.38122398144365,20.508621553884712,2,0.30000000000000004
1755688961.9074235,7.609,-0.339,2.666,9.255161338410046,70.7085582997063,20.602656641604007,2,0.30000000000000004
1755688961.9376929,7.609,-0.339,2.666,9.255161338410046,70.7085582997063,20.602656641604007,2,0.30000000000000004
1755688961.9679635,10.143,-0.37,2.367,9.26904593377873,76.87279900823073,20.729674185463658,2,0.30000000000000004
1755688961.9982643,10.143,-0.37,2.367,9.26904593377873,76.87279900823073,20.729674185463658,2,0.30000000000000004
1755688962.0280924,9.953,-0.209,1.744,9.282395598389458,80.06347387716526,20.739197994987464,2,0.30000000000000004
1755688962.0586298,9.953,-0.209,1.744,9.282395598389458,80.06347387716526,20.739197994987464,2,0.30000000000000004
1755688962.0886433,10.277,-0.216,1.475,9.296607438603612,81.83421524860088,20.755438596491224,2,0.30000000000000004
1755688962.1189697,10.878,-0.07,1.359,9.312504339730532,82.87901917519906,20.78556390977443,2,1.5
1755688962.1501064,10.878,-0.07,1.359,9.312504339730532,82.87901917519906,20.78556390977443,2,1.5
1755688962.1802719,7.289,-0.36,3.248,9.31963308719823,66.00804401150329,20.965463659147865,2,1.5
1755688962.2104566,7.289,-0.36,3.248,9.31963308719823,66.00804401150329,20.965463659147865,2,1.5
1755688962.2402816,8.286,-0.228,3.205,9.3288373000069,68.86097306911947,21.01543859649123,2,1.5
1755688962.2711046,8.286,-0.228,3.205,9.3288373000069,68.86097306911947,21.01543859649123,2,1.5
1755688962.3020627,10.804,-0.108,1.228,9.344464747110987,83.51581962403813,21.141654135338346,2,1.5
1755688962.3324208,10.804,-0.108,1.228,9.344464747110987,83.51581962403813,21.141654135338346,2,1.5
1755688962.362192,11.042,-0.178,0.72,9.360760429580495,86.26976022290593,21.153583959899745,2,1.5
1755688962.3924499,9.476,-0.226,2.295,9.372743582324228,76.38936512379263,21.23208020050125,2,1.5
1755688962.4233227,9.476,-0.226,2.295,9.372743582324228,76.38936512379263,21.23208020050125,2,1.5
1755688962.4533489,7.576,-0.252,3.127,9.380395071637441,67.5827438417238,21.327318295739346,2,1.5
1755688962.4838834,7.576,-0.252,3.127,9.380395071637441,67.5827438417238,21.327318295739346,2,1.5
1755688962.5135772,10.243,-0.202,1.822,9.394365828649638,79.91577981142282,21.46100250626566,2,1.5
1755688962.5440497,10.243,-0.202,1.822,9.394365828649638,79.91577981142282,21.46100250626566,2,1.5
1755688962.5745351,10.072,-0.276,1.257,9.407854286844582,82.88882820269016,21.46957393483709,2,1.5
1755688962.6052523,10.072,-0.276,1.257,9.407854286844582,82.88882820269016,21.46957393483709,2,1.5
1755688962.6355405,10.155,-0.091,0.879,9.421546175920383,85.053100279846,21.473734335839602,2,1.5
1755688962.6655369,10.868,-0.305,0.824,9.437203818133845,85.66589135130356,21.022205513784463,2,1.5
1755688962.696245,10.868,-0.305,0.824,9.437203818133845,85.66589135130356,21.022205513784463,2,1.5
1755688962.7260797,8.644,-0.327,2.174,9.43458362316536,75.89237266777647,21.123157894736842,2,1.5
1755688962.756418,8.644,-0.327,2.174,9.43458362316536,75.89237266777647,21.123157894736842,2,1.5
1755688962.7860243,8.92,-0.255,2.31,9.432058218649841,75.48682881091035,21.128020050125315,2,1.5
1755688962.8166177,8.92,-0.255,2.31,9.432058218649841,75.48682881091035,21.128020050125315,2,1.5
1755688962.8475494,8.882,-0.31,2.267,9.429909505928464,75.69014489030148,21.127769423558895,2,1.5
1755688962.8776453,8.882,-0.31,2.267,9.429909505928464,75.69014489030148,21.127769423558895,2,1.5
1755688962.9074533,10.446,-0.002,1.091,9.431656032611665,84.03753753872199,21.20385964912281,2,1.5
1755688962.937474,11.412,-0.219,0.169,9.436080048144992,89.151726524782,21.250476190476196,2,1.5
1755688962.9679856,11.412,-0.219,0.169,9.436080048144992,89.151726524782,21.250476190476196,2,1.5
1755688962.9990144,9.69,-0.185,2.345,9.435783055078153,76.39824029887123,21.33393483709273,2,1.5
1755688963.029379,9.69,-0.185,2.345,9.435783055078153,76.39824029887123,21.33393483709273,2,1.5
1755688963.060613,7.378,-0.223,3.329,9.430108242353318,65.72460957433256,21.440852130325812,2,1.5
1755688963.0912602,7.378,-0.223,3.329,9.430108242353318,65.72460957433256,21.440852130325812,2,1.5
1755688963.1216545,8.462,-0.221,2.823,9.427171041728267,71.55669652661247,21.488471177944863,2,1.5
1755688963.152141,10.129,-0.144,1.654,9.427996167266935,80.72674480661668,21.56817042606516,2,1.5
1755688963.1823413,10.129,-0.144,1.654,9.427996167266935,80.72674480661668,21.56817042606516,2,1.5
1755688963.2118826,9.874,-0.245,1.053,9.42834462777003,83.9146312613029,21.579498746867166,2,1.5
1755688963.2422569,9.874,-0.245,1.053,9.42834462777003,83.9146312613029,21.579498746867166,2,1.5
1755688963.272014,11.309,-0.216,1.233,9.432647174574061,83.77884698445865,21.64771929824561,2,1.5
1755688963.3023455,9.757,-0.267,0.328,9.432423798791062,88.07533908304977,21.72190476190476,2,1.5
1755688963.3330667,9.757,-0.267,0.328,9.432423798791062,88.07533908304977,21.72190476190476,2,1.5
1755688963.3636687,9.707,-0.262,0.337,9.432258596963932,88.0123720119064,21.714335839599,2,1.5
1755688963.3945413,9.707,-0.262,0.337,9.432258596963932,88.0123720119064,21.714335839599,2,1.5
1755688963.4242063,9.752,-0.257,0.316,9.431683520983938,88.14470302687546,21.704010025062654,2,1.5
1755688963.454519,9.752,-0.257,0.316,9.431683520983938,88.14470302687546,21.704010025062654,2,1.5
1755688963.4845035,9.881,-0.283,-0.031,9.432099174627036,90.17968174267958,21.708922305764414,2,1.5
1755688963.5151362,9.881,-0.283,-0.031,9.432099174627036,90.17968174267958,21.708922305764414,2,1.5
1755688963.5448627,10.196,-0.13,0.295,9.433272874246775,88.34286304298881,21.720200501253128,2,1.5
1755688963.5748081,9.738,-0.175,0.195,9.433468244500535,88.85301077770796,21.73899749373433,2,1.5
1755688963.6047552,9.738,-0.175,0.195,9.433468244500535,88.85301077770796,21.73899749373433,2,1.5
1755688963.6349297,9.643,-0.538,-0.456,9.433206198318787,92.7031991111933,21.737293233082706,2,1.5
1755688963.6650486,9.643,-0.538,-0.456,9.433206198318787,92.7031991111933,21.737293233082706,2,1.5
1755688963.6949017,9.936,0.055,1.214,9.433368949108267,83.03412158484595,21.74706766917293,2,1.5
1755688963.725295,9.936,0.055,1.214,9.433368949108267,83.03412158484595,21.74706766917293,2,1.5
1755688963.7554996,9.664,-0.214,0.318,9.433080436951652,88.11578794104958,21.749924812030077,2,1.5
1755688963.7859144,9.664,-0.214,0.318,9.433080436951652,88.11578794104958,21.749924812030077,2,1.5
1755688963.816354,9.571,0.163,2.039,9.431991647048887,77.9752273776986,21.7471679197995,2,1.5
1755688963.8461788,9.771,-0.344,-0.152,9.431804488537704,90.89068315522262,21.746566416040103,2,1.5
1755688963.8763983,9.771,-0.344,-0.152,9.431804488537704,90.89068315522262,21.746566416040103,2,1.5
1755688963.9069614,10.027,-0.209,0.028,9.431729966978486,89.84003896739762,21.7403007518797,2,1.5
1755688963.937303,10.027,-0.209,0.028,9.431729966978486,89.84003896739762,21.7403007518797,2,1.5
1755688963.967274,9.938,-0.098,0.71,9.43241613214769,85.91376178335052,21.736541353383462,2,1.5
1755688963.9973454,9.938,-0.098,0.71,9.43241613214769,85.91376178335052,21.736541353383462,2,1.5
1755688964.0280159,9.938,-0.098,0.71,9.43241613214769,85.91376178335052,21.736541353383462,2,1.5
1755688964.0589113,12.072,-0.654,0.677,9.43890043596181,86.79489426509107,21.839899749373437,2,1.5
1755688964.0895345,9.631,-0.666,-0.751,9.438178404358544,94.44817139076892,21.953734335839595,2,1.5
1755688964.119829,9.631,-0.666,-0.751,9.438178404358544,94.44817139076892,21.953734335839595,2,1.5
1755688964.1501417,8.41,-0.507,-0.528,9.434980807744125,93.58595824196146,21.873533834586468,2,1.5
1755688964.1803546,8.517,-0.401,-1.388,9.423681035694067,99.24595389324132,21.694135338345863,2,1.5
1755688964.2112837,8.517,-0.401,-1.388,9.423681035694067,99.24595389324132,21.694135338345863,2,1.5
1755688964.2410421,9.385,-0.425,-0.537,9.42491622044992,93.27148898771462,21.482155388471178,2,1.5
1755688964.271188,9.385,-0.425,-0.537,9.42491622044992,93.27148898771462,21.482155388471178,2,1.5
1755688964.3011568,11.536,0.01,0.259,9.416671494880768,88.71384286708778,21.5396992481203,2,1.5
1755688964.3314543,11.536,0.01,0.259,9.416671494880768,88.71384286708778,21.5396992481203,2,1.5
1755688964.361866,8.763,0.055,1.143,9.404530294623969,82.56873676147937,21.301754385964912,2,1.5
1755688964.392566,9.128,0.072,0.026,9.411655647121817,89.83680544493622,21.282506265664153,2,1.5
1755688964.4226046,9.128,0.072,0.026,9.411655647121817,89.83680544493622,21.282506265664153,2,1.5
1755688964.4524367,10.153,0.399,-0.233,9.422406568520591,91.31362970401614,21.318345864661655,2,1.5
1755688964.482955,10.153,0.399,-0.233,9.422406568520591,91.31362970401614,21.318345864661655,2,1.5
1755688964.5133483,10.575,0.466,-0.25,9.434677623268323,91.35294543309543,21.3119298245614,2,1.5
1755688964.5443158,10.575,0.466,-0.25,9.434677623268323,91.35294543309543,21.3119298245614,2,1.5
1755688964.5744054,9.54,0.173,0.853,9.444776696936778,84.89143514997204,21.318796992481204,2,1.5
1755688964.6045196,9.175,0.192,2.027,9.45294328807171,77.54460304056741,21.334135338345863,2,1.5
1755688964.634665,9.175,0.192,2.027,9.45294328807171,77.54460304056741,21.334135338345863,2,1.5
1755688964.6651092,10.153,-0.127,-0.433,9.463673321047171,92.44185076378673,21.375639097744358,2,1.5
1755688964.6955144,10.153,-0.127,-0.433,9.463673321047171,92.44185076378673,21.375639097744358,2,1.5
1755688964.7255352,10.022,0.154,-0.114,9.474224735301565,90.65163303482034,21.2537343358396,2,1.5
1755688964.7564573,10.022,0.154,-0.114,9.474224735301565,90.65163303482034,21.2537343358396,2,1.5
1755688964.7873294,9.605,0.099,0.955,9.479759133939005,84.32219209998928,21.15488721804511,2,1.5
1755688964.8182209,8.827,-0.322,1.454,9.478180187013749,80.6522362737866,21.069373433583962,2,1.5
1755688964.8492432,8.827,-0.322,1.454,9.478180187013749,80.6522362737866,21.069373433583962,2,1.5
1755688964.879253,10.484,-0.209,0.584,9.473794500357288,86.8123269263693,21.13328320802005,2,1.5
1755688964.9096663,10.484,-0.209,0.584,9.473794500357288,86.8123269263693,21.13328320802005,2,1.5
1755688964.939768,10.484,-0.209,0.584,9.473794500357288,86.8123269263693,21.13328320802005,2,1.5
1755688964.9695032,10.134,-0.147,-0.425,9.469641619538725,92.40121259043808,21.10696741854636,2,1.5
1755688965.0006795,10.134,-0.147,-0.425,9.469641619538725,92.40121259043808,21.10696741854636,2,1.5
1755688965.0315912,10.065,-0.327,0.237,9.467878315916401,88.6518197714261,21.059649122807016,2,1.5
1755688965.0620003,9.199,-0.276,1.461,9.466640969478032,80.979558964793,20.996190476190474,2,1.5
1755688965.092818,8.634,-0.649,0.915,9.4580104309786,83.96747321451815,21.016842105263155,2,1.5
1755688965.122823,8.634,-0.649,0.915,9.4580104309786,83.96747321451815,21.016842105263155,2,1.5
1755688965.1531808,11.114,0.075,-1.084,9.456323710221643,95.57057712446507,20.925313283208016,2,1.5
1755688965.184393,11.114,0.075,-1.084,9.456323710221643,95.57057712446507,20.925313283208016,2,1.5
1755688965.215291,10.89,-0.204,-0.613,9.46482011464032,93.22122550760554,20.90165413533834,2,1.5
1755688965.2455924,10.89,-0.204,-0.613,9.46482011464032,93.22122550760554,20.90165413533834,2,1.5
1755688965.2752821,9.092,-0.274,1.371,9.469857021227934,81.42869867927993,20.825563909774434,2,1.5
1755688965.3054717,9.24,-0.334,1.768,9.46795836717188,79.17474252657725,20.688972431077687,2,1.5
1755688965.3363552,9.24,-0.334,1.768,9.46795836717188,79.17474252657725,20.688972431077687,2,1.5
1755688965.367112,9.116,-0.86,0.05,9.472245310379162,89.68713286137164,20.679799498746867,2,1.5
1755688965.3977273,9.116,-0.86,0.05,9.472245310379162,89.68713286137164,20.679799498746867,2,1.5
1755688965.4278152,10.825,-0.348,-1.319,9.481587980001029,96.94355398215214,20.673082706766916,2,0.65
1755688965.4583952,10.825,-0.348,-1.319,9.481587980001029,96.94355398215214,20.673082706766916,2,0.65
1755688965.4886305,10.604,-0.901,-0.82,9.486544321300565,94.40602982291838,20.629924812030076,2,0.65
1755688965.5193381,8.255,-0.267,1.792,9.483040519791107,77.75843672508677,20.702957393483707,2,0.65
1755688965.5501008,8.255,-0.267,1.792,9.483040519791107,77.75843672508677,20.702957393483707,2,0.65
1755688965.5797465,9.013,-0.721,0.449,9.478866828898907,87.1571245042684,20.73834586466165,2,0.65
1755688965.6100001,9.013,-0.721,0.449,9.478866828898907,87.1571245042684,20.73834586466165,2,0.65
1755688965.6404948,10.494,-0.495,-1.68,9.47864735220696,99.08545433678076,20.79298245614035,2,0.65
1755688965.6705503,10.494,-0.495,-1.68,9.47864735220696,99.08545433678076,20.79298245614035,2,0.65
1755688965.7011762,10.494,-0.495,-1.68,9.47864735220696,99.08545433678076,20.79298245614035,2,0.65
1755688965.7311442,11.216,-0.565,-1.761,9.481564715673253,98.91192228545783,20.803258145363408,2,0.65
1755688965.7618246,9.23,-0.649,0.82,9.477704374214253,84.935568228374,20.749223057644105,2,0.65
1755688965.7921097,8.746,-0.694,0.791,9.480104347131418,84.84825843042337,20.753533834586467,2,0.65
1755688965.8225086,8.746,-0.694,0.791,9.480104347131418,84.84825843042337,20.753533834586467,2,0.65
1755688965.8529098,9.54,-1.007,-0.711,9.485197520874301,94.23881482100026,20.625914786967414,2,0.65
1755688965.883515,9.54,-1.007,-0.711,9.485197520874301,94.23881482100026,20.625914786967414,2,0.65
1755688965.9137797,10.983,-0.171,-1.625,9.486351006050747,98.41518677236293,20.68521303258145,2,1.5
1755688965.9437108,10.983,-0.171,-1.625,9.486351006050747,98.41518677236293,20.68521303258145,2,1.5
1755688965.9737284,10.019,-0.531,-0.765,9.485552439895107,94.36024690587303,20.67724310776942,2,1.5
1755688966.0038195,10.019,-0.531,-0.765,9.485552439895107,94.36024690587303,20.67724310776942,2,1.5
1755688966.0341618,8.222,-0.697,1.312,9.483321370174059,80.9655091233415,20.721654135338344,2,1.5
1755688966.0644822,8.222,-0.697,1.312,9.483321370174059,80.9655091233415,20.721654135338344,2,1.5
1755688966.095672,9.085,-1.002,0.159,9.480740989500768,89.00338934922702,19.862155388471173,2,1.5
1755688966.125998,10.902,0.063,-1.982,9.488169536717816,100.30375313787209,19.08,2,0.7000000000000001
1755688966.1566741,10.902,0.063,-1.982,9.488169536717816,100.30375313787209,19.08,2,0.7000000000000001
1755688966.1863246,10.902,0.063,-1.982,9.488169536717816,100.30375313787209,19.08,2,0.7000000000000001
1755688966.2162113,11.028,-0.238,-1.749,9.492260925485562,99.00977772326532,19.061102756892225,2,0.7000000000000001
1755688966.2467191,8.861,-0.601,0.546,9.489381427548373,86.48205003630235,19.151478696741854,2,0.7000000000000001
1755688966.2771091,8.942,-0.791,0.297,9.4876346222333,88.10506869838878,19.15423558897243,2,0.7000000000000001
1755688966.3075085,8.942,-0.791,0.297,9.4876346222333,88.10506869838878,19.15423558897243,2,0.7000000000000001
1755688966.3375666,10.487,-0.348,-1.718,9.489776037662848,99.29863128102998,19.222005012531326,2,0.7000000000000001
1755688966.3678632,10.487,-0.348,-1.718,9.489776037662848,99.29863128102998,19.222005012531326,2,0.7000000000000001
1755688966.3977346,10.842,-0.418,-1.533,9.492417077067358,98.0420663282624,19.237644110275685,2,0.7000000000000001
1755688966.4279113,10.842,-0.418,-1.533,9.492417077067358,98.0420663282624,19.237644110275685,2,0.7000000000000001
1755688966.4583507,8.319,-0.521,1.105,9.488802609655234,82.44840388349898,19.36125313283208,2,0.7000000000000001
1755688966.4886365,8.319,-0.521,1.105,9.488802609655234,82.44840388349898,19.36125313283208,2,0.7000000000000001
1755688966.518961,9.144,-0.843,0.366,9.486937095027034,87.71755728321527,19.401203007518795,2,0.7000000000000001
1755688966.5489702,10.642,-0.387,-1.369,9.489049312497011,97.32555153164405,19.47328320802005,2,0.7000000000000001
1755688966.5792701,10.642,-0.387,-1.369,9.489049312497011,97.32555153164405,19.47328320802005,2,0.7000000000000001
1755688966.6097481,10.456,-0.437,-1.371,9.49079958143675,97.46361571177182,19.47924812030075,2,0.7000000000000001
1755688966.640355,10.456,-0.437,-1.371,9.49079958143675,97.46361571177182,19.47924812030075,2,0.7000000000000001
1755688966.6700778,8.997,-0.555,0.297,9.488637810297114,88.11287992848843,19.547468671679194,2,0.7000000000000001
1755688966.7006035,8.997,-0.555,0.297,9.488637810297114,88.11287992848843,19.547468671679194,2,0.7000000000000001
1755688966.7302105,9.211,-0.923,0.233,9.487242507441243,88.55818174601698,19.555789473684207,2,0.7000000000000001
1755688966.7603831,10.108,-0.569,-0.784,9.48800642034458,94.42813202259318,19.59167919799499,2,0.7000000000000001
1755688966.791046,10.108,-0.569,-0.784,9.48800642034458,94.42813202259318,19.59167919799499,2,0.7000000000000001
1755688966.82178,10.222,-0.387,-0.955,9.489539388321226,95.33362019030157,19.589674185463657,2,0.7000000000000001
1755688966.8524387,10.222,-0.387,-0.955,9.489539388321226,95.33362019030157,19.589674185463657,2,0.7000000000000001
1755688966.8826408,9.483,-0.481,-0.136,9.488759970354398,90.82059363673808,19.625864661654134,2,0.7000000000000001
1755688966.9127295,9.483,-0.481,-0.136,9.488759970354398,90.82059363673808,19.625864661654134,2,0.7000000000000001
1755688966.9432135,9.051,-0.55,0.57,9.486881687625285,86.40309051498028,19.647268170426067,2,0.7000000000000001
1755688966.9737735,9.051,-0.55,0.57,9.486881687625285,86.40309051498028,19.647268170426067,2,0.7000000000000001
1755688967.0038195,9.228,-0.673,0.059,9.485442325216047,89.63464986983162,19.650977443609023,2,0.7000000000000001
1755688967.0340054,10.723,-0.05,-1.395,9.487665696313293,97.41213938667508,19.71408521303258,2,0.7000000000000001
1755688967.0641866,10.723,-0.05,-1.395,9.487665696313293,97.41213938667508,19.71408521303258,2,0.7000000000000001
1755688967.0944242,9.514,-0.389,-0.886,9.48727394737287,95.31596119618452,19.76240601503759,2,0.7000000000000001
1755688967.1246307,9.514,-0.389,-0.886,9.48727394737287,95.31596119618452,19.76240601503759,2,0.7000000000000001
1755688967.1551676,9.383,-0.384,-0.794,9.485923791861286,94.83288358336512,19.7584962406015,2,0.7000000000000001
1755688967.1856713,9.383,-0.384,-0.794,9.485923791861286,94.83288358336512,19.7584962406015,2,0.7000000000000001
1755688967.2160847,9.712,-0.262,-0.768,9.485941702461597,94.51975668084022,19.772832080200498,2,0.7000000000000001
1755688967.2467177,9.85,-0.113,-0.941,9.486205114401649,95.4567192967014,19.775588972431073,2,0.7000000000000001
1755688967.2773063,9.85,-0.113,-0.941,9.486205114401649,95.4567192967014,19.775588972431073,2,0.7000000000000001
1755688967.307271,9.929,-0.046,-0.853,9.48646028150121,94.91016941472671,19.77142857142857,2,0.7000000000000001
1755688967.3375876,9.929,-0.046,-0.853,9.48646028150121,94.91016941472671,19.77142857142857,2,0.7000000000000001
1755688967.3675215,9.633,-0.017,-0.578,9.486368720037188,93.43374355878579,19.776240601503755,2,0.7000000000000001
1755688967.3979738,9.633,-0.017,-0.578,9.486368720037188,93.43374355878579,19.776240601503755,2,0.7000000000000001
1755688967.4282432,9.64,0.084,-0.839,9.48578002011432,94.97391290633065,19.76380952380952,2,0.7000000000000001
1755688967.4585915,9.64,0.084,-0.839,9.48578002011432,94.97391290633065,19.76380952380952,2,0.7000000000000001
1755688967.4886765,9.807,0.111,-0.894,9.486273937774515,95.20831955400028,19.76406015037594,2,0.7000000000000001
1755688967.5189984,10.0,0.389,-0.763,9.486857634775596,94.35992922030366,19.77328320802005,2,0.7000000000000001
1755688967.5491128,10.0,0.389,-0.763,9.486857634775596,94.35992922030366,19.77328320802005,2,0.7000000000000001
1755688967.5788798,9.647,0.341,-0.703,9.48655066831459,94.16532114926848,19.789072681704255,2,0.7000000000000001
1755688967.6093218,9.647,0.341,-0.703,9.48655066831459,94.16532114926848,19.789072681704255,2,0.7000000000000001
1755688967.6394782,9.745,0.493,-0.359,9.486396106135354,92.10709608959168,19.791027568922303,2,0.7000000000000001
1755688967.66995,9.745,0.493,-0.359,9.486396106135354,92.10709608959168,19.791027568922303,2,0.7000000000000001
1755688967.7008345,9.888,0.56,-0.696,9.486458570114563,94.01989416817244,19.789273182957395,2,0.7000000000000001
1755688967.7308624,9.888,0.56,-0.696,9.486458570114563,94.01989416817244,19.789273182957395,2,0.7000000000000001
1755688967.7609758,9.845,0.666,-0.54,9.48686775363713,93.13239279656773,19.783308270676688,2,0.7000000000000001
1755688967.7915733,9.845,0.666,-0.54,9.48686775363713,93.13239279656773,19.783308270676688,2,0.7000000000000001
1755688967.8216946,9.702,0.608,-0.63,9.486491660513911,93.70803546801355,19.7778947368421,2,0.7000000000000001
1755688967.851926,12.635,1.074,-1.067,9.495387094005173,94.80979578444483,19.900501253132834,2,0.7000000000000001
1755688967.8819616,12.635,1.074,-1.067,9.495387094005173,94.80979578444483,19.900501253132834,2,0.7000000000000001
1755688967.91189,12.053,-3.609,-9.431,9.501123378185339,126.85447585272735,19.914235588972428,2,0.7000000000000001
1755688967.9421568,12.053,-3.609,-9.431,9.501123378185339,126.85447585272735,19.914235588972428,2,0.7000000000000001
1755688967.973153,19.165,6.46,-9.633,9.536805705790593,115.46866613350548,20.265563909774436,2,0.7000000000000001
1755688968.0036216,19.165,6.46,-9.633,9.536805705790593,115.46866613350548,20.265563909774436,2,0.7000000000000001
1755688968.0336492,19.165,6.46,-9.633,9.536805705790593,115.46866613350548,20.265563909774436,2,0.7000000000000001
1755688968.0637743,-1.389,5.193,-1.205,9.52425848924734,102.63472869416869,21.288320802005014,2,0.7000000000000001
1755688968.0948017,3.084,-3.605,-5.019,9.51307751505789,136.61247459744501,21.51208020050125,2,0.7000000000000001
1755688968.1258633,3.084,-3.605,-5.019,9.51307751505789,136.61247459744501,21.51208020050125,2,0.7000000000000001
1755688968.1561477,8.403,-5.568,6.834,9.509894753360838,55.86453252510452,21.775839598997493,2,0.7000000000000001
1755688968.1868422,8.966,-0.408,0.943,9.507850232702449,84.0021452392531,21.799548872180452,2,0.7000000000000001
1755688968.2167404,8.966,-0.408,0.943,9.507850232702449,84.0021452392531,21.799548872180452,2,0.7000000000000001
1755688968.2470102,14.242,2.807,-4.703,9.522123444641958,107.95168470132442,22.05553884711779,2,0.7000000000000001
1755688968.2775245,8.012,-1.475,-5.522,9.517750551732274,124.13041386963036,22.3519298245614,2,0.7000000000000001
1755688968.3082225,8.012,-1.475,-5.522,9.517750551732274,124.13041386963036,22.3519298245614,2,0.7000000000000001
1755688968.3380437,7.716,-0.586,-1.243,9.513573281501541,99.12553872511597,22.353734335839597,2,0.7000000000000001
1755688968.3677227,7.716,-0.586,-1.243,9.513573281501541,99.12553872511597,22.353734335839597,2,0.7000000000000001
1755688968.3977911,10.103,-0.408,-1.98,9.51432180360219,101.07956153170105,22.47288220551378,2,0.7000000000000001
1755688968.4279368,10.103,-0.408,-1.98,9.51432180360219,101.07956153170105,22.47288220551378,2,0.7000000000000001
1755688968.457954,9.802,0.245,-0.977,9.514308922354793,95.69030717976985,22.4853634085213,2,0.7000000000000001
1755688968.4887183,9.802,0.245,-0.977,9.514308922354793,95.69030717976985,22.4853634085213,2,0.7000000000000001
1755688968.5189857,9.95,0.089,-1.3,9.514813737404427,97.44342198727186,22.490626566416037,2,0.7000000000000001
1755688968.5492976,9.996,0.173,-1.464,9.515328606385593,98.33098992421958,22.488020050125318,2,0.7000000000000001
1755688968.5794537,9.996,0.173,-1.464,9.515328606385593,98.33098992421958,22.488020050125318,2,0.7000000000000001
1755688968.6097915,9.464,0.178,-1.183,9.514734453861548,97.12376940824241,22.503558897243103,2,0.7000000000000001
1755688968.6400578,9.464,0.178,-1.183,9.514734453861548,97.12376940824241,22.503558897243103,2,0.7000000000000001
1755688968.670778,9.829,0.099,-0.727,9.514493135212195,94.22995408052968,22.510726817042602,2,0.7000000000000001
1755688968.7019231,9.829,0.099,-0.727,9.514493135212195,94.22995408052968,22.510726817042602,2,0.7000000000000001
1755688968.7320962,9.593,0.063,-0.711,9.514221919973277,94.23872374858766,22.515739348370925,2,0.7000000000000001
1755688968.7624567,9.593,0.063,-0.711,9.514221919973277,94.23872374858766,22.515739348370925,2,0.7000000000000001
1755688968.792468,9.888,-0.002,-0.708,9.514356670973607,94.09549953890645,22.52130325814536,2,0.7000000000000001
1755688968.8227625,9.919,-0.247,-0.784,9.515043168845846,94.51788106295702,22.519398496240598,2,0.7000000000000001
1755688968.8529565,9.919,-0.247,-0.784,9.515043168845846,94.51788106295702,22.519398496240598,2,0.7000000000000001
1755688968.8832555,9.752,-0.291,-0.516,9.515122472280638,93.02747750962705,22.51924812030075,2,0.7000000000000001
1755688968.9134684,9.752,-0.291,-0.516,9.515122472280638,93.02747750962705,22.51924812030075,2,0.7000000000000001
1755688968.9435673,10.236,-0.132,-0.604,9.516034636338816,93.37668053941097,22.53894736842105,2,0.7000000000000001
1755688968.9741468,9.743,-0.13,-0.525,9.515888309690274,93.0841169923807,22.49122807017544,2,0.7000000000000001
1755688969.0044403,9.743,-0.13,-0.525,9.515888309690274,93.0841169923807,22.49122807017544,2,0.7000000000000001
1755688969.0343761,9.743,-0.13,-0.525,9.515888309690274,93.0841169923807,22.49122807017544,2,0.7000000000000001
1755688969.0648875,9.743,-0.13,-0.525,9.515888309690274,93.0841169923807,22.49122807017544,2,0.7000000000000001
1755688969.0949655,9.314,-0.094,-0.492,9.510671992556572,93.02361137215435,22.459298245614033,2,0.7000000000000001
1755688969.1256397,9.619,0.214,-0.725,9.509214717840797,94.30926589193251,22.472080200501253,2,0.7000000000000001
1755688969.1563122,9.619,0.214,-0.725,9.509214717840797,94.30926589193251,22.472080200501253,2,0.7000000000000001
1755688969.186009,9.619,0.214,-0.725,9.509214717840797,94.30926589193251,22.472080200501253,2,0.7000000000000001
1755688969.2160344,9.619,0.214,-0.725,9.509214717840797,94.30926589193251,22.472080200501253,2,0.7000000000000001
1755688969.2461998,9.607,0.704,-0.071,9.507860383388053,90.42230125999892,22.37614035087719,2,0.7000000000000001
1755688969.2765412,9.452,1.226,-0.466,9.510759002703201,92.79908580969672,22.371629072681703,2,0.7000000000000001
1755688969.30762,10.115,1.569,-0.594,9.514825174957236,93.3211881326353,22.32942355889724,2,0.7000000000000001
1755688969.337764,10.096,1.742,-0.58,9.515201817486583,93.24016837547705,22.32260651629073,2,0.7000000000000001
1755688969.3679032,9.891,1.625,-1.143,9.514631688615172,96.50539069341002,22.280802005012532,2,0.7000000000000001
1755688969.3985512,9.891,1.625,-1.143,9.514631688615172,96.50539069341002,22.280802005012532,2,0.7000000000000001
1755688969.4285944,9.626,1.637,-0.288,9.510479842652524,91.6894776824889,22.225263157894734,2,0.7000000000000001
1755688969.4589443,9.626,1.637,-0.288,9.510479842652524,91.6894776824889,22.225263157894734,2,0.7000000000000001
1755688969.4888535,10.017,1.137,0.081,9.51111191554384,89.53965777806607,22.174837092731824,2,0.7000000000000001
1755688969.5190349,10.017,1.137,0.081,9.51111191554384,89.53965777806607,22.174837092731824,2,0.7000000000000001
1755688969.5489788,9.893,1.577,-0.471,9.50757331762422,92.69182627466652,22.072781954887216,2,0.7000000000000001
1755688969.5796628,9.719,1.738,-0.166,9.509316615298914,90.96323648074275,22.07363408521303,2,0.7000000000000001
1755688969.6097355,9.719,1.738,-0.166,9.509316615298914,90.96323648074275,22.07363408521303,2,0.7000000000000001
1755688969.640501,9.235,1.36,-0.834,9.509478691942057,95.10553420636953,22.064812030075185,2,0.7000000000000001
1755688969.6707757,9.235,1.36,-0.834,9.509478691942057,95.10553420636953,22.064812030075185,2,0.7000000000000001
1755688969.7010777,9.452,1.365,-0.463,9.51170702831516,92.77560643686788,22.068020050125313,2,0.7000000000000001
1755688969.730909,9.452,1.365,-0.463,9.51170702831516,92.77560643686788,22.068020050125313,2,0.7000000000000001
1755688969.7617888,11.519,1.44,-0.834,9.519967118246784,94.10923623715374,22.163057644110275,2,0.7000000000000001
1755688969.7919242,19.198,3.97,-2.483,9.559484154623616,97.21845450862877,22.53598997493734,2,0.7000000000000001
1755688969.82221,19.198,3.97,-2.483,9.559484154623616,97.21845450862877,22.53598997493734,2,0.7000000000000001
1755688969.8523407,16.223,3.194,10.379,9.58560869546113,57.88266641261521,22.680100250626563,2,0.7000000000000001
1755688969.8834505,16.223,3.194,10.379,9.58560869546113,57.88266641261521,22.680100250626563,2,0.7000000000000001
1755688969.9135373,-3.444,-4.22,-2.512,9.579127665920316,114.75789523573484,23.563859649122804,2,0.7000000000000001
1755688969.9442503,-3.444,-4.22,-2.512,9.579127665920316,114.75789523573484,23.563859649122804,2,0.7000000000000001
1755688969.9746337,-3.573,-9.065,-6.347,9.568046679442988,123.07991107760837,23.558847117794482,2,0.7000000000000001
1755688970.0053468,-3.845,-3.088,-2.205,9.55661797250994,114.09060825275463,23.566265664160397,2,0.7000000000000001
1755688970.0364356,-3.845,-3.088,-2.205,9.55661797250994,114.09060825275463,23.566265664160397,2,0.7000000000000001
1755688970.0670602,5.399,5.407,-0.368,9.547382865738653,92.75730571424884,24.027719298245618,2,0.7000000000000001
1755688970.0990336,5.399,5.407,-0.368,9.547382865738653,92.75730571424884,24.027719298245618,2,0.7000000000000001
1755688970.1292984,19.065,3.463,3.464,9.58175368643444,79.86435804474907,24.67724310776942,2,0.7000000000000001
1755688970.1605473,19.065,3.463,3.464,9.58175368643444,79.86435804474907,24.67724310776942,2,0.7000000000000001
1755688970.1912205,12.52,4.523,-5.805,9.590876397259011,113.56078625167483,24.94235588972431,2,0.7000000000000001
1755688970.221948,12.52,4.523,-5.805,9.590876397259011,113.56078625167483,24.94235588972431,2,0.7000000000000001
1755688970.2522812,11.011,3.516,-2.44,9.59820849794377,101.91989578862577,25.004360902255634,2,0.7000000000000001
1755688970.283805,8.286,2.598,-1.787,9.59925093431774,101.62838318254938,25.083709273182958,2,0.7000000000000001
1755688970.3149223,8.286,2.598,-1.787,9.59925093431774,101.62838318254938,25.083709273182958,2,0.7000000000000001
1755688970.345488,9.38,2.305,-1.416,9.604954773969528,98.34004726594482,25.124812030075187,2,0.7000000000000001
1755688970.3758206,9.38,2.305,-1.416,9.604954773969528,98.34004726594482,25.124812030075187,2,0.7000000000000001
1755688970.4062047,9.225,1.632,-2.177,9.610744082145773,103.08224916991101,25.11002506265664,2,0.7000000000000001
1755688970.4376426,9.841,2.355,0.266,9.617284741807326,88.49418118197887,25.079448621553883,2,0.7000000000000001
1755688970.4686334,9.841,2.355,0.266,9.617284741807326,88.49418118197887,25.079448621553883,2,0.7000000000000001
1755688970.4994042,10.341,1.42,-1.236,9.622763675135122,96.75312097397574,25.060451127819547,2,0.7000000000000001
1755688970.5308542,10.341,1.42,-1.236,9.622763675135122,96.75312097397574,25.060451127819547,2,0.7000000000000001
1755688970.561765,9.249,0.584,-0.076,9.623523909021062,90.46985914605233,25.087819548872183,2,0.7000000000000001
1755688970.5926678,9.249,0.584,-0.076,9.623523909021062,90.46985914605233,25.087819548872183,2,0.7000000000000001
1755688970.6230056,8.31,-0.44,-1.369,9.620837196159178,99.34209853698471,25.096290726817042,2,0.7000000000000001
1755688970.6535475,8.482,0.034,-0.143,9.616551957042608,90.96586353773777,25.104661654135338,2,0.7000000000000001
1755688970.684736,8.482,0.034,-0.143,9.616551957042608,90.96586353773777,25.104661654135338,2,0.7000000000000001
1755688970.71539,10.16,0.399,-0.808,9.616318515029544,94.54353588647643,25.141954887218045,2,0.7000000000000001
1755688970.7461514,10.16,0.399,-0.808,9.616318515029544,94.54353588647643,25.141954887218045,2,0.7000000000000001
1755688970.776469,10.029,0.296,-0.606,9.618116104258672,93.45637842108758,25.11473684210526,2,0.7000000000000001
1755688970.8088233,10.029,0.296,-0.606,9.618116104258672,93.45637842108758,25.11473684210526,2,0.7000000000000001
1755688970.8395226,10.217,0.365,-0.421,9.618717417488675,92.35808290394611,25.09348370927318,2,0.7000000000000001
1755688970.8701482,10.317,0.709,-1.055,9.621125326072828,95.82503660075358,25.055238095238092,2,0.7000000000000001
1755688970.9009857,10.317,0.709,-1.055,9.621125326072828,95.82503660075358,25.055238095238092,2,0.7000000000000001
1755688970.9319217,9.285,0.478,-0.447,9.61870509996018,92.75257532392462,25.044310776942357,2,0.7000000000000001
1755688970.9631834,9.285,0.478,-0.447,9.61870509996018,92.75257532392462,25.044310776942357,2,0.7000000000000001
1755688970.993503,9.285,0.478,-0.447,9.61870509996018,92.75257532392462,25.044310776942357,2,0.7000000000000001
1755688971.0249915,9.628,0.747,-1.003,9.620250956056188,95.92966081041155,25.034035087719293,2,0.7000000000000001
1755688971.0566278,9.953,0.678,-0.806,9.623863973347712,94.6190861264465,25.04195488721804,2,0.7000000000000001
1755688971.0877106,9.953,0.678,-0.806,9.623863973347712,94.6190861264465,25.04195488721804,2,0.7000000000000001
1755688971.1179883,9.886,0.663,-1.039,9.627665479102397,95.9863042872185,25.03408521303258,2,0.7000000000000001
1755688971.1490316,10.26,0.267,2.723,9.632917799270375,75.14118927802433,25.050426065162906,2,0.7000000000000001
1755688971.179848,10.26,0.267,2.723,9.632917799270375,75.14118927802433,25.050426065162906,2,0.7000000000000001
1755688971.2106118,10.26,0.267,2.723,9.632917799270375,75.14118927802433,25.050426065162906,2,0.7000000000000001
1755688971.242356,8.219,2.072,1.506,9.633374549969497,79.92511191367814,25.15007518796992,2,0.7000000000000001
1755688971.272875,4.915,0.815,8.744,9.628088632745339,29.673411036985456,25.233233082706764,2,0.7000000000000001
1755688971.304819,-0.187,0.014,9.524,9.615869858858323,1.1279827126610098,25.39208020050125,2,0.7000000000000001
1755688971.3362336,-0.187,0.014,9.524,9.615869858858323,1.1279827126610098,25.39208020050125,2,0.7000000000000001
1755688971.3671715,-5.537,1.483,11.567,9.602254024056018,26.361244765453137,25.507669172932324,3,0.7000000000000001
1755688971.3983479,-5.537,1.483,11.567,9.602254024056018,26.361244765453137,25.507669172932324,3,0.7000000000000001
1755688971.429222,0.127,0.2,12.387,9.592647984915322,1.095713971211327,25.707318295739352,3,0.7000000000000001
1755688971.4605367,4.324,-0.483,7.578,9.58886524269165,29.862195515384556,25.697694235588976,4,0.7000000000000001
1755688971.4921536,4.324,-0.483,7.578,9.58886524269165,29.862195515384556,25.697694235588976,4,0.7000000000000001
1755688971.523606,3.043,0.512,5.929,9.573423146529144,27.494910395174074,25.686867167919797,4,0.7000000000000001
1755688971.555246,3.043,0.512,5.929,9.573423146529144,27.494910395174074,25.686867167919797,4,0.7000000000000001
1755688971.5860279,9.914,1.656,-4.052,9.57371658409105,111.95582933360367,26.027819548872177,4,0.7000000000000001
1755688971.617355,9.914,1.656,-4.052,9.57371658409105,111.95582933360367,26.027819548872177,4,0.7000000000000001
1755688971.6478162,10.615,0.324,-4.344,9.576064634937465,112.24660944308116,26.057243107769423,4,0.7000000000000001
1755688971.6794605,8.625,1.069,-2.897,9.573122812985321,108.43495963224215,26.151027568922306,4,0.7000000000000001
1755688971.7103019,8.625,1.069,-2.897,9.573122812985321,108.43495963224215,26.151027568922306,4,0.7000000000000001
1755688971.741124,9.066,0.731,-3.543,9.571503204434505,111.28273385145422,26.168571428571425,4,0.7000000000000001
1755688971.7726393,9.066,0.731,-3.543,9.571503204434505,111.28273385145422,26.168571428571425,4,0.7000000000000001
1755688971.8033571,9.066,0.731,-3.543,9.571503204434505,111.28273385145422,26.168571428571425,4,0.7000000000000001
1755688971.833497,8.849,-0.014,-3.942,9.569143215173447,114.01170560746858,26.17228070175438,4,0.7000000000000001
1755688971.8644216,8.436,-0.279,-3.64,9.566214058994289,113.32804047940418,26.18581453634085,4,0.7000000000000001
1755688971.8952456,9.223,-0.135,-3.602,9.565459259361257,111.33082144922172,26.212731829573936,4,0.7000000000000001
1755688971.926147,9.223,-0.135,-3.602,9.565459259361257,111.33082144922172,26.212731829573936,4,0.7000000000000001
1755688971.9564178,9.261,-0.043,-3.714,9.564165214094745,111.85237875955755,26.212731829573933,4,0.7000000000000001
1755688971.9869592,9.261,-0.043,-3.714,9.564165214094745,111.85237875955755,26.212731829573933,4,0.7000000000000001
1755688972.0174906,9.137,0.212,-3.686,9.562475425458619,111.9645230864998,26.212130325814535,4,0.7000000000000001
1755688972.048398,9.137,0.212,-3.686,9.562475425458619,111.9645230864998,26.212130325814535,4,0.7000000000000001
1755688972.078773,8.832,0.014,-2.695,9.560415555821828,106.9690451203387,26.2212030075188,4,0.7000000000000001
1755688972.110262,8.46,-0.315,-2.916,9.557197888371885,109.00586774911191,26.23208020050125,4,0.7000000000000001
1755688972.1409879,8.46,-0.315,-2.916,9.557197888371885,109.00586774911191,26.23208020050125,4,0.7000000000000001
1755688972.1717777,10.739,0.281,-1.416,9.560096444074192,97.50891176897036,26.342456140350876,4,0.7000000000000001
1755688972.202732,10.739,0.281,-1.416,9.560096444074192,97.50891176897036,26.342456140350876,4,0.7000000000000001
1755688972.2334235,9.659,0.017,-0.967,9.559918991288576,95.71704470381017,26.37463659147869,4,0.7000000000000001
1755688972.2641797,9.659,0.017,-0.967,9.559918991288576,95.71704470381017,26.37463659147869,4,0.7000000000000001
1755688972.2944443,9.278,-0.079,-2.051,9.557658427015479,102.46492894572913,26.299197994987463,4,0.7000000000000001
1755688972.3251472,9.175,-0.084,-1.469,9.54966487095228,99.09599088244379,26.173734335839598,4,0.7000000000000001
1755688972.3551626,9.175,-0.084,-1.469,9.54966487095228,99.09599088244379,26.173734335839598,4,0.7000000000000001
1755688972.3854973,9.314,0.101,-1.813,9.549338255345237,101.01443429398628,26.135989974937345,4,0.7000000000000001
1755688972.4166367,9.314,0.101,-1.813,9.549338255345237,101.01443429398628,26.135989974937345,4,0.7000000000000001
1755688972.4469104,9.314,0.101,-1.813,9.549338255345237,101.01443429398628,26.135989974937345,4,0.7000000000000001
1755688972.477174,9.314,0.101,-1.813,9.549338255345237,101.01443429398628,26.135989974937345,4,0.7000000000000001
1755688972.5080774,9.314,0.101,-1.813,9.549338255345237,101.01443429398628,26.135989974937345,4,0.7000000000000001
1755688972.53873,9.566,0.339,-1.212,9.551736069558247,97.21634648664697,26.010877192982452,4,0.7000000000000001
1755688972.569457,10.0,0.598,-1.554,9.560405787413,98.8176084468629,25.963709273182953,4,0.7000000000000001
1755688972.6008413,9.879,0.702,-1.326,9.566420052062318,97.62578203948095,25.91764411027569,4,0.7000000000000001
1755688972.6320982,9.54,0.786,-1.611,9.569478481218296,99.55322257410856,25.852982456140353,4,0.7000000000000001
1755688972.6636853,9.9,0.892,-1.884,9.576600350855204,100.73226412094546,25.814385964912276,4,0.7000000000000001
1755688972.694323,9.9,0.892,-1.884,9.576600350855204,100.73226412094546,25.814385964912276,4,0.7000000000000001
1755688972.7245426,9.287,0.661,-2.056,9.5800722011893,102.45255775411694,25.83213032581454,4,0.7000000000000001
1755688972.7551808,9.287,0.661,-2.056,9.5800722011893,102.45255775411694,25.83213032581454,4,0.7000000000000001
1755688972.7853992,9.383,0.711,-2.179,9.584289585697002,103.03787851077936,25.738746867167915,4,0.7000000000000001
1755688972.8162894,9.862,0.707,-1.635,9.585393687793944,99.38965816898047,25.713984962406013,4,0.7000000000000001
1755688972.846753,9.862,0.707,-1.635,9.585393687793944,99.38965816898047,25.713984962406013,4,0.7000000000000001
1755688972.8772416,9.466,0.75,-1.78,9.58298455597211,100.61710677787923,25.698446115288217,4,0.7000000000000001
1755688972.9084837,9.466,0.75,-1.78,9.58298455597211,100.61710677787923,25.698446115288217,4,0.7000000000000001
1755688972.939967,9.752,0.673,-2.091,9.57931160104942,102.07410694638057,25.65338345864662,4,0.7000000000000001
1755688972.971204,9.154,0.606,-2.124,9.577412636902515,103.03561100340995,25.611879699248117,4,0.7000000000000001
1755688973.0025222,9.154,0.606,-2.124,9.577412636902515,103.03561100340995,25.611879699248117,4,0.7000000000000001
1755688973.0337214,9.154,0.606,-2.124,9.577412636902515,103.03561100340995,25.611879699248117,4,0.7000000000000001
1755688973.0641482,9.633,0.673,-2.36,9.57273003993636,103.73361978924201,25.379298245614034,4,0.7000000000000001
1755688973.0951726,11.331,0.675,-2.638,9.584429762901912,103.08333178966124,25.45619047619048,4,0.7000000000000001
1755688973.1257715,11.331,0.675,-2.638,9.584429762901912,103.08333178966124,25.45619047619048,4,0.7000000000000001
1755688973.1560493,13.3,0.978,-7.761,9.602161346280328,120.19780253170673,25.40706766917293,4,0.7000000000000001
1755688973.1870441,6.424,1.101,0.853,9.596182732602585,82.54378937599473,25.73097744360902,4,0.7000000000000001
1755688973.2185323,6.424,1.101,0.853,9.596182732602585,82.54378937599473,25.73097744360902,4,0.7000000000000001
1755688973.2492163,6.424,1.101,0.853,9.596182732602585,82.54378937599473,25.73097744360902,4,0.7000000000000001
1755688973.2798405,0.678,0.812,4.966,9.585865762934509,12.0252249119725,25.930927318295737,4,0.7000000000000001
1755688973.3109155,0.678,0.812,4.966,9.585865762934509,12.0252249119725,25.930927318295737,4,0.7000000000000001
1755688973.3414881,0.161,1.553,9.422,9.57098381711619,9.409003350344511,25.92491228070175,4,0.7000000000000001
1755688973.372658,-6.367,-1.509,6.233,9.563102181170082,46.39161058543326,26.210075187969924,5,0.7000000000000001
1755688973.4037707,-6.367,-1.509,6.233,9.563102181170082,46.39161058543326,26.210075187969924,5,0.7000000000000001
1755688973.4337628,-2.452,-0.817,8.283,9.552809536858778,17.329393989500552,26.336992481203005,5,0.7000000000000001
1755688973.4644594,-4.72,-1.187,12.672,9.541051023079167,21.01041107400774,26.395588972431078,5,0.7000000000000001
1755688973.495021,-4.72,-1.187,12.672,9.541051023079167,21.01041107400774,26.395588972431078,5,0.7000000000000001
1755688973.5252464,-2.552,-1.778,6.002,9.530103935687166,27.39369589064639,26.482907268170425,5,0.7000000000000001
1755688973.5566173,-2.552,-1.778,6.002,9.530103935687166,27.39369589064639,26.482907268170425,5,0.7000000000000001
1755688973.5872812,9.483,1.411,4.142,9.529007333269295,66.63442745198539,27.073383458646614,5,0.7000000000000001
1755688973.6179843,9.483,1.411,4.142,9.529007333269295,66.63442745198539,27.073383458646614,5,0.7000000000000001
1755688973.6485453,12.585,0.796,1.067,9.537541382216908,85.16347317734756,27.22300751879699,5,0.7000000000000001
1755688973.6793225,10.041,0.171,-1.884,9.538229625040488,100.62538449133054,27.349674185463655,5,0.7000000000000001
1755688973.710333,10.041,0.171,-1.884,9.538229625040488,100.62538449133054,27.349674185463655,5,0.7000000000000001
1755688973.7414048,9.702,-0.449,-4.786,9.5379971308184,116.23283013782356,27.362005012531323,5,0.7000000000000001
1755688973.773142,9.702,-0.449,-4.786,9.5379971308184,116.23283013782356,27.362005012531323,5,0.7000000000000001
1755688973.804063,9.161,-0.247,-3.044,9.536664724629885,108.374290351111,27.38135338345864,5,0.7000000000000001
1755688973.8346674,9.161,-0.247,-3.044,9.536664724629885,108.374290351111,27.38135338345864,5,0.7000000000000001
1755688973.8647466,8.887,-0.538,-3.237,9.534286466747263,109.97996530305701,27.38706766917293,5,0.7000000000000001
1755688973.8954527,9.216,-0.257,-3.225,9.533098788300686,109.27978146933502,27.398646616541352,5,0.7000000000000001
1755688973.9264433,9.216,-0.257,-3.225,9.533098788300686,109.27978146933502,27.398646616541352,5,0.7000000000000001
1755688973.9571753,9.419,-0.457,-3.051,9.532156591637593,107.9284243671998,27.407619047619047,5,0.7000000000000001
1755688973.9880004,9.419,-0.457,-3.051,9.532156591637593,107.9284243671998,27.407619047619047,5,0.7000000000000001
1755688974.0188613,9.693,-0.267,-3.156,9.531962626211875,108.02863563814745,27.420751879699246,5,0.7000000000000001
1755688974.0503225,9.693,-0.267,-3.156,9.531962626211875,108.02863563814745,27.420751879699246,5,0.7000000000000001
1755688974.0812764,9.059,-0.142,-2.685,9.530178660838422,106.50739669606727,27.449774436090223,5,0.7000000000000001
1755688974.1126077,9.454,-0.156,-3.282,9.529212105809169,109.14226580299847,27.457994987468666,5,0.7000000000000001
1755688974.1436646,9.454,-0.156,-3.282,9.529212105809169,109.14226580299847,27.457994987468666,5,0.7000000000000001
1755688974.174655,9.454,-0.156,-3.282,9.529212105809169,109.14226580299847,27.457994987468666,5,0.7000000000000001
1755688974.2054555,9.049,-0.175,-2.661,9.52785150479897,106.38389870057918,27.459799498746865,5,0.7000000000000001
1755688974.2365403,9.235,-0.235,-2.738,9.525988960207755,106.50902478560427,27.455388471177947,5,0.7000000000000001
1755688974.2669249,9.235,-0.235,-2.738,9.525988960207755,106.50902478560427,27.455388471177947,5,0.7000000000000001
1755688974.297765,9.214,-0.209,-2.859,9.524782683085217,107.23435515470159,27.45037593984962,5,0.7000000000000001
1755688974.3290617,9.755,-0.041,-2.809,9.52461312180185,106.06387954908656,27.476942355889722,5,0.7000000000000001
1755688974.3604577,9.755,-0.041,-2.809,9.52461312180185,106.06387954908656,27.476942355889722,5,0.7000000000000001
1755688974.3918335,9.495,-0.094,-2.913,9.52381501460943,107.05486221493234,27.48676691729323,5,0.7000000000000001
1755688974.4230256,9.495,-0.094,-2.913,9.52381501460943,107.05486221493234,27.48676691729323,5,0.7000000000000001
1755688974.4538603,10.289,0.115,-1.141,9.52491320406648,96.32757558549278,27.52511278195489,5,0.7000000000000001
1755688974.48453,10.289,0.115,-1.141,9.52491320406648,96.32757558549278,27.52511278195489,5,0.7000000000000001
1755688974.5151083,3.389,-0.226,3.502,9.513543573506142,44.1240629371125,27.85814536340852,5,0.7000000000000001
1755688974.5459545,3.17,-0.947,6.603,9.502629744049802,26.613137498805557,27.86050125313283,5,0.7000000000000001
1755688974.5769465,3.17,-0.947,6.603,9.502629744049802,26.613137498805557,27.86050125313283,5,0.7000000000000001
1755688974.6090436,-3.404,0.558,13.083,9.491465018109691,14.77033397924044,28.18992481203007,5,0.7000000000000001
1755688974.6395814,-3.404,0.558,13.083,9.491465018109691,14.77033397924044,28.18992481203007,5,0.7000000000000001
1755688974.670004,-4.484,-0.37,10.386,9.481415511805187,23.422373621880578,28.240350877192988,5,0.7000000000000001
1755688974.7010584,-1.928,0.118,10.08,9.469383187145823,10.847953318851703,28.362005012531323,5,0.7000000000000001
1755688974.7319348,-1.928,0.118,10.08,9.469383187145823,10.847953318851703,28.362005012531323,5,0.7000000000000001
1755688974.762176,-2.693,0.284,12.195,9.457468350859019,12.51955619301114,28.386817042606516,5,0.7000000000000001
1755688974.7939,-2.693,0.284,12.195,9.457468350859019,12.51955619301114,28.386817042606516,5,0.7000000000000001
1755688974.8243856,-1.534,-0.495,9.246,9.445585979043333,9.88918759594301,28.432581453634082,5,0.7000000000000001
1755688974.855953,-1.534,-0.495,9.246,9.445585979043333,9.88918759594301,28.432581453634082,5,0.7000000000000001
1755688974.8861542,3.785,0.209,8.887,9.43464107902362,23.100759050598107,28.692731829573933,6,0.7000000000000001
1755688974.9176385,6.827,1.228,1.25,9.428299141944956,79.78467705069622,28.844260651629074,6,0.7000000000000001
1755688974.9489076,6.827,1.228,1.25,9.428299141944956,79.78467705069622,28.844260651629074,6,0.7000000000000001
1755688974.9795792,9.309,-0.598,-5.701,9.42731369015055,121.43153720571932,28.96817042606516,6,0.7000000000000001
1755688975.0109155,9.309,-0.598,-5.701,9.42731369015055,121.43153720571932,28.96817042606516,6,0.7000000000000001
1755688975.0418146,9.502,0.3,-3.122,9.426835268132143,108.18011672606009,28.976040100250625,6,0.7000000000000001
1755688975.072521,9.502,0.3,-3.122,9.426835268132143,108.18011672606009,28.976040100250625,6,0.7000000000000001
1755688975.1033025,9.502,0.3,-3.122,9.426835268132143,108.18011672606009,28.976040100250625,6,0.7000000000000001
1755688975.1344981,9.502,0.3,-3.122,9.426835268132143,108.18011672606009,28.976040100250625,6,0.7000000000000001
1755688975.166636,9.502,0.3,-3.122,9.426835268132143,108.18011672606009,28.976040100250625,6,0.7000000000000001
1755688975.1976063,9.09,0.248,-3.324,9.425248311450474,110.07940747768757,28.988922305764405,6,0.7000000000000001
1755688975.2287333,9.173,0.075,-3.505,9.423459033311493,110.91120019738503,28.991528822055134,6,0.7000000000000001
1755688975.2594485,9.345,0.0,-3.324,9.422173128583449,109.58038291598889,28.99714285714285,6,0.7000000000000001
1755688975.2904735,9.335,0.029,-3.564,9.421018616768572,110.89621241342235,28.994035087719297,6,0.7000000000000001
1755688975.3212495,9.571,0.127,-2.928,9.420268269534578,107.00872572982676,29.001102756892227,6,0.7000000000000001
1755688975.3521245,9.571,0.127,-2.928,9.420268269534578,107.00872572982676,29.001102756892227,6,0.7000000000000001
1755688975.3827183,9.142,-0.077,-2.212,9.41869996111459,103.60141493418237,29.01929824561403,6,0.7000000000000001
1755688975.4143918,9.142,-0.077,-2.212,9.41869996111459,103.60141493418237,29.01929824561403,6,0.7000000000000001
1755688975.4450595,9.469,0.053,-2.319,9.417767470982707,103.76092725148041,29.034135338345862,6,0.7000000000000001
1755688975.4764585,9.469,0.053,-2.319,9.417767470982707,103.76092725148041,29.034135338345862,6,0.7000000000000001
1755688975.5076196,9.371,0.036,-2.222,9.41667060218207,103.33921366816581,29.034285714285712,6,0.7000000000000001
1755688975.539013,9.371,0.036,-2.222,9.41667060218207,103.33921366816581,29.034285714285712,6,0.7000000000000001
1755688975.5694132,9.466,0.142,-1.949,9.416057216133513,101.63304398619196,29.035588972431075,6,0.7000000000000001
1755688975.6015432,9.466,0.171,-2.198,9.415265314769414,103.07033539359281,29.03333333333333,6,0.7000000000000001
1755688975.633285,9.471,0.176,-2.186,9.414368828949714,102.99465853720505,29.031478696741857,6,0.7000000000000001
1755688975.6640851,9.471,0.176,-2.186,9.414368828949714,102.99465853720505,29.031478696741857,6,0.7000000000000001
1755688975.6946535,9.645,0.214,-2.243,9.41402323172723,103.08865162211514,29.037543859649123,6,0.7000000000000001
1755688975.7252328,9.645,0.214,-2.243,9.41402323172723,103.08865162211514,29.037543859649123,6,0.7000000000000001
1755688975.7555454,9.9,0.219,-2.132,9.414476656591168,102.1503557178561,29.041954887218044,6,0.7000000000000001
1755688975.7872162,9.9,0.219,-2.132,9.414476656591168,102.1503557178561,29.041954887218044,6,0.7000000000000001
1755688975.819875,9.254,0.096,-2.234,9.412852032460725,103.57134510013078,29.02521303258145,6,0.7000000000000001
1755688975.8515394,9.426,0.144,-2.124,9.408950619091376,102.69717325913523,28.86781954887218,6,0.7000000000000001
1755688975.8822818,9.426,0.144,-2.124,9.408950619091376,102.69717325913523,28.86781954887218,6,0.7000000000000001
1755688975.913188,10.036,0.063,-2.757,9.395590424768418,105.36056961923205,28.720300751879698,6,0.7000000000000001
1755688975.9443398,9.833,-0.007,0.796,9.393414746113365,85.37189119633284,28.412932330827065,6,0.7000000000000001
1755688975.974822,9.833,-0.007,0.796,9.393414746113365,85.37189119633284,28.412932330827065,6,0.7000000000000001
