timestamp,ax,ay,az,rms,tilt_now,jerk,tilt_crosses,freq
1757394000.1120713,-0.329,-0.417,9.762,0.01645,3.1144433060209153,0.01649122807017544,0,2.1
1757394000.141186,-0.326,-0.417,9.749,0.02315798998186155,3.107730229844631,0.016641604010025065,0,0.05
1757394000.1685514,-0.327,-0.417,9.75,0.028348103993036288,3.1110242305717497,0.01669172932330827,0,0.05
1757394000.1953108,-0.332,-0.414,9.755,0.03285079907703921,3.1138610702642397,0.01694235588972431,0,0.05
1757394000.2213774,-0.343,-0.404,9.75,0.037058028819676854,3.1112840514821514,0.0174937343358396,0,0.05
1757394000.2475917,-0.35,-0.395,9.745,0.040982282757308676,3.0999082157231315,0.017844611528822052,0,0.05
1757394000.2732234,-0.352,-0.395,9.742,0.04460165355679092,3.1086513117202017,0.01794486215538847,0,0.05
1757394000.2982304,-0.358,-0.381,9.74,0.04805952038878457,3.072463899725237,0.018245614035087718,0,0.05
1757394000.3234026,-0.372,-0.376,9.741,0.051533265955109035,3.1080330344768994,0.01894736842105263,0,0.05
1757394000.348469,-0.379,-0.372,9.745,0.05490701230261942,3.1192862140765163,0.019298245614035085,0,0.05
1757394000.3738108,-0.394,-0.368,9.742,0.058334123804168005,3.167556524918241,0.020050125313283207,0,0.05
1757394000.3995326,-0.414,-0.363,9.745,0.061897980580952715,3.23384211320504,0.021052631578947364,0,0.05
1757394000.424618,-0.433,-0.349,9.725,0.06557501429660538,3.272978917501509,0.022005012531328322,0,0.05
1757394000.450326,-0.442,-0.349,9.728,0.06919893424034795,3.313273015347451,0.02245614035087719,0,0.05
1757394000.4760666,-0.467,-0.347,9.724,0.07303228738030872,3.424035824539859,0.023709273182957395,0,0.05
1757394000.5019217,-0.478,-0.357,9.733,0.07684350981052336,3.5076560127380114,0.024260651629072677,0,0.05
1757394000.527327,-0.472,-0.35,9.738,0.08038585074501606,3.4531449651940385,0.024561403508771923,0,0.05
1757394000.5522847,-0.473,-0.359,9.726,0.08379264585869096,3.4937910486656065,0.02461152882205513,0,0.05
1757394000.5775418,-0.473,-0.359,9.726,0.08379264585869096,3.4937910486656065,0.02461152882205513,0,0.05
1757394000.6029983,-0.461,-0.375,9.722,0.08690517821165779,3.497873898107716,0.02521303258145362,0,0.05
1757394000.6287801,-0.461,-0.375,9.722,0.08690517821165779,3.497873898107716,0.02521303258145362,0,0.05
1757394000.6541908,-0.451,-0.379,9.725,0.08978314151331529,3.4665197143014845,0.0257142857142857,0,0.05
1757394000.6791341,-0.451,-0.379,9.725,0.08978314151331529,3.4665197143014845,0.0257142857142857,0,0.05
1757394000.7043686,-0.451,-0.379,9.725,0.08978314151331529,3.4665197143014845,0.0257142857142857,0,0.05
1757394000.729938,-0.442,-0.379,9.73,0.09246308722944524,3.4244850315841346,0.02616541353383458,0,0.05
1757394000.755482,-0.442,-0.379,9.73,0.09246308722944524,3.4244850315841346,0.02616541353383458,0,0.05
1757394000.781054,-0.434,-0.388,9.722,0.09497532574305813,3.4267666993210137,0.026566416040100245,0,0.05
1757394000.8065732,-0.434,-0.388,9.722,0.09497532574305813,3.4267666993210137,0.026566416040100245,0,0.05
1757394000.8322377,-0.419,-0.394,9.712,0.09725849577286295,3.3891267365542936,0.027318295739348367,0,0.05
1757394000.8579805,-0.419,-0.394,9.712,0.09725849577286295,3.3891267365542936,0.027318295739348367,0,0.05
1757394000.8836224,-0.396,-0.403,9.72,0.09925348860367579,3.326721128509676,0.02847117794486215,0,0.05
1757394000.9087596,-0.396,-0.403,9.72,0.09925348860367579,3.326721128509676,0.02847117794486215,0,0.05
1757394000.933751,-0.392,-0.405,9.726,0.1011702278340817,3.316683135544208,0.02867167919799498,0,0.05
1757394000.9591143,-0.392,-0.405,9.726,0.1011702278340817,3.316683135544208,0.02867167919799498,0,0.05
1757394000.9848607,-0.381,-0.413,9.704,0.1029481301432911,3.3139434878274434,0.029223057644110272,0,0.05
1757394001.0103822,-0.381,-0.413,9.704,0.1029481301432911,3.3139434878274434,0.029223057644110272,0,0.05
1757394001.0356002,-0.36,-0.414,9.715,0.10450989187631954,3.232206873031658,0.030275689223057643,0,0.05
1757394001.060683,-0.36,-0.414,9.715,0.10450989187631954,3.232206873031658,0.030275689223057643,0,0.05
1757394001.0861266,-0.343,-0.42,9.723,0.1059076956599472,3.1921443809048387,0.03112781954887218,0,0.05
1757394001.1114933,-0.343,-0.42,9.723,0.1059076956599472,3.1921443809048387,0.03112781954887218,0,0.05
1757394001.1366458,-0.343,-0.42,9.723,0.1059076956599472,3.1921443809048387,0.03112781954887218,0,0.05
1757394001.1617105,-0.325,-0.438,9.727,0.10714710682048302,3.2092980345901774,0.032030075187969916,0,0.05
1757394001.1869287,-0.325,-0.438,9.727,0.10714710682048302,3.2092980345901774,0.032030075187969916,0,0.05
1757394001.2124443,-0.327,-0.426,9.735,0.10838738395219252,3.157534470512928,0.03213032581453634,0,0.05
1757394001.2379994,-0.327,-0.426,9.735,0.10838738395219252,3.157534470512928,0.03213032581453634,0,0.05
1757394001.263578,-0.317,-0.425,9.74,0.10954016386695795,3.1158496407531175,0.03263157894736842,0,0.05
1757394001.289052,-0.317,-0.425,9.74,0.10954016386695795,3.1158496407531175,0.03263157894736842,0,0.05
1757394001.3144975,-0.322,-0.427,9.73,0.11071701540413742,3.1460520700207333,0.03288220551378446,0,0.05
1757394001.3394814,-0.322,-0.427,9.73,0.11071701540413742,3.1460520700207333,0.03288220551378446,0,0.05
1757394001.364552,-0.328,-0.423,9.742,0.11192505304890411,3.1449244286906106,0.0331829573934837,0,0.05
1757394001.3898258,-0.328,-0.423,9.742,0.11192505304890411,3.1449244286906106,0.0331829573934837,0,0.05
1757394001.4150805,-0.342,-0.412,9.747,0.1132237938774355,3.1443817245837393,0.03388471177944862,0,0.05
1757394001.4403598,-0.342,-0.412,9.747,0.1132237938774355,3.1443817245837393,0.03388471177944862,0,0.05
1757394001.4658303,-0.363,-0.418,9.746,0.11466930714014104,3.251172664422426,0.03493734335839598,0,0.05
1757394001.4907954,-0.363,-0.418,9.746,0.11466930714014104,3.251172664422426,0.03493734335839598,0,0.05
1757394001.5156856,-0.363,-0.418,9.746,0.11466930714014104,3.251172664422426,0.03493734335839598,0,0.05
1757394001.540928,-0.369,-0.417,9.748,0.11614410230399132,3.2692738181206287,0.035238095238095235,0,0.05
1757394001.5662832,-0.369,-0.417,9.748,0.11614410230399132,3.2692738181206287,0.035238095238095235,0,0.05
1757394001.591353,-0.377,-0.406,9.737,0.11766382196750197,3.256670661115104,0.0356390977443609,0,0.05
1757394001.6163585,-0.377,-0.406,9.737,0.11766382196750197,3.256670661115104,0.0356390977443609,0,0.05
1757394001.641416,-0.382,-0.401,9.744,0.11920396386026767,3.2530664155361917,0.03588972431077694,0,0.05
1757394001.666615,-0.382,-0.401,9.744,0.11920396386026767,3.2530664155361917,0.03588972431077694,0,0.05
1757394001.6916072,-0.396,-0.394,9.747,0.12083718384669513,3.280124511948689,0.03659147869674185,0,0.05
1757394001.7166574,-0.396,-0.394,9.747,0.12083718384669513,3.280124511948689,0.03659147869674185,0,0.05
1757394001.7416224,-0.411,-0.392,9.732,0.12257213182448938,3.3400293199125177,0.03734335839598997,0,0.05
1757394001.7665536,-0.411,-0.392,9.732,0.12257213182448938,3.3400293199125177,0.03734335839598997,0,0.05
1757394001.7914264,-0.432,-0.384,9.731,0.1244607869973511,3.399229123560376,0.03839598997493734,0,0.05
1757394001.8163407,-0.432,-0.384,9.731,0.1244607869973511,3.399229123560376,0.03839598997493734,0,0.05
1757394001.8411613,-0.432,-0.384,9.731,0.1244607869973511,3.399229123560376,0.03839598997493734,0,0.05
1757394001.866172,-0.443,-0.381,9.722,0.12641641507335982,3.4394027946233927,0.038947368421052626,0,0.05
1757394001.8912034,-0.443,-0.381,9.722,0.12641641507335982,3.4394027946233927,0.038947368421052626,0,0.05
1757394001.9162693,-0.46,-0.377,9.737,0.12849167288194205,3.4953732265244324,0.03979949874686716,0,0.05
1757394001.941325,-0.46,-0.377,9.737,0.12849167288194205,3.4953732265244324,0.03979949874686716,0,0.05
1757394001.9662704,-0.471,-0.371,9.728,0.13063197349806824,3.526863376822776,0.04035087719298245,0,0.05
1757394001.9913373,-0.471,-0.371,9.728,0.13063197349806824,3.526863376822776,0.04035087719298245,0,0.05
1757394002.0162225,-0.472,-0.378,9.717,0.13274664779194992,3.5610182922353117,0.04040100250626566,0,0.05
1757394002.0414653,-0.472,-0.378,9.717,0.13274664779194992,3.5610182922353117,0.04040100250626566,0,0.05
1757394002.0666416,-0.471,-0.373,9.719,0.13481941625745159,3.537401109653072,0.04045112781954886,0,0.05
1757394002.0918653,-0.471,-0.373,9.719,0.13481941625745159,3.537401109653072,0.04045112781954886,0,0.05
1757394002.1170702,-0.47,-0.371,9.729,0.13685220129760428,3.5218948064090068,0.04050125313283207,0,0.05
1757394002.1423137,-0.47,-0.371,9.729,0.13685220129760428,3.5218948064090068,0.04050125313283207,0,0.05
1757394002.1675754,-0.461,-0.372,9.723,0.13877978058780754,3.486427541430504,0.040952380952380955,0,0.05
1757394002.1929393,-0.461,-0.372,9.723,0.13877978058780754,3.486427541430504,0.040952380952380955,0,0.05
1757394002.2180107,-0.461,-0.372,9.723,0.13877978058780754,3.486427541430504,0.040952380952380955,0,0.05
1757394002.2431307,-0.465,-0.384,9.721,0.14071385859253524,3.5498972744299686,0.04115288220551379,0,0.05
1757394002.268358,-0.465,-0.384,9.721,0.14071385859253524,3.5498972744299686,0.04115288220551379,0,0.05
1757394002.2934158,-0.44,-0.39,9.712,0.14242327759183188,3.46444695622819,0.042406015037593975,0,0.05
1757394002.3186452,-0.44,-0.39,9.712,0.14242327759183188,3.46444695622819,0.042406015037593975,0,0.05
1757394002.344047,-0.435,-0.389,9.71,0.1440744685917668,3.4392934516716664,0.04265664160401003,0,0.05
1757394002.3695204,-0.435,-0.389,9.71,0.1440744685917668,3.4392934516716664,0.04265664160401003,0,0.05
1757394002.394664,-0.428,-0.39,9.727,0.14565511491190414,3.406731579358328,0.043007518796992474,0,0.05
1757394002.419842,-0.428,-0.39,9.727,0.14565511491190414,3.406731579358328,0.043007518796992474,0,0.05
1757394002.444753,-0.409,-0.392,9.721,0.14708370066054224,3.3353088102791633,0.04395989974937344,0,0.05
1757394002.4696026,-0.409,-0.392,9.721,0.14708370066054224,3.3353088102791633,0.04395989974937344,0,0.05
1757394002.494447,-0.404,-0.392,9.728,0.14846432231347706,3.3117873655305283,0.04421052631578946,0,0.05
1757394002.5195715,-0.404,-0.392,9.728,0.14846432231347706,3.3117873655305283,0.04421052631578946,0,0.05
1757394002.544779,-0.391,-0.406,9.735,0.1497459765736629,3.3137693973423255,0.04486215538847119,0,0.05
1757394002.569807,-0.391,-0.406,9.735,0.1497459765736629,3.3137693973423255,0.04486215538847119,0,0.05
1757394002.5948882,-0.391,-0.406,9.735,0.1497459765736629,3.3137693973423255,0.04486215538847119,0,0.05
1757394002.6200607,-0.37,-0.397,9.746,0.15088441768453095,3.1871114825383176,0.04591478696741855,0,0.05
1757394002.6453032,-0.37,-0.397,9.746,0.15088441768453095,3.1871114825383176,0.04591478696741855,0,0.05
1757394002.670193,-0.356,-0.411,9.745,0.15193073257244566,3.1936313201962454,0.04661654135338346,0,0.05
1757394002.695199,-0.356,-0.411,9.745,0.15193073257244566,3.1936313201962454,0.04661654135338346,0,0.05
1757394002.7203689,-0.344,-0.421,9.747,0.15290123446198856,3.192546251221984,0.047218045112781964,0,0.05
1757394002.7455554,-0.344,-0.421,9.747,0.15290123446198856,3.192546251221984,0.047218045112781964,0,0.05
1757394002.7705867,-0.326,-0.416,9.757,0.15376760874774636,3.100576453841658,0.04812030075187971,0,0.05
1757394002.7961729,-0.326,-0.416,9.757,0.15376760874774636,3.100576453841658,0.04812030075187971,0,0.05
1757394002.8217306,-0.326,-0.416,9.757,0.15376760874774636,3.100576453841658,0.04812030075187971,0,0.05
1757394002.8473134,-0.318,-0.414,9.762,0.15458747523651453,3.0610438224206438,0.04852130325814537,0,0.05
1757394002.8723092,-0.318,-0.414,9.762,0.15458747523651453,3.0610438224206438,0.04852130325814537,0,0.05
1757394002.897196,-0.333,-0.396,9.766,0.15548154231290606,3.0326920336362155,0.04927318295739349,0,0.05
1757394002.9227278,-0.344,-0.393,9.764,0.15643001630122014,3.0619028007582534,0.04982456140350878,0,0.05
1757394002.9482946,-0.344,-0.393,9.764,0.15643001630122014,3.0619028007582534,0.04982456140350878,0,0.05
1757394002.9732301,-0.344,-0.393,9.764,0.15643001630122014,3.0619028007582534,0.04982456140350878,0,0.05
1757394002.9981427,-0.346,-0.39,9.767,0.15738373486482013,3.0555329370633117,0.04992481203007519,0,0.05
1757394003.023062,-0.346,-0.39,9.767,0.15738373486482013,3.0555329370633117,0.04992481203007519,0,0.05
1757394003.0481746,-0.354,-0.384,9.777,0.15837591357273995,3.0577665437638117,0.050325814536340836,0,0.05
1757394003.073203,-0.354,-0.384,9.777,0.15837591357273995,3.0577665437638117,0.050325814536340836,0,0.05
1757394003.0985303,-0.359,-0.375,9.781,0.1593898757763491,3.0381993953253823,0.05057644110275689,0,0.05
1757394003.1236594,-0.359,-0.375,9.781,0.1593898757763491,3.0381993953253823,0.05057644110275689,0,0.05
1757394003.1496348,-0.36,-0.38,9.758,0.16040303145514426,3.070584439368005,0.05062656641604009,0,0.05
1757394003.1766288,-0.36,-0.38,9.758,0.16040303145514426,3.070584439368005,0.05062656641604009,0,0.05
1757394003.2033784,-0.366,-0.375,9.759,0.1614435582486957,3.0735176008171408,0.05092731829573935,0,0.05
1757394003.228852,-0.366,-0.375,9.759,0.1614435582486957,3.0735176008171408,0.05092731829573935,0,0.05
1757394003.255049,-0.393,-0.381,9.752,0.16263500545700485,3.2125629250207455,0.052280701754385955,0,0.05
1757394003.2821805,-0.393,-0.381,9.752,0.16263500545700485,3.2125629250207455,0.052280701754385955,0,0.05
1757394003.3095534,-0.005,-0.441,9.798,0.16263519760494652,2.5772624703348237,0.07172932330827067,0,0.05
1757394003.3370552,-0.005,-0.441,9.798,0.16263519760494652,2.5772624703348237,0.07172932330827067,0,0.05
1757394003.3652732,-0.613,-0.451,9.758,0.16549812687761756,4.4595046713758935,0.10220551378446113,0,0.05
1757394003.3930595,-0.613,-0.451,9.758,0.16549812687761756,4.4595046713758935,0.10220551378446113,0,0.05
1757394003.41981,-0.123,-0.31,9.791,0.16561235612115421,1.9509076622280672,0.12676691729323306,0,0.05
1757394003.446797,-0.123,-0.31,9.791,0.16561235612115421,1.9509076622280672,0.12676691729323306,0,0.05
1757394003.4727771,-0.214,0.109,9.725,0.16595765273105065,1.4146405159457518,0.131328320802005,0,0.05
1757394003.4993246,-0.214,0.109,9.725,0.16595765273105065,1.4146405159457518,0.131328320802005,0,0.05
1757394003.525646,-0.376,-0.139,9.689,0.1670191081882549,2.369190257432943,0.13944862155388468,0,0.05
1757394003.5518029,-0.376,-0.139,9.689,0.1670191081882549,2.369190257432943,0.13944862155388468,0,0.05
1757394003.5778012,-0.227,-0.131,9.751,0.16740431595392039,1.5396275884171549,0.1469172932330827,0,0.05
1757394003.6048317,-0.227,-0.131,9.751,0.16740431595392039,1.5396275884171549,0.1469172932330827,0,0.05
1757394003.6316385,-0.297,-0.071,9.724,0.1680616776662663,1.798702748873913,0.15042606516290724,0,0.05
1757394003.658395,-0.297,-0.071,9.724,0.1680616776662663,1.798702748873913,0.15042606516290724,0,0.05
1757394003.6849577,-0.347,0.052,9.498,0.1689548756325191,2.115655636582667,0.15293233082706764,0,0.05
1757394003.7118669,-0.347,0.052,9.498,0.1689548756325191,2.115655636582667,0.15293233082706764,0,0.05
1757394003.7387216,-0.275,0.122,9.657,0.16951345816778088,1.784373830434847,0.15654135338345862,0,0.05
1757394003.7657454,-0.275,0.122,9.657,0.16951345816778088,1.784373830434847,0.15654135338345862,0,0.05
1757394003.792635,-0.275,0.122,9.657,0.16951345816778088,1.784373830434847,0.15654135338345862,0,0.05
1757394003.8198605,-0.302,0.13,9.607,0.17018467175395086,1.9601361908290038,0.15789473684210523,0,0.05
1757394003.8465776,-0.411,0.011,9.609,0.17142090012597647,2.4500611644341066,0.16335839598997487,0,0.05
1757394003.8734343,-0.411,0.011,9.609,0.17142090012597647,2.4500611644341066,0.16335839598997487,0,0.05
1757394003.899923,-0.225,-0.102,9.634,0.17178966063183196,1.4688889223799604,0.17268170426065158,0,0.05
1757394003.9271019,-0.225,-0.102,9.634,0.17178966063183196,1.4688889223799604,0.17268170426065158,0,0.05
1757394003.95388,-0.273,-0.134,9.527,0.17233110572383617,1.828330366832824,0.17508771929824557,0,0.05
1757394003.9805756,-0.273,-0.134,9.527,0.17233110572383617,1.828330366832824,0.17508771929824557,0,0.05
1757394004.0073884,-0.43,-0.428,9.596,0.17366709532896554,3.6176637224488024,0.1829573934837092,0,0.05
1757394004.0341682,-0.43,-0.428,9.596,0.17366709532896554,3.6176637224488024,0.1829573934837092,0,0.05
1757394004.0610924,-0.43,-0.428,9.596,0.17366709532896554,3.6176637224488024,0.1829573934837092,0,0.05
1757394004.0878496,-0.298,-0.16,9.637,0.1743051060640508,2.0101253695552725,0.1895739348370927,0,0.05
1757394004.114896,-0.508,-0.173,9.604,0.17614604735843492,3.1982326679189566,0.2001002506265664,0,0.05
1757394004.1418366,-0.508,-0.173,9.604,0.17614604735843492,3.1982326679189566,0.2001002506265664,0,0.05
1757394004.1685512,-0.367,-0.158,9.57,0.17709927300810696,2.390821041411616,0.20716791979949875,0,0.05
1757394004.1956484,-0.367,-0.158,9.57,0.17709927300810696,2.390821041411616,0.20716791979949875,0,0.05
1757394004.2224689,-0.282,-0.39,9.675,0.17765968169508803,2.8477745543700177,0.21142857142857144,0,0.05
1757394004.2489495,-0.282,-0.39,9.675,0.17765968169508803,2.8477745543700177,0.21142857142857144,0,0.05
1757394004.2756774,-0.433,-0.285,9.697,0.1789739785555431,3.0599702327720024,0.21899749373433583,0,0.05
1757394004.302711,-0.433,-0.285,9.697,0.1789739785555431,3.0599702327720024,0.21899749373433583,0,0.05
1757394004.328686,-0.403,-0.23,9.674,0.18010471259797728,2.7460909701661445,0.22050125313283206,0,0.05
1757394004.3548899,-0.403,-0.23,9.674,0.18010471259797728,2.7460909701661445,0.22050125313283206,0,0.05
1757394004.3818038,-0.55,-0.211,9.695,0.18219208956483265,3.4771152104190346,0.22786967418546364,0,0.05
1757394004.4084969,-0.55,-0.211,9.695,0.18219208956483265,3.4771152104190346,0.22786967418546364,0,0.05
1757394004.4351444,-0.241,-0.164,9.742,0.18259014212163813,1.7139400849026611,0.2433583959899749,0,0.05
1757394004.4626772,-0.241,-0.164,9.742,0.18259014212163813,1.7139400849026611,0.2433583959899749,0,0.05
1757394004.4893172,-0.525,-0.257,9.822,0.18446740226934405,3.405781168770379,0.25759398496240604,0,0.05
1757394004.5153005,-0.525,-0.257,9.822,0.18446740226934405,3.405781168770379,0.25759398496240604,0,0.05
1757394004.541721,-0.525,-0.257,9.822,0.18446740226934405,3.405781168770379,0.25759398496240604,0,0.05
1757394004.5679739,-0.303,-0.486,9.682,0.18508847884187712,3.385259869749583,0.2687218045112782,0,0.05
1757394004.5948093,-0.303,-0.486,9.682,0.18508847884187712,3.385259869749583,0.2687218045112782,0,0.05
1757394004.6213834,-0.321,-0.512,9.91,0.18578306569760333,3.489538572672454,0.26962406015037593,0,0.05
1757394004.6480374,-0.321,-0.512,9.91,0.18578306569760333,3.489538572672454,0.26962406015037593,0,0.05
1757394004.6745493,-0.501,-0.529,9.868,0.18746426326102797,4.222686297039294,0.27864661654135336,0,0.05
1757394004.701954,-0.501,-0.529,9.868,0.18746426326102797,4.222686297039294,0.27864661654135336,0,0.05
1757394004.7286649,-0.817,-0.487,9.814,0.19186342147475635,5.535598170042702,0.2944862155388471,0,0.05
1757394004.755772,-0.817,-0.487,9.814,0.19186342147475635,5.535598170042702,0.2944862155388471,0,0.05
1757394004.7825062,-0.655,-0.23,9.963,0.1946384725587416,3.9858491213861575,0.30260651629072677,0,0.05
1757394004.8087788,-0.655,-0.23,9.963,0.1946384725587416,3.9858491213861575,0.30260651629072677,0,0.05
1757394004.8336482,-0.53,-0.089,9.842,0.19643417472527533,3.125522061189588,0.3088721804511278,0,0.05
1757394004.858892,-0.53,-0.089,9.842,0.19643417472527533,3.125522061189588,0.3088721804511278,0,0.05
1757394004.8855548,-0.788,0.041,9.77,0.20034656223654052,4.617423672852234,0.3218045112781954,0,0.05
1757394004.912746,-0.788,0.041,9.77,0.20034656223654052,4.617423672852234,0.3218045112781954,0,0.05
1757394004.939939,-0.479,-0.121,9.836,0.2017730098402658,2.8754588809113426,0.3372932330827067,0,0.05
1757394004.9670296,-0.479,-0.121,9.836,0.2017730098402658,2.8754588809113426,0.3372932330827067,0,0.05
1757394004.993337,-0.761,-0.25,9.903,0.2053293695504859,4.624349885528681,0.35142857142857137,0,0.05
1757394005.0194259,-0.761,-0.25,9.903,0.2053293695504859,4.624349885528681,0.35142857142857137,0,0.05
1757394005.0459702,-0.489,-0.333,9.632,0.20677996155333814,3.514804124138539,0.3650626566416039,0,0.05
1757394005.0726976,-0.489,-0.333,9.632,0.20677996155333814,3.514804124138539,0.3650626566416039,0,0.05
1757394005.0987294,-0.555,-0.279,9.671,0.20863368615829997,3.6751351948330213,0.3683709273182958,0,0.05
1757394005.1254702,-0.555,-0.279,9.671,0.20863368615829997,3.6751351948330213,0.3683709273182958,0,0.05
1757394005.1521046,-0.283,-0.28,9.671,0.20911297783734037,2.357250189458525,0.38200501253132824,0,0.05
1757394005.1788166,-0.283,-0.28,9.671,0.20911297783734037,2.357250189458525,0.38200501253132824,0,0.05
1757394005.2056203,-0.393,-0.386,9.612,0.2100341876933372,3.280001760705868,0.3875187969924812,0,0.05
1757394005.2320216,-0.393,-0.386,9.612,0.2100341876933372,3.280001760705868,0.3875187969924812,0,0.05
1757394005.258102,-0.267,-0.352,9.72,0.2104580302578165,2.602493594738272,0.3938345864661653,0,0.05
1757394005.2848196,-0.267,-0.352,9.72,0.2104580302578165,2.602493594738272,0.3938345864661653,0,0.05
1757394005.3107529,-0.316,-0.463,9.712,0.21105028429263012,3.3033360363269586,0.39629072681704247,0,0.05
1757394005.3375342,-0.316,-0.463,9.712,0.21105028429263012,3.3033360363269586,0.39629072681704247,0,0.05
1757394005.364263,-0.456,-0.606,9.696,0.2122782666690116,4.47245063215536,0.4033082706766916,0,0.05
1757394005.3912218,-0.456,-0.606,9.696,0.2122782666690116,4.47245063215536,0.4033082706766916,0,0.05
1757394005.4180405,-0.216,-0.271,9.655,0.21255282284646326,2.0556540713717175,0.4153383458646617,0,0.05
1757394005.4452982,-0.216,-0.271,9.655,0.21255282284646326,2.0556540713717175,0.4153383458646617,0,0.05
1757394005.4715848,-0.666,0.194,9.803,0.21514551471039317,4.047618026956241,0.4378947368421053,0,0.05
1757394005.498486,-0.666,0.194,9.803,0.21514551471039317,4.047618026956241,0.4378947368421053,0,0.05
1757394005.524931,-0.4,-0.076,9.731,0.21607311841133778,2.395922374502169,0.4512280701754386,0,0.05
1757394005.5511403,-0.4,-0.076,9.731,0.21607311841133778,2.395922374502169,0.4512280701754386,0,0.05
1757394005.576959,-0.467,-0.07,9.722,0.217331118342496,2.7807858780680736,0.4545864661654136,0,0.05
1757394005.6038725,-0.467,-0.07,9.722,0.217331118342496,2.7807858780680736,0.4545864661654136,0,0.05
1757394005.6306105,-0.499,-0.112,9.715,0.2187585826887713,3.0133692598047883,0.4561904761904762,0,0.05
1757394005.657228,-0.499,-0.112,9.715,0.2187585826887713,3.0133692598047883,0.4561904761904762,0,0.05
1757394005.6838603,-0.396,-0.081,9.673,0.21965281127269917,2.392788543754114,0.46135338345864657,0,0.05
1757394005.7098482,-0.396,-0.081,9.673,0.21965281127269917,2.392788543754114,0.46135338345864657,0,0.05
1757394005.7353835,-0.734,-0.067,9.748,0.22269765939497435,4.323937522015254,0.4782957393483709,0,0.05
1757394005.7624822,-0.734,-0.067,9.748,0.22269765939497435,4.323937522015254,0.4782957393483709,0,0.05
1757394005.7893414,-0.3,-0.104,9.753,0.22320225693303372,1.8646433544959864,0.5000501253132831,0,0.05
1757394005.8169796,-0.3,-0.104,9.753,0.22320225693303372,1.8646433544959864,0.5000501253132831,0,0.05
1757394005.8430548,-0.443,-0.255,9.817,0.22429861791816733,2.980574167673295,0.5072180451127819,0,0.05
1757394005.8698573,-0.443,-0.255,9.817,0.22429861791816733,2.980574167673295,0.5072180451127819,0,0.05
1757394005.896276,-0.491,-0.663,9.887,0.22563814504644378,4.769963517757618,0.509624060150376,0,0.05
1757394005.9235568,-0.491,-0.663,9.887,0.22563814504644378,4.769963517757618,0.509624060150376,0,0.05
1757394005.9500902,-0.432,-0.484,9.827,0.22666965500481093,3.777035629924767,0.5125814536340851,0,0.05
1757394005.977238,-0.432,-0.484,9.827,0.22666965500481093,3.777035629924767,0.5125814536340851,0,0.05
1757394006.0041494,-0.169,-0.635,9.772,0.2268271037596698,3.84698195030373,0.525764411027569,0,0.05
1757394006.0312686,-0.169,-0.635,9.772,0.2268271037596698,3.84698195030373,0.525764411027569,0,0.05
1757394006.0575378,-0.402,-0.775,9.845,0.22771593049235708,5.067748442410964,0.5374436090225564,0,0.05
1757394006.083935,-0.402,-0.775,9.845,0.22771593049235708,5.067748442410964,0.5374436090225564,0,0.05
1757394006.1108413,-0.236,-0.605,9.751,0.2280214573236475,3.810177773864202,0.5457644110275689,0,0.05
1757394006.13785,-0.236,-0.605,9.751,0.2280214573236475,3.810177773864202,0.5457644110275689,0,0.05
1757394006.1646764,-0.236,-0.605,9.751,0.2280214573236475,3.810177773864202,0.5457644110275689,0,0.05
1757394006.1910028,-0.497,-0.283,9.833,0.2293715490203613,3.3287908602049483,0.5588471177944861,0,0.05
1757394006.2178593,-0.468,-0.179,9.877,0.23056206864963713,2.9041464811563715,0.5603007518796993,0,0.05
1757394006.244548,-0.468,-0.179,9.877,0.23056206864963713,2.9041464811563715,0.5603007518796993,0,0.05
1757394006.271315,-0.457,-0.175,9.696,0.2316915837919021,2.8892881915735185,0.5608521303258145,0,0.05
1757394006.2982016,-0.457,-0.175,9.696,0.2316915837919021,2.8892881915735185,0.5608521303258145,0,0.05
1757394006.3251102,-0.453,-0.032,9.603,0.2327960749239557,2.7075179736560964,0.5610526315789474,0,0.05
1757394006.3518918,-0.453,-0.032,9.603,0.2327960749239557,2.7075179736560964,0.5610526315789474,0,0.05
1757394006.378518,-0.057,-0.063,9.693,0.23281351979642423,0.5021826884861839,0.5809022556390977,0,0.05
1757394006.405791,-0.057,-0.063,9.693,0.23281351979642423,0.5021826884861839,0.5809022556390977,0,0.05
1757394006.4318254,-0.502,-0.065,9.496,0.23416264646608348,3.051302215704271,0.6032080200501253,0,0.05
1757394006.4580684,-0.502,-0.065,9.496,0.23416264646608348,3.051302215704271,0.6032080200501253,0,0.05
1757394006.484353,-0.502,-0.065,9.496,0.23416264646608348,3.051302215704271,0.6032080200501253,0,0.05
1757394006.5112338,-0.291,-0.145,9.617,0.23461425255086274,1.9362768871970504,0.6137844611528822,0,0.05
1757394006.5389457,-0.315,-0.27,9.678,0.23514231860726387,2.4546703100488014,0.6149874686716792,0,0.05
1757394006.564838,-0.315,-0.27,9.678,0.23514231860726387,2.4546703100488014,0.6149874686716792,0,0.05
1757394006.5913477,-0.315,-0.27,9.678,0.23514231860726387,2.4546703100488014,0.6149874686716792,0,0.05
1757394006.618005,-0.332,-0.392,9.562,0.2357275333939589,3.075150811862037,0.6158395989974937,0,0.05
1757394006.6441815,-0.332,-0.392,9.562,0.2357275333939589,3.075150811862037,0.6158395989974937,0,0.05
1757394006.6700058,-0.355,-0.356,9.684,0.2363948656379829,2.971892940501933,0.6169924812030074,0,0.05
1757394006.69711,-0.355,-0.356,9.684,0.2363948656379829,2.971892940501933,0.6169924812030074,0,0.05
1757394006.7241814,-0.417,-0.419,9.829,0.23731256814589488,3.4417791772069504,0.6201002506265664,0,0.05
1757394006.751122,-0.417,-0.419,9.829,0.23731256814589488,3.4417791772069504,0.6201002506265664,0,0.05
1757394006.7779956,-0.337,-0.463,9.711,0.23791001975536885,3.3748299240396316,0.6241102756892231,0,0.05
1757394006.8047974,-0.337,-0.463,9.711,0.23791001975536885,3.3748299240396316,0.6241102756892231,0,0.05
1757394006.8307683,-0.524,-0.365,9.792,0.23934831835632353,3.7313054587517476,0.633483709273183,0,0.05
1757394006.8569126,-0.524,-0.365,9.792,0.23934831835632353,3.7313054587517476,0.633483709273183,0,0.05
1757394006.8836532,-0.536,-0.245,9.961,0.24084405224127914,3.3859398376467182,0.6340852130325815,0,0.05
1757394006.9103994,-0.536,-0.245,9.961,0.24084405224127914,3.3859398376467182,0.6340852130325815,0,0.05
1757394006.9372034,-0.623,-0.49,9.951,0.24285011838580603,4.5540624125245825,0.6384461152882206,0,0.05
1757394006.9641128,-0.623,-0.49,9.951,0.24285011838580603,4.5540624125245825,0.6384461152882206,0,0.05
1757394006.9910984,-0.527,-0.345,9.896,0.24427546438396142,3.6419848420419663,0.6432581453634085,0,0.05
1757394007.0185912,-0.527,-0.345,9.896,0.24427546438396142,3.6419848420419663,0.6432581453634085,0,0.05
1757394007.0455256,-0.438,-0.335,9.886,0.24525519872165807,3.1925544264845387,0.6477192982456141,0,0.05
1757394007.0725417,-0.438,-0.335,9.886,0.24525519872165807,3.1925544264845387,0.6477192982456141,0,0.05
1757394007.0994146,-0.443,-0.438,9.784,0.24625339591567055,3.6432436709477822,0.6479699248120301,0,0.05
1757394007.1266093,-0.443,-0.438,9.784,0.24625339591567055,3.6432436709477822,0.6479699248120301,0,0.05
1757394007.153701,-0.436,-0.456,9.713,0.2472164537404418,3.7163669281976923,0.6483208020050125,0,0.05
1757394007.1790054,-0.436,-0.456,9.713,0.2472164537404418,3.7163669281976923,0.6483208020050125,0,0.05
1757394007.206047,-0.302,-0.373,9.713,0.2476771790052527,2.8287480121127953,0.6550375939849624,0,0.05
1757394007.2335758,-0.302,-0.373,9.713,0.2476771790052527,2.8287480121127953,0.6550375939849624,0,0.05
1757394007.2610204,-0.447,-0.51,9.692,0.24868354891307146,4.002560505907543,0.6623057644110275,0,0.05
1757394007.2879145,-0.447,-0.51,9.692,0.24868354891307146,4.002560505907543,0.6623057644110275,0,0.05
1757394007.3145568,-0.334,-0.424,9.738,0.24924365087199313,3.1725085606960275,0.66796992481203,0,0.05
1757394007.3403137,-0.334,-0.424,9.738,0.24924365087199313,3.1725085606960275,0.66796992481203,0,0.05
1757394007.3662953,-0.39,-0.451,9.701,0.25000529494392715,3.517066507898774,0.6707769423558897,0,0.05
1757394007.3929093,-0.39,-0.451,9.701,0.25000529494392715,3.517066507898774,0.6707769423558897,0,0.05
1757394007.418798,-0.194,-0.48,9.672,0.2501934001927309,3.063999126849997,0.6806015037593983,0,0.05
1757394007.4457574,-0.194,-0.48,9.672,0.2501934001927309,3.063999126849997,0.6806015037593983,0,0.05
1757394007.4731114,-0.279,-0.452,9.661,0.2505820025460727,3.147021338183699,0.6848621553884712,0,0.05
1757394007.5004146,-0.279,-0.452,9.661,0.2505820025460727,3.147021338183699,0.6848621553884712,0,0.05
1757394007.5276897,-0.244,-0.227,9.712,0.2508788153671011,1.9653151223210847,0.6866165413533835,0,0.05
1757394007.5553164,-0.244,-0.227,9.712,0.2508788153671011,1.9653151223210847,0.6866165413533835,0,0.05
1757394007.5815444,-0.344,-0.356,9.73,0.2514677315283215,2.9126098806228513,0.691629072681704,0,0.05
1757394007.6088076,-0.344,-0.356,9.73,0.2514677315283215,2.9126098806228513,0.691629072681704,0,0.05
1757394007.635923,-0.344,-0.356,9.73,0.2514677315283215,2.9126098806228513,0.691629072681704,0,0.05
1757394007.6626427,-0.261,-0.473,9.787,0.2518061208549149,3.1594565553410714,0.6957894736842104,0,0.05
1757394007.688889,-0.261,-0.473,9.787,0.2518061208549149,3.1594565553410714,0.6957894736842104,0,0.05
1757394007.716128,-0.27,-0.215,9.659,0.25216774674807246,2.0464784838362617,0.6962406015037595,0,0.05
1757394007.7434895,-0.27,-0.215,9.659,0.25216774674807246,2.0464784838362617,0.6962406015037595,0,0.05
1757394007.7706952,-0.183,-0.376,9.63,0.2523336977099967,2.4864231756816335,0.7006015037593986,0,0.05
1757394007.7976556,-0.183,-0.376,9.63,0.2523336977099967,2.4864231756816335,0.7006015037593986,0,0.05
1757394007.8238487,-0.183,-0.376,9.63,0.2523336977099967,2.4864231756816335,0.7006015037593986,0,0.05
1757394007.8500445,-0.08,-0.575,9.63,0.25236539976787625,3.4498651972777847,0.7057644110275688,0,0.05
1757394007.87701,-0.293,-0.444,9.713,0.2527902638552363,3.134853753779422,0.7164411027568924,0,0.05
1757394007.9035318,-0.098,-0.292,9.792,0.25283774935717174,1.8016396431392303,0.7262155388471178,0,0.05
1757394007.9298084,-0.098,-0.292,9.792,0.25283774935717174,1.8016396431392303,0.7262155388471178,0,0.05
1757394007.9562616,-0.107,-0.398,9.643,0.25289434552792994,2.4472754577239137,0.7266666666666668,0,0.05
1757394007.983401,-0.107,-0.398,9.643,0.25289434552792994,2.4472754577239137,0.7266666666666668,0,0.05
1757394008.0103602,-0.193,-0.477,9.7,0.2530783920053231,3.03658163480496,0.7309774436090226,0,0.05
1757394008.0367045,-0.193,-0.477,9.7,0.2530783920053231,3.03658163480496,0.7309774436090226,0,0.05
1757394008.063384,-0.209,-0.314,9.828,0.25329404848910286,2.197919240365727,0.7317794486215538,0,0.05
1757394008.0906043,-0.209,-0.314,9.828,0.25329404848910286,2.197919240365727,0.7317794486215538,0,0.05
1757394008.1176019,-0.133,-0.478,9.766,0.25338132823868453,2.908391619122566,0.7355889724310777,0,0.05
1757394008.144736,-0.133,-0.478,9.766,0.25338132823868453,2.908391619122566,0.7355889724310777,0,0.05
1757394008.1720247,-0.402,-0.551,9.847,0.2541773150774868,3.9623038596613185,0.7490726817042604,0,0.05
1757394008.1994605,-0.402,-0.551,9.847,0.2541773150774868,3.9623038596613185,0.7490726817042604,0,0.05
1757394008.2264297,-0.386,-0.148,9.922,0.25490899846808074,2.385851021280623,0.7498746867167918,0,0.05
1757394008.2534204,-0.386,-0.148,9.922,0.25490899846808074,2.385851021280623,0.7498746867167918,0,0.05
1757394008.2803319,-0.475,-0.279,9.903,0.2560130074820418,3.1839300123314604,0.7543358395989974,0,0.05
1757394008.3068821,-0.475,-0.279,9.903,0.2560130074820418,3.1839300123314604,0.7543358395989974,0,0.05
1757394008.3335385,-0.384,-0.479,9.692,0.2567319613916429,3.624438470453451,0.7588972431077692,0,0.05
1757394008.3598933,-0.384,-0.479,9.692,0.2567319613916429,3.624438470453451,0.7588972431077692,0,0.05
1757394008.386945,-0.253,-0.302,9.764,0.2570434253195362,2.3105926491893567,0.7654636591478696,0,0.05
1757394008.4144871,-0.253,-0.302,9.764,0.2570434253195362,2.3105926491893567,0.7654636591478696,0,0.05
1757394008.4420078,-0.253,-0.302,9.764,0.2570434253195362,2.3105926491893567,0.7654636591478696,0,0.05
1757394008.4689357,-0.253,-0.302,9.764,0.2570434253195362,2.3105926491893567,0.7654636591478696,0,0.05
1757394008.49629,-0.306,-0.382,9.668,0.25749837378127266,2.8981611374130374,0.7681203007518794,0,0.05
1757394008.5231307,-0.325,-0.602,9.63,0.25801061024694316,4.063532279193747,0.7690726817042606,0,0.05
1757394008.5500076,-0.199,-0.579,9.635,0.2582023963870204,3.6358966122878185,0.7753884711779447,0,0.05
1757394008.576362,-0.199,-0.579,9.635,0.2582023963870204,3.6358966122878185,0.7753884711779447,0,0.05
1757394008.6025252,-0.252,-0.235,9.55,0.25850964682193195,2.0663758363084974,0.7780451127819548,0,0.05
1757394008.6295152,-0.252,-0.235,9.55,0.25850964682193195,2.0663758363084974,0.7780451127819548,0,0.05
1757394008.6561244,-0.201,-0.394,9.589,0.25870492844165144,2.640991982639851,0.7806015037593984,0,0.05
1757394008.6826746,-0.201,-0.394,9.589,0.25870492844165144,2.640991982639851,0.7806015037593984,0,0.05
1757394008.7097085,-0.225,-0.288,9.594,0.25894942073694627,2.18155323359875,0.7818045112781954,0,0.05
1757394008.7369733,-0.225,-0.288,9.594,0.25894942073694627,2.18155323359875,0.7818045112781954,0,0.05
1757394008.7636366,-0.167,-0.214,9.61,0.2590840114711828,1.6179806559499281,0.7847117794486216,0,0.05
1757394008.7895703,-0.167,-0.214,9.61,0.2590840114711828,1.6179806559499281,0.7847117794486216,0,0.05
1757394008.8156598,-0.25,-0.276,9.529,0.25938537931039984,2.237973885259122,0.788872180451128,0,0.05
1757394008.8424284,-0.25,-0.276,9.529,0.25938537931039984,2.237973885259122,0.788872180451128,0,0.05
1757394008.8686926,-0.292,-0.205,9.582,0.2597959487751878,2.1323639237539336,0.7909774436090227,0,0.05
1757394008.8956106,-0.292,-0.205,9.582,0.2597959487751878,2.1323639237539336,0.7909774436090227,0,0.05
1757394008.922695,-0.316,0.071,9.622,0.26027595932010317,1.9278572575980333,0.7921804511278197,0,0.05
1757394008.9500813,-0.316,0.071,9.622,0.26027595932010317,1.9278572575980333,0.7921804511278197,0,0.05
1757394008.9767947,-0.152,-0.115,9.451,0.260386894831518,1.155347748422184,0.8004010025062657,0,0.05
1757394009.0037682,-0.152,-0.115,9.451,0.260386894831518,1.155347748422184,0.8004010025062657,0,0.05
1757394009.030751,-0.51,-0.429,9.573,0.26163253811405035,3.9823082957216918,0.8183458646616543,0,0.05
1757394009.0579174,-0.51,-0.429,9.573,0.26163253811405035,3.9823082957216918,0.8183458646616543,0,0.05
1757394009.0847962,-0.149,-0.37,9.668,0.26173858618858625,2.3625239205516815,0.8364411027568924,0,0.05
1757394009.1115494,-0.149,-0.37,9.668,0.26173858618858625,2.3625239205516815,0.8364411027568924,0,0.05
1757394009.1384797,-0.158,-0.48,9.646,0.2618577810568172,2.9988750705067395,0.8368922305764411,0,0.05
1757394009.1657321,-0.158,-0.48,9.646,0.2618577810568172,2.9988750705067395,0.8368922305764411,0,0.05
1757394009.1934097,-0.275,-0.508,9.525,0.26221853481399826,3.4705395241105377,0.8427568922305763,0,0.05
1757394009.2201796,-0.275,-0.508,9.525,0.26221853481399826,3.4705395241105377,0.8427568922305763,0,0.05
1757394009.2471478,-0.189,-0.367,9.76,0.2623887621450279,2.4219299517785307,0.8470676691729324,0,0.05
1757394009.27427,-0.189,-0.367,9.76,0.2623887621450279,2.4219299517785307,0.8470676691729324,0,0.05
1757394009.3006418,-0.116,-0.235,9.661,0.2624528576716207,1.553861703628953,0.8507268170426066,0,0.05
1757394009.3271964,-0.116,-0.235,9.661,0.2624528576716207,1.553861703628953,0.8507268170426066,0,0.05
1757394009.3544192,-0.273,-0.367,9.65,0.2628075817018984,2.713750495301975,0.8585964912280702,0,0.05
1757394009.3818464,-0.273,-0.367,9.65,0.2628075817018984,2.713750495301975,0.8585964912280702,0,0.05
1757394009.4082441,-0.204,-0.233,9.665,0.2630054467116603,1.835239875955675,0.8620551378446113,0,0.05
1757394009.4353383,-0.204,-0.233,9.665,0.2630054467116603,1.835239875955675,0.8620551378446113,0,0.05
1757394009.462109,-0.075,-0.207,9.596,0.2630321795902547,1.314348801163328,0.8685213032581451,0,0.05
1757394009.4892876,-0.075,-0.207,9.596,0.2630321795902547,1.314348801163328,0.8685213032581451,0,0.05
1757394009.5159109,-0.091,-0.365,9.602,0.2630715301966368,2.243501276207897,0.8693233082706764,0,0.05
1757394009.5423005,-0.091,-0.365,9.602,0.2630715301966368,2.243501276207897,0.8693233082706764,0,0.05
1757394009.568075,-0.351,-0.449,9.629,0.26365627718679485,3.387228003719885,0.8823558897243107,0,0.05
1757394009.5950303,-0.351,-0.449,9.629,0.26365627718679485,3.387228003719885,0.8823558897243107,0,0.05
1757394009.6218462,-0.169,-0.162,9.613,0.26379165073974575,1.3950441370731026,0.8914786967418544,0,0.05
1757394009.6490295,-0.169,-0.162,9.613,0.26379165073974575,1.3950441370731026,0.8914786967418544,0,0.05
1757394009.6754782,-0.146,-0.211,9.525,0.26389263915463806,1.5430771702145092,0.8926315789473682,0,0.05
1757394009.702803,-0.146,-0.211,9.525,0.26389263915463806,1.5430771702145092,0.8926315789473682,0,0.05
1757394009.729832,-0.146,-0.211,9.525,0.26389263915463806,1.5430771702145092,0.8926315789473682,0,0.05
1757394009.756453,-0.146,-0.211,9.525,0.26389263915463806,1.5430771702145092,0.8926315789473682,0,0.05
1757394009.7839432,-0.262,-0.356,9.594,0.264217590254699,2.637885657148468,0.8984461152882203,0,0.05
1757394009.8105912,-0.106,-0.165,9.656,0.26427074185387983,1.163525634899966,0.9062656641604009,0,0.05
1757394009.8379817,-0.325,-0.363,9.673,0.26476987649655315,2.8835628772318755,0.9172431077694234,0,0.05
1757394009.865165,-0.325,-0.363,9.673,0.26476987649655315,2.8835628772318755,0.9172431077694234,0,0.05
1757394009.8918583,-0.271,-0.459,9.633,0.2651163706752188,3.1671661323354985,0.9199498746867166,0,0.05
1757394009.9195175,-0.271,-0.459,9.633,0.2651163706752188,3.1671661323354985,0.9199498746867166,0,0.05
1757394009.9464257,-0.322,-0.343,9.748,0.26560478158346473,2.7630792684625156,0.9225062656641602,0,0.05
1757394009.9726717,-0.322,-0.343,9.748,0.26560478158346473,2.7630792684625156,0.9225062656641602,0,0.05
1757394009.999379,-0.467,-0.357,9.863,0.2666291853867464,3.410735851870932,0.9297744360902255,0,0.05
1757394010.0267134,-0.467,-0.357,9.863,0.2666291853867464,3.410735851870932,0.9297744360902255,0,0.05
1757394010.0534658,-0.543,-0.437,9.859,0.26800791965910264,4.0439388055158645,0.9335839598997491,0,0.05
1757394010.0801022,-0.543,-0.437,9.859,0.26800791965910264,4.0439388055158645,0.9335839598997491,0,0.05
1757394010.1072488,-0.423,-0.465,9.868,0.26884115663342917,3.6449389864123307,0.939598997493734,0,0.05
1757394010.1343107,-0.423,-0.465,9.868,0.26884115663342917,3.6449389864123307,0.939598997493734,0,0.05
1757394010.1613135,-0.425,-0.476,9.936,0.26967968036172096,3.674679188681585,0.9396992481203006,0,0.05
1757394010.1880615,-0.425,-0.476,9.936,0.26967968036172096,3.674679188681585,0.9396992481203006,0,0.05
1757394010.2149734,-0.442,-0.552,9.868,0.2705837023916999,4.098889906636488,0.940551378446115,0,0.05
1757394010.2415113,-0.442,-0.552,9.868,0.2705837023916999,4.098889906636488,0.940551378446115,0,0.05
1757394010.2685118,-0.4,-0.635,9.926,0.27132183841334995,4.323782227300922,0.9426566416040096,0,0.05
1757394010.2954774,-0.4,-0.635,9.926,0.27132183841334995,4.323782227300922,0.9426566416040096,0,0.05
1757394010.3226655,-0.527,-0.305,9.962,0.2725983538101432,3.4976718950085592,0.9490225563909773,0,0.05
1757394010.3496835,-0.527,-0.305,9.962,0.2725983538101432,3.4976718950085592,0.9490225563909773,0,0.05
1757394010.3763223,-0.366,-0.4,9.823,0.2732119186638826,3.159215236140989,0.9570927318295737,0,0.05
1757394010.4035583,-0.366,-0.4,9.823,0.2732119186638826,3.159215236140989,0.9570927318295737,0,0.05
1757394010.4299564,-0.387,-0.295,9.768,0.2738962851153699,2.8519600846043347,0.9581453634085212,0,0.05
1757394010.4564004,-0.387,-0.295,9.768,0.2738962851153699,2.8519600846043347,0.9581453634085212,0,0.05
1757394010.4838858,-0.352,-0.262,9.742,0.27446117211729604,2.578995413423435,0.9598997493734336,0,0.05
1757394010.5109284,-0.352,-0.262,9.742,0.27446117211729604,2.578995413423435,0.9598997493734336,0,0.05
1757394010.53752,-0.352,-0.262,9.742,0.27446117211729604,2.578995413423435,0.9598997493734336,0,0.05
1757394010.5647388,-0.373,-0.427,9.69,0.27509408844975203,3.3486217875634643,0.9609523809523811,0,0.05
1757394010.592058,-0.434,-0.492,9.697,0.27594863199515957,3.8705272055179027,0.9640100250626568,0,0.05
1757394010.6195917,-0.434,-0.492,9.697,0.27594863199515957,3.8705272055179027,0.9640100250626568,0,0.05
1757394010.6468408,-0.179,-0.239,9.596,0.2760937340831914,1.7823056356630418,0.976791979949875,0,0.05
1757394010.6742992,-0.179,-0.239,9.596,0.2760937340831914,1.7823056356630418,0.976791979949875,0,0.05
1757394010.7012537,-0.179,-0.239,9.596,0.2760937340831914,1.7823056356630418,0.976791979949875,0,0.05
1757394010.727227,-0.366,-0.359,9.665,0.27669954824683035,3.0363874737918093,0.9861654135338348,0,0.05
1757394010.754359,-0.366,-0.359,9.665,0.27669954824683035,3.0363874737918093,0.9861654135338348,0,0.05
1757394010.781261,-0.308,-0.413,9.621,0.2771277683668672,3.065245523016075,0.9890726817042609,0,0.05
1757394010.8081305,-0.243,-0.2,9.561,0.27739398425344414,1.8853308650995797,0.9923308270676692,0,0.05
1757394010.8347678,-0.243,-0.2,9.561,0.27739398425344414,1.8853308650995797,0.9923308270676692,0,0.05
1757394010.861859,-0.188,-0.299,9.638,0.2775532066109127,2.09871269694117,0.9950877192982457,0,0.05
1757394010.8897467,-0.188,-0.299,9.638,0.2775532066109127,2.09871269694117,0.9950877192982457,0,0.05
1757394010.9163446,-0.016,-0.551,9.53,0.27755435954061325,3.310401877647489,1.0037092731829576,0,0.05
1757394010.9437494,-0.016,-0.551,9.53,0.27755435954061325,3.310401877647489,1.0037092731829576,0,0.05
1757394010.9701343,-0.187,-0.388,9.666,0.2777118020538558,2.5513839851463334,1.012280701754386,0,0.05
1757394010.9972534,-0.187,-0.388,9.666,0.2777118020538558,2.5513839851463334,1.012280701754386,0,0.05
1757394011.0241313,-0.017,-0.39,9.675,0.2777131028597679,2.310537166032744,1.0208020050125313,0,0.05
1757394011.050551,-0.017,-0.39,9.675,0.2777131028597679,2.310537166032744,1.0208020050125313,0,0.05
1757394011.077538,0.01,-0.614,9.632,0.27771355296420086,3.64791527030425,1.0221553884711778,0,0.05
1757394011.1045642,0.01,-0.614,9.632,0.27771355296420086,3.64791527030425,1.0221553884711778,0,0.05
1757394011.1315382,0.01,-0.614,9.632,0.27771355296420086,3.64791527030425,1.0221553884711778,0,0.05
1757394011.1581647,-0.242,-0.538,9.705,0.2779770269284856,3.478465297267971,1.0347869674185464,0,0.05
1757394011.1848407,-0.144,-0.477,9.814,0.2780702564101382,2.9064415346010453,1.0396992481203005,0,0.05
1757394011.210889,-0.144,-0.477,9.814,0.2780702564101382,2.9064415346010453,1.0396992481203005,0,0.05
1757394011.237526,-0.136,-0.596,9.731,0.27815338843882526,3.5947056041998433,1.0401002506265662,0,0.05
1757394011.2641692,-0.136,-0.596,9.731,0.27815338843882526,3.5947056041998433,1.0401002506265662,0,0.05
1757394011.2911863,-0.136,-0.596,9.731,0.27815338843882526,3.5947056041998433,1.0401002506265662,0,0.05
1757394011.3178363,-0.306,-0.654,9.772,0.2785738636340459,4.225870611872627,1.0486215538847117,0,0.05
1757394011.3448646,-0.296,-0.319,9.815,0.2789667318875138,2.5387012879552264,1.0491228070175438,0,0.05
1757394011.3717742,-0.296,-0.319,9.815,0.2789667318875138,2.5387012879552264,1.0491228070175438,0,0.05
1757394011.3987553,-0.296,-0.319,9.815,0.2789667318875138,2.5387012879552264,1.0491228070175438,0,0.05
1757394011.4260552,-0.393,-0.526,9.792,0.27965793391212773,3.836217147904408,1.053984962406015,0,0.05
1757394011.45319,-0.393,-0.526,9.792,0.27965793391212773,3.836217147904408,1.053984962406015,0,0.05
1757394011.4803956,-0.437,-0.598,9.843,0.2805102181739553,4.303231289918579,1.0561904761904761,0,0.05
1757394011.5078034,-0.198,-0.506,9.865,0.2806848633254027,3.1526411209267313,1.0681704260651628,0,0.05
1757394011.5348198,-0.198,-0.506,9.865,0.2806848633254027,3.1526411209267313,1.0681704260651628,0,0.05
1757394011.5618467,-0.348,-0.474,9.772,0.28122366987862174,3.4436240403115,1.075689223057644,0,0.05
1757394011.5890265,-0.348,-0.474,9.772,0.28122366987862174,3.4436240403115,1.075689223057644,0,0.05
1757394011.616078,-0.276,-0.503,9.722,0.28156205799077405,3.3774086120662026,1.079298245614035,0,0.05
1757394011.643618,-0.276,-0.503,9.722,0.28156205799077405,3.3774086120662026,1.079298245614035,0,0.05
1757394011.6705344,-0.276,-0.503,9.722,0.28156205799077405,3.3774086120662026,1.079298245614035,0,0.05
1757394011.6968417,-0.255,-0.344,9.805,0.28185058985214134,2.5006484501160506,1.0803508771929824,0,0.05
1757394011.724025,-0.215,-0.498,9.776,0.2820555220164994,3.175843461584028,1.0823558897243106,0,0.05
1757394011.7514136,-0.215,-0.498,9.776,0.2820555220164994,3.175843461584028,1.0823558897243106,0,0.05
1757394011.7779617,-0.215,-0.498,9.776,0.2820555220164994,3.175843461584028,1.0823558897243106,0,0.05
1757394011.8049994,-0.426,-0.284,9.828,0.28285863518726095,2.982119845023513,1.0929323308270675,0,0.05
1757394011.8326895,-0.309,-0.483,9.867,0.28328026757965336,3.3257947880719643,1.0987969924812029,0,0.05
1757394011.8597937,-0.309,-0.483,9.867,0.28328026757965336,3.3257947880719643,1.0987969924812029,0,0.05
1757394011.8875048,-0.554,-0.289,9.825,0.2846313405090873,3.6389915822864083,1.1110776942355889,0,0.05
1757394011.9146714,-0.554,-0.289,9.825,0.2846313405090873,3.6389915822864083,1.1110776942355889,0,0.05
1757394011.9411473,-0.554,-0.289,9.825,0.2846313405090873,3.6389915822864083,1.1110776942355889,0,0.05
1757394011.9675167,-0.344,-0.426,9.768,0.2851505567239875,3.2083904969954267,1.1216040100250628,0,0.05
1757394011.9940004,-0.267,-0.343,9.708,0.28546289163392147,2.5636725688241357,1.1254636591478695,0,0.05
1757394012.020664,-0.267,-0.343,9.708,0.28546289163392147,2.5636725688241357,1.1254636591478695,0,0.05
1757394012.0462132,-0.267,-0.343,9.708,0.28546289163392147,2.5636725688241357,1.1254636591478695,0,0.05
1757394012.0723433,-0.392,-0.168,9.783,0.2861349725217105,2.49619039902109,1.1317293233082706,0,0.05
1757394012.0986428,-0.392,-0.168,9.783,0.2861349725217105,2.49619039902109,1.1317293233082706,0,0.05
1757394012.125769,-0.179,-0.283,9.619,0.28627491157976104,1.993784761051742,1.1424060150375939,0,0.05
1757394012.153131,-0.179,-0.283,9.619,0.28627491157976104,1.993784761051742,1.1424060150375939,0,0.05
1757394012.179623,-0.53,-0.075,9.721,0.28749882608455984,3.151770505278349,1.16,0,0.05
1757394012.2067983,-0.53,-0.075,9.721,0.28749882608455984,3.151770505278349,1.16,0,0.05
1757394012.2337832,-0.53,-0.075,9.721,0.28749882608455984,3.151770505278349,1.16,0,0.05
1757394012.2607753,-0.293,-0.02,9.658,0.2878718421450768,1.7417212946735678,1.1718796992481202,0,0.05
1757394012.2877138,-0.357,-0.217,9.621,0.28842472154792836,2.4864210253807957,1.1750877192982454,0,0.05
1757394012.3137813,-0.357,-0.217,9.621,0.28842472154792836,2.4864210253807957,1.1750877192982454,0,0.05
1757394012.340485,-0.323,-0.35,9.73,0.2888765177372505,2.802286892250489,1.1767919799498745,0,0.05
1757394012.367987,-0.323,-0.35,9.73,0.2888765177372505,2.802286892250489,1.1767919799498745,0,0.05
1757394012.3950608,-0.292,-0.089,9.663,0.289245229001275,1.8094194218423894,1.178345864661654,0,0.05
1757394012.4226787,-0.292,-0.089,9.663,0.289245229001275,1.8094194218423894,1.178345864661654,0,0.05
1757394012.4487882,-0.211,-0.267,9.649,0.28943756667025794,2.0199163404487006,1.182406015037594,0,0.05
1757394012.475142,-0.211,-0.267,9.649,0.28943756667025794,2.0199163404487006,1.182406015037594,0,0.05
1757394012.5018022,-0.345,-0.345,9.693,0.28995114674717193,2.881589592412298,1.189122807017544,0,0.05
1757394012.5293665,-0.345,-0.345,9.693,0.28995114674717193,2.881589592412298,1.189122807017544,0,0.05
1757394012.55635,-0.357,-0.244,9.693,0.2905000688468077,2.5543472998153223,1.1897243107769424,0,0.05
1757394012.583097,-0.357,-0.244,9.693,0.2905000688468077,2.5543472998153223,1.1897243107769424,0,0.05
1757394012.6111422,-0.274,-0.356,9.708,0.2908229358217814,2.649455644268442,1.1938847117794487,0,0.05
1757394012.6388795,-0.274,-0.356,9.708,0.2908229358217814,2.649455644268442,1.1938847117794487,0,0.05
1757394012.6661208,-0.31,-0.616,9.82,0.2912356949276651,4.0169792761704,1.1956892230576441,0,0.05
1757394012.693591,-0.31,-0.616,9.82,0.2912356949276651,4.0169792761704,1.1956892230576441,0,0.05
1757394012.7207503,-0.46,-0.665,9.76,0.2921424823609192,4.736013027992496,1.2032080200501252,0,0.05
1757394012.7489161,-0.46,-0.665,9.76,0.2921424823609192,4.736013027992496,1.2032080200501252,0,0.05
1757394012.7757728,-0.188,-0.54,9.826,0.292293670817553,3.330374445331736,1.216842105263158,0,0.05
1757394012.8019805,-0.188,-0.54,9.826,0.292293670817553,3.330374445331736,1.216842105263158,0,0.05
1757394012.8293684,-0.328,-0.723,9.866,0.2927533945149057,4.600709877292192,1.223859649122807,0,0.05
1757394012.856367,-0.328,-0.723,9.866,0.2927533945149057,4.600709877292192,1.223859649122807,0,0.05
1757394012.8839438,-0.172,-0.561,9.868,0.29287968519513263,3.402938360891098,1.2316791979949875,0,0.05
1757394012.910731,-0.172,-0.561,9.868,0.29287968519513263,3.402938360891098,1.2316791979949875,0,0.05
1757394012.9384627,-0.202,-0.499,9.773,0.2930537834596237,3.152891282773037,1.2331829573934836,0,0.05
1757394012.9659364,-0.171,-0.602,9.844,0.2931784823277452,3.637585973185805,1.2347368421052631,0,0.05
1757394012.9926116,-0.171,-0.602,9.844,0.2931784823277452,3.637585973185805,1.2347368421052631,0,0.05
1757394013.020462,-0.191,-0.595,9.841,0.29333398200685856,3.633411138257923,1.2357393483709274,0,0.05
1757394013.0481215,-0.191,-0.595,9.841,0.29333398200685856,3.633411138257923,1.2357393483709274,0,0.05
1757394013.0749385,-0.232,-0.365,9.723,0.29356325553447593,2.546911519580666,1.2377944862155388,0,0.05
1757394013.1021013,-0.232,-0.365,9.723,0.29356325553447593,2.546911519580666,1.2377944862155388,0,0.05
1757394013.1296103,-0.133,-0.301,9.762,0.2936385660978476,1.9306946089043298,1.2427568922305765,0,0.05
1757394013.1571243,-0.133,-0.301,9.762,0.2936385660978476,1.9306946089043298,1.2427568922305765,0,0.05
1757394013.185185,-0.299,-0.353,9.772,0.29401889395071196,2.7103918664361024,1.2510776942355888,0,0.05
1757394013.2122476,-0.299,-0.353,9.772,0.29401889395071196,2.7103918664361024,1.2510776942355888,0,0.05
1757394013.2397046,-0.16,-0.364,9.652,0.2941277103572528,2.358958345668509,1.2580451127819547,0,0.05
1757394013.2670841,-0.16,-0.364,9.652,0.2941277103572528,2.358958345668509,1.2580451127819547,0,0.05
1757394013.2942746,-0.27,-0.351,9.737,0.2944373617596789,2.603983371079454,1.2635588972431073,0,0.05
1757394013.3212154,-0.27,-0.351,9.737,0.2944373617596789,2.603983371079454,1.2635588972431073,0,0.05
1757394013.3484757,-0.319,-0.441,9.851,0.29486905992321405,3.162454508045012,1.2660150375939847,0,0.05
1757394013.3759363,-0.319,-0.441,9.851,0.29486905992321405,3.162454508045012,1.2660150375939847,0,0.05
1757394013.402198,-0.402,-0.449,9.948,0.2955533327506222,3.466828066772133,1.270175438596491,0,0.05
1757394013.4293401,-0.402,-0.449,9.948,0.2955533327506222,3.466828066772133,1.270175438596491,0,0.05
1757394013.4566095,-0.32,-0.314,10.047,0.2959861018696655,2.555006035392535,1.2742857142857142,0,0.05
1757394013.483778,-0.32,-0.314,10.047,0.2959861018696655,2.555006035392535,1.2742857142857142,0,0.05
1757394013.5115082,-0.561,-0.45,10.056,0.2973122516816285,4.090690672945909,1.286365914786967,0,0.05
1757394013.5384417,-0.561,-0.45,10.056,0.2973122516816285,4.090690672945909,1.286365914786967,0,0.05
1757394013.5650017,-0.276,-0.402,9.993,0.2976323487122997,2.793637535599687,1.3006516290726815,0,0.05
1757394013.5922775,-0.276,-0.402,9.993,0.2976323487122997,2.793637535599687,1.3006516290726815,0,0.05
1757394013.6193328,-0.375,-0.33,9.897,0.2982223625082465,2.8894003330647005,1.3056140350877192,0,0.05
1757394013.6462767,-0.375,-0.33,9.897,0.2982223625082465,2.8894003330647005,1.3056140350877192,0,0.05
1757394013.6727629,-0.462,-0.418,9.913,0.2991156757844697,3.5963051110483026,1.3099749373433582,0,0.05
1757394013.699116,-0.462,-0.418,9.913,0.2991156757844697,3.5963051110483026,1.3099749373433582,0,0.05
1757394013.726507,-0.499,-0.393,9.853,0.300154443578635,3.6884888852906688,1.311829573934837,0,0.05
1757394013.753799,-0.499,-0.393,9.853,0.300154443578635,3.6884888852906688,1.311829573934837,0,0.05
1757394013.7810686,-0.504,-0.234,9.977,0.30121044138608477,3.1878153795812243,1.312080200501253,0,0.05
1757394013.8082447,-0.504,-0.234,9.977,0.30121044138608477,3.1878153795812243,1.312080200501253,0,0.05
1757394013.8359237,-0.36,-0.206,9.922,0.30174779203831803,2.393758263252953,1.319298245614035,0,0.05
1757394013.8639524,-0.36,-0.206,9.922,0.30174779203831803,2.393758263252953,1.319298245614035,0,0.05
1757394013.8918014,-0.391,-0.355,9.926,0.3023804433160319,3.0455658323825925,1.3208521303258145,0,0.05
1757394013.9188297,-0.391,-0.355,9.926,0.3023804433160319,3.0455658323825925,1.3208521303258145,0,0.05
1757394013.9454882,-0.274,-0.232,9.837,0.30269063827611187,2.090228157350178,1.3267167919799498,0,0.05
1757394013.9723866,-0.274,-0.232,9.837,0.30269063827611187,2.090228157350178,1.3267167919799498,0,0.05
1757394013.9996042,-0.301,-0.166,9.768,0.30306455582928205,2.0154291422427675,1.3280701754385964,0,0.05
1757394014.0272157,-0.301,-0.166,9.768,0.30306455582928205,2.0154291422427675,1.3280701754385964,0,0.05
1757394014.0552166,0.105,-0.45,9.682,0.3031100254033179,2.7324517182205716,1.3484210526315785,0,0.05
1757394014.0832427,0.105,-0.45,9.682,0.3031100254033179,2.7324517182205716,1.3484210526315785,0,0.05
1757394014.1109715,-0.143,-0.427,9.629,0.3031943436147845,2.677537458404892,1.3608521303258145,0,0.05
1757394014.1388266,-0.143,-0.427,9.629,0.3031943436147845,2.677537458404892,1.3608521303258145,0,0.05
1757394014.1654775,0.04,-0.351,9.521,0.3032009399721577,2.1249558671608866,1.3700250626566415,0,0.05
1757394014.1917653,0.04,-0.351,9.521,0.3032009399721577,2.1249558671608866,1.3700250626566415,0,0.05
1757394014.218755,-0.007,-0.622,9.498,0.30320114198333753,3.747042207703905,1.3723809523809525,0,0.05
1757394014.245688,-0.007,-0.622,9.498,0.30320114198333753,3.747042207703905,1.3723809523809525,0,0.05
1757394014.2733753,-0.106,-0.849,9.644,0.3032474608302599,5.069865058726808,1.3773433583959898,0,0.05
1757394014.3011446,-0.106,-0.849,9.644,0.3032474608302599,5.069865058726808,1.3773433583959898,0,0.05
1757394014.3286963,-0.049,-0.676,9.712,0.30325735770134254,3.9920412834813193,1.3802005012531329,0,0.05
1757394014.3551962,-0.049,-0.676,9.712,0.30325735770134254,3.9920412834813193,1.3802005012531329,0,0.05
1757394014.3823006,-0.068,-0.929,9.758,0.3032764168213546,5.452854259098464,1.381152882205514,0,0.05
1757394014.4093482,-0.068,-0.929,9.758,0.3032764168213546,5.452854259098464,1.381152882205514,0,0.05
1757394014.4363723,-0.367,-0.764,9.8,0.30383105091481355,4.943059393462708,1.3961403508771932,0,0.05
1757394014.4639924,-0.367,-0.764,9.8,0.30383105091481355,4.943059393462708,1.3961403508771932,0,0.05
1757394014.4913163,-0.376,-0.564,9.947,0.30441213428508396,3.898424501582475,1.396591478696742,0,0.05
1757394014.5172756,-0.376,-0.564,9.947,0.30441213428508396,3.898424501582475,1.396591478696742,0,0.05
1757394014.5437014,-0.431,-0.475,9.857,0.3051739667796059,3.7229808676050045,1.399348370927318,0,0.05
1757394014.571684,-0.431,-0.475,9.857,0.3051739667796059,3.7229808676050045,1.399348370927318,0,0.05
1757394014.599478,-0.42,-0.381,9.772,0.3058956521430143,3.321116316002909,1.3998997493734338,0,0.05
1757394014.627176,-0.42,-0.381,9.772,0.3058956521430143,3.321116316002909,1.3998997493734338,0,0.05
1757394014.6540732,-0.381,-0.255,9.777,0.30648825833953247,2.68473175004801,1.4018546365914788,0,0.05
1757394014.68117,-0.381,-0.255,9.777,0.30648825833953247,2.68473175004801,1.4018546365914788,0,0.05
1757394014.708113,-0.417,-0.321,9.766,0.3071966389790097,3.0844029108364146,1.403659147869674,0,0.05
1757394014.7362149,-0.417,-0.321,9.766,0.3071966389790097,3.0844029108364146,1.403659147869674,0,0.05
1757394014.7630742,-0.56,-0.477,9.938,0.3084700552727931,4.233336120427542,1.4108270676691728,0,0.05
1757394014.7899215,-0.56,-0.477,9.938,0.3084700552727931,4.233336120427542,1.4108270676691728,0,0.05
1757394014.8170342,-0.414,-0.417,9.939,0.3091638157999736,3.383479557702196,1.4181453634085215,0,0.05
1757394014.8448095,-0.414,-0.417,9.939,0.3091638157999736,3.383479557702196,1.4181453634085215,0,0.05
1757394014.8722558,-0.46,-0.308,9.772,0.3100181688224095,3.2423877928443656,1.4204511278195489,0,0.05
1757394014.8983347,-0.46,-0.308,9.772,0.3100181688224095,3.2423877928443656,1.4204511278195489,0,0.05
1757394014.92479,-0.552,-0.497,9.76,0.31124431721719836,4.352041933787187,1.425062656641604,0,0.05
1757394014.952692,-0.552,-0.497,9.76,0.31124431721719836,4.352041933787187,1.425062656641604,0,0.05
1757394014.9800196,-0.46,-0.473,9.833,0.31209297492894644,3.838794551256469,1.4296741854636592,0,0.05
1757394015.0070121,-0.46,-0.473,9.833,0.31209297492894644,3.838794551256469,1.4296741854636592,0,0.05
1757394015.0337574,-0.397,-0.534,9.703,0.31272359600772054,3.9230497768048243,1.432832080200501,0,0.05
1757394015.0607765,-0.397,-0.534,9.703,0.31272359600772054,3.9230497768048243,1.432832080200501,0,0.05
1757394015.0879052,-0.493,-0.688,9.626,0.3136935925389615,5.02501005819103,1.4376441102756892,0,0.05
1757394015.1159403,-0.493,-0.688,9.626,0.3136935925389615,5.02501005819103,1.4376441102756892,0,0.05
1757394015.1427262,-0.282,-0.67,9.768,0.3140103183018036,4.256066693299571,1.4482205513784459,0,0.05
1757394015.169277,-0.282,-0.67,9.768,0.3140103183018036,4.256066693299571,1.4482205513784459,0,0.05
1757394015.1958716,-0.435,-0.366,9.766,0.3147626764722908,3.33149373068193,1.455889724310777,0,0.05
1757394015.2232633,-0.435,-0.366,9.766,0.3147626764722908,3.33149373068193,1.455889724310777,0,0.05
1757394015.2498252,-0.563,-0.535,9.785,0.3160189313949403,4.5381702196794835,1.4623057644110276,0,0.05
1757394015.276619,-0.563,-0.535,9.785,0.3160189313949403,4.5381702196794835,1.4623057644110276,0,0.05
1757394015.3032596,-0.443,-0.517,9.826,0.31679423526952,3.9636469995840833,1.4683208020050125,0,0.05
1757394015.3307467,-0.443,-0.517,9.826,0.31679423526952,3.9636469995840833,1.4683208020050125,0,0.05
1757394015.3582351,-0.49,-0.495,9.904,0.3177402044123469,4.022762447951153,1.4706766917293232,0,0.05
1757394015.3855247,-0.49,-0.495,9.904,0.3177402044123469,4.022762447951153,1.4706766917293232,0,0.05
1757394015.4127202,-0.483,-0.539,9.792,0.31865664907545865,4.227164379311564,1.4710275689223058,0,0.05
1757394015.439563,-0.483,-0.539,9.792,0.31865664907545865,4.227164379311564,1.4710275689223058,0,0.05
1757394015.4662416,-0.315,-0.551,9.703,0.3190456432863486,3.742459396913047,1.4794486215538847,0,0.05
1757394015.49355,-0.315,-0.551,9.703,0.3190456432863486,3.742459396913047,1.4794486215538847,0,0.05
1757394015.5208359,-0.401,-0.394,9.551,0.3196750303042138,3.368541999854717,1.4837593984962405,0,0.05
1757394015.5475535,-0.401,-0.394,9.551,0.3196750303042138,3.368541999854717,1.4837593984962405,0,0.05
1757394015.57438,-0.145,-0.236,9.351,0.3197572321308777,1.6966596607716122,1.4965914786967418,0,0.05
1757394015.6021082,-0.145,-0.236,9.351,0.3197572321308777,1.6966596607716122,1.4965914786967418,0,0.05
1757394015.629519,-0.301,-0.339,9.144,0.32011121504877016,2.83831189323877,1.5044110275689226,0,0.05
1757394015.6570952,-0.301,-0.339,9.144,0.32011121504877016,2.83831189323877,1.5044110275689226,0,0.05
1757394015.6848776,-0.124,-0.291,9.109,0.32017125105168326,1.9888461563462958,1.51328320802005,0,0.05
1757394015.7126114,-0.124,-0.291,9.109,0.32017125105168326,1.9888461563462958,1.51328320802005,0,0.05
1757394015.7395267,-0.351,-0.264,9.215,0.32065188678690165,2.728735888597468,1.5246616541353384,0,0.05
1757394015.7668307,-0.351,-0.264,9.215,0.32065188678690165,2.728735888597468,1.5246616541353384,0,0.05
1757394015.794228,-0.355,-0.623,9.423,0.3211427953418853,4.351549101175349,1.5248621553884714,0,0.05
1757394015.8214326,-0.355,-0.623,9.423,0.3211427953418853,4.351549101175349,1.5248621553884714,0,0.05
1757394015.8479354,-0.367,-0.528,9.584,0.3216666247841078,3.838389293872199,1.5254636591478696,0,0.05
1757394015.875332,-0.367,-0.528,9.584,0.3216666247841078,3.838389293872199,1.5254636591478696,0,0.05
1757394015.9024682,-0.289,-0.275,9.635,0.3219910247196341,2.3709412238380625,1.52937343358396,0,0.05
1757394015.9296668,-0.289,-0.275,9.635,0.3219910247196341,2.3709412238380625,1.52937343358396,0,0.05
1757394015.9573216,-0.336,-0.276,9.77,0.3224289999364201,2.5483271140421433,1.5317293233082705,0,0.05
1757394015.985141,-0.336,-0.276,9.77,0.3224289999364201,2.5483271140421433,1.5317293233082705,0,0.05
1757394016.0126307,-0.418,-0.413,9.777,0.32310566383150885,3.4394483795500586,1.5358395989974936,0,0.05
1757394016.039724,-0.418,-0.413,9.777,0.32310566383150885,3.4394483795500586,1.5358395989974936,0,0.05
1757394016.0661337,-0.287,-0.291,9.74,0.3234241680827208,2.4028806328590337,1.5424060150375938,0,0.05
1757394016.0930116,-0.287,-0.291,9.74,0.3234241680827208,2.4028806328590337,1.5424060150375938,0,0.05
1757394016.119918,-0.281,-0.398,9.71,0.32372920010403755,2.8724183171379583,1.5427067669172931,0,0.05
1757394016.1468418,-0.281,-0.398,9.71,0.32372920010403755,2.8724183171379583,1.5427067669172931,0,0.05
1757394016.1735175,-0.212,-0.566,9.592,0.3239026937214323,3.605491819453549,1.5461654135338343,0,0.05
1757394016.201105,-0.212,-0.566,9.592,0.3239026937214323,3.605491819453549,1.5461654135338343,0,0.05
1757394016.2285197,-0.2,-0.323,9.715,0.32405702430282235,2.2394192086632208,1.546766917293233,0,0.05
1757394016.2556157,-0.2,-0.323,9.715,0.32405702430282235,2.2394192086632208,1.546766917293233,0,0.05
1757394016.2828314,-0.118,-0.273,9.71,0.3241107295354475,1.7543810577592949,1.550877192982456,0,0.05
1757394016.3099804,-0.118,-0.273,9.71,0.3241107295354475,1.7543810577592949,1.550877192982456,0,0.05
1757394016.3378174,-0.242,-0.399,9.783,0.32433651505804895,2.7309613609849235,1.557092731829574,0,0.05
1757394016.3656156,-0.242,-0.399,9.783,0.32433651505804895,2.7309613609849235,1.557092731829574,0,0.05
1757394016.3932462,-0.198,-0.404,9.742,0.32448757295156927,2.6441905147826334,1.559298245614035,0,0.05
1757394016.4203656,-0.198,-0.404,9.742,0.32448757295156927,2.6441905147826334,1.559298245614035,0,0.05
1757394016.447283,-0.215,-0.227,9.655,0.3246655933418261,1.8547521555159228,1.5601503759398496,0,0.05
1757394016.474619,-0.19,-0.513,9.796,0.3248045527698157,3.196346573375188,1.5614035087719298,0,0.05
1757394016.5021994,-0.19,-0.513,9.796,0.3248045527698157,3.196346573375188,1.5614035087719298,0,0.05
1757394016.529894,-0.289,-0.462,9.681,0.3251258217982694,3.2217881157708295,1.5663659147869675,0,0.05
1757394016.5583613,-0.289,-0.462,9.681,0.3251258217982694,3.2217881157708295,1.5663659147869675,0,0.05
1757394016.586633,-0.289,-0.462,9.681,0.3251258217982694,3.2217881157708295,1.5663659147869675,0,0.05
1757394016.6140685,-0.16,-0.301,9.661,0.3252242303396228,2.020809382035718,1.5728320802005011,0,0.05
1757394016.6410236,-0.428,-0.398,9.74,0.32592753795897644,3.433954510544366,1.586265664160401,0,0.05
1757394016.668408,-0.428,-0.398,9.74,0.32592753795897644,3.433954510544366,1.586265664160401,0,0.05
1757394016.695997,-0.314,-0.375,9.801,0.32630545505706765,2.8568784880715565,1.591979949874687,0,0.05
1757394016.7229955,-0.314,-0.375,9.801,0.32630545505706765,2.8568784880715565,1.591979949874687,0,0.05
1757394016.749759,-0.253,-0.222,9.714,0.32655056652837094,1.9845057157709107,1.5950375939849624,0,0.05
1757394016.7764826,-0.253,-0.222,9.714,0.32655056652837094,1.9845057157709107,1.5950375939849624,0,0.05
1757394016.804217,-0.552,-0.313,9.742,0.3277148646308251,3.7268136305879844,1.6100250626566415,0,0.05
1757394016.8322463,-0.552,-0.313,9.742,0.3277148646308251,3.7268136305879844,1.6100250626566415,0,0.05
1757394016.8598201,-0.378,-0.426,9.76,0.3282594134217631,3.3395984456355907,1.6187468671679197,0,0.05
1757394016.8871057,-0.378,-0.426,9.76,0.3282594134217631,3.3395984456355907,1.6187468671679197,0,0.05
1757394016.9132943,-0.487,-0.271,9.912,0.32916130544157224,3.218192423025972,1.6242105263157895,0,0.1
1757394016.9415467,-0.487,-0.271,9.912,0.32916130544157224,3.218192423025972,1.6242105263157895,0,0.1
1757394016.9686081,-0.431,-0.346,9.811,0.3298659841511398,3.224332496208076,1.627017543859649,0,0.1
1757394016.9958107,-0.431,-0.346,9.811,0.3298659841511398,3.224332496208076,1.627017543859649,0,0.1
1757394017.0228484,-0.381,-0.465,9.834,0.33041560193187003,3.4981465003231955,1.6295238095238094,0,0.1
1757394017.0494654,-0.381,-0.465,9.834,0.33041560193187003,3.4981465003231955,1.6295238095238094,0,0.1
1757394017.0766168,-0.486,-0.292,9.901,0.3313079534209826,3.2774268059892724,1.6347869674185462,0,0.1
1757394017.1041882,-0.486,-0.292,9.901,0.3313079534209826,3.2774268059892724,1.6347869674185462,0,0.1
1757394017.13151,-0.514,-0.38,9.941,0.33230325005933964,3.679104625496692,1.6361904761904762,0,0.1
1757394017.1573026,-0.514,-0.38,9.941,0.33230325005933964,3.679104625496692,1.6361904761904762,0,0.1
1757394017.1833646,-0.036,-0.496,9.693,0.3323081250887495,2.9370165229689085,1.6601503759398495,0,0.1
1757394017.2104173,-0.036,-0.496,9.693,0.3323081250887495,2.9370165229689085,1.6601503759398495,0,0.1
1757394017.2382889,-0.376,-0.591,9.889,0.3328394958534819,4.051674009599379,1.6771929824561405,0,0.1
1757394017.266122,-0.376,-0.591,9.889,0.3328394958534819,4.051674009599379,1.6771929824561405,0,0.1
1757394017.293142,-0.115,-0.439,9.643,0.3328891594810501,2.694429548135467,1.690275689223058,0,0.1
1757394017.3205593,-0.115,-0.439,9.643,0.3328891594810501,2.694429548135467,1.690275689223058,0,0.1
1757394017.3477511,-0.115,-0.439,9.643,0.3328891594810501,2.694429548135467,1.690275689223058,0,0.1
1757394017.375963,-0.165,-0.777,9.604,0.33299137376214416,4.728049086500084,1.6927819548872183,0,0.1
1757394017.4038408,-0.165,-0.777,9.604,0.33299137376214416,4.728049086500084,1.6927819548872183,0,0.1
1757394017.431266,-0.27,-0.806,9.701,0.33326491714550455,5.007582401762705,1.698045112781955,0,0.1
1757394017.458467,-0.183,-0.622,9.57,0.33339050301410805,3.8758320682585623,1.702406015037594,0,0.1
1757394017.4857714,-0.183,-0.622,9.57,0.33339050301410805,3.8758320682585623,1.702406015037594,0,0.1
1757394017.512853,-0.227,-0.61,9.503,0.3335836476807579,3.9181136668442353,1.7046115288220551,0,0.1
1757394017.538932,-0.227,-0.61,9.503,0.3335836476807579,3.9181136668442353,1.7046115288220551,0,0.1
1757394017.5668154,-0.326,-0.572,9.592,0.3339816462023026,3.926515799192568,1.7095739348370924,0,0.1
1757394017.5941787,-0.326,-0.572,9.592,0.3339816462023026,3.926515799192568,1.7095739348370924,0,0.1
1757394017.6216185,-0.195,-0.407,9.567,0.3341239328452842,2.700802476602595,1.7161403508771926,0,0.1
1757394017.6493635,-0.195,-0.407,9.567,0.3341239328452842,2.700802476602595,1.7161403508771926,0,0.1
1757394017.676435,-0.359,-0.473,9.487,0.3346057456171367,3.5815816160707272,1.724360902255639,0,0.1
1757394017.703774,-0.359,-0.473,9.487,0.3346057456171367,3.5815816160707272,1.724360902255639,0,0.1
1757394017.7307677,-0.195,-0.367,9.481,0.33474776698284336,2.509887965961229,1.7325814536340851,0,0.1
1757394017.7580945,-0.195,-0.367,9.481,0.33474776698284336,2.509887965961229,1.7325814536340851,0,0.1
1757394017.785331,-0.169,-0.289,9.51,0.3348544011955047,2.0161866804179067,1.7338847117794487,0,0.1
1757394017.8126833,-0.169,-0.289,9.51,0.3348544011955047,2.0161866804179067,1.7338847117794487,0,0.1
1757394017.8400745,-0.128,-0.373,9.334,0.3349155565213417,2.4192457358574635,1.7359398496240601,0,0.1
1757394017.8677123,-0.128,-0.373,9.334,0.3349155565213417,2.4192457358574635,1.7359398496240601,0,0.1
1757394017.8950984,-0.263,-0.323,9.469,0.3351736154592124,2.518754640006758,1.742706766917293,0,0.1
1757394017.923047,-0.263,-0.323,9.469,0.3351736154592124,2.518754640006758,1.742706766917293,0,0.1
1757394017.9504108,-0.175,-0.236,9.475,0.3352878092027803,1.7760799393251028,1.7471177944862153,0,0.1
1757394017.9776502,-0.175,-0.236,9.475,0.3352878092027803,1.7760799393251028,1.7471177944862153,0,0.1
1757394018.004902,-0.126,-0.189,9.301,0.3353469919352192,1.3990037954943928,1.7495739348370924,0,0.1
1757394018.031303,-0.126,-0.189,9.301,0.3353469919352192,1.3990037954943928,1.7495739348370924,0,0.1
1757394018.0586216,-0.484,-0.146,9.584,0.3362190431846477,3.0194660732566687,1.7675187969924813,0,0.1
1757394018.086112,-0.484,-0.146,9.584,0.3362190431846477,3.0194660732566687,1.7675187969924813,0,0.1
1757394018.1132162,-0.31,-0.325,9.635,0.33657613551765664,2.6689257992847955,1.7762406015037593,0,0.1
1757394018.1407373,-0.31,-0.325,9.635,0.33657613551765664,2.6689257992847955,1.7762406015037593,0,0.1
1757394018.1677847,-0.473,-0.201,9.562,0.33740601283913124,3.076557823509449,1.784411027568922,0,0.1
1757394018.1951928,-0.473,-0.201,9.562,0.33740601283913124,3.076557823509449,1.784411027568922,0,0.1
1757394018.2235024,-0.377,-0.342,9.615,0.33793215295381407,3.0303721174855354,1.78922305764411,0,0.1
1757394018.2515678,-0.377,-0.342,9.615,0.33793215295381407,3.0303721174855354,1.78922305764411,0,0.1
1757394018.2793396,-0.318,-0.435,9.878,0.3383060005379745,3.1223642259458444,1.7921804511278194,0,0.1
1757394018.306101,-0.318,-0.435,9.878,0.3383060005379745,3.1223642259458444,1.7921804511278194,0,0.1
1757394018.334511,-0.351,-0.385,9.686,0.33876090757346844,3.0788292004917817,1.7938345864661653,0,0.1
1757394018.3623903,-0.351,-0.385,9.686,0.33876090757346844,3.0788292004917817,1.7938345864661653,0,0.1
1757394018.388824,-0.439,-0.413,9.774,0.3394712874456395,3.5288029366587037,1.7982456140350878,0,0.1
1757394018.4150033,-0.439,-0.413,9.774,0.3394712874456395,3.5288029366587037,1.7982456140350878,0,0.1
1757394018.4423735,-0.287,-0.377,9.948,0.3397744509229615,2.726873652512645,1.8058646616541352,0,0.1
1757394018.469693,-0.287,-0.377,9.948,0.3397744509229615,2.726873652512645,1.8058646616541352,0,0.1
1757394018.496882,-0.462,-0.305,9.87,0.3405587871425432,3.2102876767553967,1.8146365914786966,0,0.1
1757394018.5238059,-0.462,-0.305,9.87,0.3405587871425432,3.2102876767553967,1.8146365914786966,0,0.1
1757394018.5517538,-0.421,-0.333,9.843,0.341208719114855,3.121471812524223,1.816691729323308,0,0.1
1757394018.5792756,-0.421,-0.333,9.843,0.341208719114855,3.121471812524223,1.816691729323308,0,0.1
1757394018.6065812,-0.313,-0.393,10.03,0.34156743477679485,2.8676029900341775,1.8221052631578947,0,0.1
1757394018.6336868,-0.313,-0.393,10.03,0.34156743477679485,2.8676029900341775,1.8221052631578947,0,0.1
1757394018.6598349,-0.535,-0.315,9.993,0.3426133024270949,3.555109029449649,1.8332330827067667,0,0.1
1757394018.6864264,-0.535,-0.315,9.993,0.3426133024270949,3.555109029449649,1.8332330827067667,0,0.1
1757394018.7132695,-0.318,-0.282,9.8,0.3429820476351496,2.4833678793634086,1.844110275689223,0,0.1
1757394018.7413042,-0.318,-0.282,9.8,0.3429820476351496,2.4833678793634086,1.844110275689223,0,0.1
1757394018.7688408,-0.621,-0.476,9.976,0.3443846504999896,4.484672205912359,1.8592982456140352,0,0.1
1757394018.7965097,-0.621,-0.476,9.976,0.3443846504999896,4.484672205912359,1.8592982456140352,0,0.1
1757394018.82471,-0.39,-0.391,9.864,0.3449362803475448,3.2044449296157484,1.8708771929824561,0,0.1
1757394018.8522327,-0.584,-0.413,9.775,0.3461700124216423,4.185124633001995,1.8806015037593986,0,0.1
1757394018.8798862,-0.584,-0.413,9.775,0.3461700124216423,4.185124633001995,1.8806015037593986,0,0.1
1757394018.9065907,-0.584,-0.413,9.775,0.3461700124216423,4.185124633001995,1.8806015037593986,0,0.1
1757394018.9340062,-0.462,-0.464,9.838,0.34693989032684036,3.8077880793889034,1.8867167919799497,0,0.1
1757394018.9606593,-0.286,-0.334,9.722,0.34723447049508205,2.589676226153451,1.8955388471177943,0,0.1
1757394018.987788,-0.286,-0.334,9.722,0.34723447049508205,2.589676226153451,1.8955388471177943,0,0.1
1757394019.0139039,-0.371,-0.316,9.538,0.3477296075976275,2.9249394456215425,1.8997994987468672,0,0.1
1757394019.0417192,-0.371,-0.316,9.538,0.3477296075976275,2.9249394456215425,1.8997994987468672,0,0.1
1757394019.068508,-0.436,-0.382,9.718,0.34841228451362044,3.413610881161241,1.9030576441102756,0,0.1
1757394019.09607,-0.436,-0.382,9.718,0.34841228451362044,3.413610881161241,1.9030576441102756,0,0.1
1757394019.123183,-0.391,-0.32,9.764,0.34896034516832997,2.9622173357955934,1.9053132832080202,0,0.1
1757394019.1497128,-0.391,-0.32,9.764,0.34896034516832997,2.9622173357955934,1.9053132832080202,0,0.1
1757394019.1767585,-0.394,-0.36,9.697,0.3495159688769599,3.1502479439944215,1.9054636591478695,0,0.1
1757394019.2036226,-0.394,-0.36,9.697,0.3495159688769599,3.1502479439944215,1.9054636591478695,0,0.1
1757394019.2310133,-0.235,-0.494,9.71,0.34971341838711306,3.2245536424943753,1.9134335839598995,0,0.1
1757394019.2581403,-0.235,-0.494,9.71,0.34971341838711306,3.2245536424943753,1.9134335839598995,0,0.1
1757394019.2849953,-0.356,-0.5,9.739,0.35016612486075804,3.6062249209998485,1.9194987468671678,0,0.1
1757394019.3123384,-0.356,-0.5,9.739,0.35016612486075804,3.6062249209998485,1.9194987468671678,0,0.1
1757394019.3399837,-0.308,-0.33,9.714,0.3505046005404209,2.660577722258371,1.9219047619047618,0,0.1
1757394019.367177,-0.308,-0.33,9.714,0.3505046005404209,2.660577722258371,1.9219047619047618,0,0.1
1757394019.3940783,-0.286,-0.223,9.678,0.35079618726548323,2.1460409803069616,1.9230075187969924,0,0.1
1757394019.4214766,-0.286,-0.223,9.678,0.35079618726548323,2.1460409803069616,1.9230075187969924,0,0.1
1757394019.4480882,-0.131,-0.295,9.684,0.3508573321166311,1.9090257341699475,1.9307769423558894,0,0.1
1757394019.4751885,-0.131,-0.295,9.684,0.3508573321166311,1.9090257341699475,1.9307769423558894,0,0.1
1757394019.5024433,-0.348,-0.271,9.653,0.35128852457773224,2.6161846397356965,1.9416541353383456,0,0.1
1757394019.5285854,-0.348,-0.271,9.653,0.35128852457773224,2.6161846397356965,1.9416541353383456,0,0.1
1757394019.5567641,-0.348,-0.271,9.653,0.35128852457773224,2.6161846397356965,1.9416541353383456,0,0.1
1757394019.5839906,-0.187,-0.292,9.705,0.35141293374035054,2.0462290184707266,1.9497243107769424,0,0.1
1757394019.6125016,-0.069,-0.406,9.685,0.3514298685370952,2.4348406734421557,1.9556390977443612,0,0.1
1757394019.6401355,-0.069,-0.406,9.685,0.3514298685370952,2.4348406734421557,1.9556390977443612,0,0.1
1757394019.6666195,-0.211,-0.345,9.69,0.35158818950584786,2.389829186881763,1.9627568922305765,0,0.1
1757394019.6940362,-0.211,-0.345,9.69,0.35158818950584786,2.389829186881763,1.9627568922305765,0,0.1
1757394019.721835,-0.05,-0.236,9.644,0.3515970776329064,1.4329183387182525,1.970827067669173,0,0.1
1757394019.749185,-0.05,-0.236,9.644,0.3515970776329064,1.4329183387182525,1.970827067669173,0,0.1
1757394019.7758267,-0.306,-0.351,9.698,0.3519298154462051,2.7489935593234436,1.9836591478696741,0,0.1
1757394019.8033242,-0.306,-0.351,9.698,0.3519298154462051,2.7489935593234436,1.9836591478696741,0,0.1
1757394019.8304117,0.048,-0.338,9.767,0.3519379988009252,2.0018755919807902,2.0014035087719297,0,0.1
1757394019.857861,0.048,-0.338,9.767,0.3519379988009252,2.0018755919807902,2.0014035087719297,0,0.1
1757394019.8857026,-0.298,-0.418,9.792,0.35225326826021075,3.001008381471998,2.01874686716792,0,0.1
1757394019.9138157,-0.298,-0.418,9.792,0.35225326826021075,3.001008381471998,2.01874686716792,0,0.1
1757394019.9414299,-0.189,-0.415,9.918,0.3523800043986605,2.632498078342661,2.0242105263157892,0,0.1
1757394019.9687169,-0.189,-0.415,9.918,0.3523800043986605,2.632498078342661,2.0242105263157892,0,0.1
1757394019.9960697,-0.339,-0.459,10.074,0.3527874289143535,3.241905897870396,2.0317293233082707,0,0.1
1757394020.022956,-0.339,-0.459,10.074,0.3527874289143535,3.241905897870396,2.0317293233082707,0,0.1
1757394020.0502431,-0.38,-0.388,9.935,0.3532986979879773,3.1289060465843446,2.0337844611528824,0,0.1
1757394020.0778618,-0.38,-0.388,9.935,0.3532986979879773,3.1289060465843446,2.0337844611528824,0,0.1
1757394020.1045969,-0.3,-0.26,9.882,0.35361698205827163,2.300500977527673,2.037794486215539,0,0.1
1757394020.1326563,-0.3,-0.26,9.882,0.35361698205827163,2.300500977527673,2.037794486215539,0,0.1
1757394020.1595964,-0.373,-0.635,10.015,0.3541084473717056,4.205640468366282,2.041453634085213,0,0.65
1757394020.1873403,-0.373,-0.635,10.015,0.3541084473717056,4.205640468366282,2.041453634085213,0,0.65
1757394020.2152393,-0.435,-0.633,9.977,0.3547757813041922,4.402113918418057,2.044561403508772,0,0.65
1757394020.2424722,-0.435,-0.633,9.977,0.3547757813041922,4.402113918418057,2.044561403508772,0,0.65
1757394020.2693934,-0.39,-0.489,9.903,0.35531127902164883,3.614018980369249,2.046817042606516,0,0.65
1757394020.2968516,-0.39,-0.489,9.903,0.35531127902164883,3.614018980369249,2.046817042606516,0,0.65
1757394020.3232396,-0.35,-0.658,9.96,0.35574197812459524,4.279397458885624,2.0488220551378444,0,0.65
1757394020.3507154,-0.35,-0.658,9.96,0.35574197812459524,4.279397458885624,2.0488220551378444,0,0.65
1757394020.3780053,-0.375,-0.733,10.195,0.35623576111895333,4.617226328649198,2.050075187969925,0,0.65
1757394020.4056633,-0.375,-0.733,10.195,0.35623576111895333,4.617226328649198,2.050075187969925,0,0.65
1757394020.4336112,-0.375,-0.733,10.195,0.35623576111895333,4.617226328649198,2.050075187969925,0,0.65
1757394020.461553,-0.314,-0.661,9.998,0.35658155799199714,4.18622315092489,2.0531328320802005,0,0.65
1757394020.489467,-0.442,-0.646,9.886,0.3572657519270494,4.527034616281175,2.059548872180451,0,0.65
1757394020.51583,-0.442,-0.646,9.886,0.3572657519270494,4.527034616281175,2.059548872180451,0,0.65
1757394020.542918,-0.133,-0.694,9.945,0.35732763677051343,4.064248273599662,2.075037593984962,0,0.65
1757394020.5708103,-0.133,-0.694,9.945,0.35732763677051343,4.064248273599662,2.075037593984962,0,0.65
1757394020.5983908,-0.358,-0.606,9.85,0.3577756978890545,4.087209127977531,2.0863157894736846,0,0.65
1757394020.6259248,-0.358,-0.606,9.85,0.3577756978890545,4.087209127977531,2.0863157894736846,0,0.65
1757394020.6535714,-0.262,-0.57,9.816,0.3580154465941379,3.6567435362545417,2.091127819548872,0,0.65
1757394020.6807222,-0.262,-0.57,9.816,0.3580154465941379,3.6567435362545417,2.091127819548872,0,0.65
1757394020.707455,-0.336,-0.565,9.848,0.35840940277844274,3.818857929883707,2.09483709273183,0,0.65
1757394020.7335908,-0.336,-0.565,9.848,0.35840940277844274,3.818857929883707,2.09483709273183,0,0.65
1757394020.7610695,-0.302,-0.422,9.809,0.3587273477168977,3.0283197231394126,2.0965413533834587,0,0.65
1757394020.7888324,-0.302,-0.422,9.809,0.3587273477168977,3.0283197231394126,2.0965413533834587,0,0.65
1757394020.815539,-0.393,-0.317,9.678,0.359265128421894,2.9864877551503763,2.1011027568922307,0,0.65
1757394020.8417757,-0.393,-0.317,9.678,0.359265128421894,2.9864877551503763,2.1011027568922307,0,0.65
1757394020.8682103,-0.36,-0.354,9.728,0.3597157662655336,2.9710373998849686,2.1027568922305764,0,0.65
1757394020.8942606,-0.36,-0.354,9.728,0.3597157662655336,2.9710373998849686,2.1027568922305764,0,0.65
1757394020.921403,-0.545,-0.268,9.74,0.3607464414238899,3.568010102383585,2.11203007518797,0,0.65
1757394020.9482677,-0.545,-0.268,9.74,0.3607464414238899,3.568010102383585,2.11203007518797,0,0.65
1757394020.975908,-0.419,-0.261,9.665,0.3613542548524924,2.923851297487981,2.1183458646616544,0,0.65
1757394021.0037913,-0.419,-0.261,9.665,0.3613542548524924,2.923851297487981,2.1183458646616544,0,0.65
1757394021.0310915,-0.374,-0.205,9.715,0.36183779169677677,2.513729825915567,2.1206015037593984,0,0.65
1757394021.0584292,-0.374,-0.205,9.715,0.36183779169677677,2.513729825915567,2.1206015037593984,0,0.65
1757394021.0850008,-0.272,-0.179,9.632,0.36209328563230775,1.9361764870602818,2.1257142857142854,0,0.65
1757394021.1120818,-0.272,-0.179,9.632,0.36209328563230775,1.9361764870602818,2.1257142857142854,0,0.65
1757394021.1386828,-0.258,-0.043,9.567,0.3623230016159615,1.5660585877216153,2.12641604010025,0,0.65
1757394021.1653852,-0.258,-0.043,9.567,0.3623230016159615,1.5660585877216153,2.12641604010025,0,0.65
1757394021.192148,-0.317,-0.151,9.466,0.3626695189838815,2.1243251542558115,2.1128822055137846,0,0.65
1757394021.2195766,-0.317,-0.151,9.466,0.3626695189838815,2.1243251542558115,2.1128822055137846,0,0.65
1757394021.2467856,-0.141,-0.186,9.554,0.3623648437693701,1.399450723723218,2.121553884711779,0,0.65
1757394021.2753575,-0.141,-0.186,9.554,0.3623648437693701,1.399450723723218,2.121553884711779,0,0.65
1757394021.3033419,-0.191,-0.38,9.554,0.36212400155195457,2.5488674216989424,2.1240100250626566,0,0.65
1757394021.3308754,-0.191,-0.38,9.554,0.36212400155195457,2.5488674216989424,2.1240100250626566,0,0.65
1757394021.3578892,-0.357,-0.218,9.645,0.36219482671623016,2.483326668397038,2.1320802005012527,0,0.65
1757394021.3846064,-0.357,-0.218,9.645,0.36219482671623016,2.483326668397038,2.1320802005012527,0,0.65
1757394021.4115543,-0.122,-0.181,9.683,0.36186564150247813,1.2913614547444874,2.1433082706766915,0,0.65
1757394021.439189,-0.122,-0.181,9.683,0.36186564150247813,1.2913614547444874,2.1433082706766915,0,0.65
1757394021.4667418,-0.35,-0.308,9.746,0.36188239802455163,2.7387921862304827,2.1543859649122803,0,0.65
1757394021.4932034,-0.35,-0.308,9.746,0.36188239802455163,2.7387921862304827,2.1543859649122803,0,0.65
1757394021.5202172,-0.194,-0.403,9.798,0.3615891453016808,2.613651392171183,2.1621052631578945,0,0.65
1757394021.5482104,-0.194,-0.403,9.798,0.3615891453016808,2.613651392171183,2.1621052631578945,0,0.65
1757394021.5758026,-0.258,-0.426,9.91,0.3613908687280297,2.8770314705465965,2.1650125313283204,0,0.65
1757394021.6033006,-0.258,-0.426,9.91,0.3613908687280297,2.8770314705465965,2.1650125313283204,0,0.65
1757394021.6307495,-0.186,-0.388,9.802,0.36106708517947195,2.513502616952117,2.1679197994987467,0,0.65
1757394021.6578035,-0.186,-0.388,9.802,0.36106708517947195,2.513502616952117,2.1679197994987467,0,0.65
1757394021.6841705,-0.37,-0.348,9.739,0.3610619475934843,2.9855762211594388,2.1767919799498747,0,0.65
1757394021.7114918,-0.37,-0.348,9.739,0.3610619475934843,2.9855762211594388,2.1767919799498747,0,0.65
1757394021.7387886,-0.288,-0.423,9.707,0.36085175280161796,3.017735119139926,2.1801503759398493,0,0.65
1757394021.7655072,-0.288,-0.423,9.707,0.36085175280161796,3.017735119139926,2.1801503759398493,0,0.65
1757394021.7932715,-0.347,-0.293,9.685,0.3607310909805253,2.6847903834569045,2.1821052631578945,0,0.65
1757394021.8203804,-0.347,-0.293,9.685,0.3607310909805253,2.6847903834569045,2.1821052631578945,0,0.65
1757394021.8479934,-0.199,-0.278,9.598,0.36027410745153476,2.0400353779726697,2.1885714285714286,0,0.65
1757394021.8762734,-0.199,-0.278,9.598,0.36027410745153476,2.0400353779726697,2.1885714285714286,0,0.65
1757394021.9030492,-0.176,-0.328,9.638,0.35973066313562985,2.2117643324223413,2.1892731829573933,0,0.65
1757394021.9305696,-0.363,-0.249,9.691,0.3595096139187379,2.6007516989738804,2.197393483709273,0,0.65
1757394021.9565625,-0.363,-0.249,9.691,0.3595096139187379,2.6007516989738804,2.197393483709273,0,0.65
1757394021.9830568,-0.438,-0.262,9.642,0.3594183495593958,3.030011244533294,2.2006015037593984,0,0.65
1757394022.0104513,-0.438,-0.262,9.642,0.3594183495593958,3.030011244533294,2.2006015037593984,0,0.65
1757394022.0377495,-0.346,-0.484,9.84,0.3590398724375887,3.4600597511042506,2.2049122807017545,0,0.65
1757394022.0654626,-0.346,-0.484,9.84,0.3590398724375887,3.4600597511042506,2.2049122807017545,0,0.65
1757394022.0924926,-0.435,-0.373,9.764,0.3589230175121122,3.3586763998827074,2.2093233082706765,0,0.65
1757394022.1206274,-0.435,-0.373,9.764,0.3589230175121122,3.3586763998827074,2.2093233082706765,0,0.65
1757394022.147742,-0.458,-0.315,9.712,0.3588743791356524,3.2757587537767816,2.2098746867167915,0,0.65
1757394022.173496,-0.458,-0.315,9.712,0.3588743791356524,3.2757587537767816,2.2098746867167915,0,0.65
1757394022.1998374,-0.501,-0.41,9.762,0.35900838430320814,3.79409090910017,2.2115288220551377,0,0.65
1757394022.2277937,-0.501,-0.41,9.762,0.35900838430320814,3.79409090910017,2.2115288220551377,0,0.65
1757394022.253909,-0.501,-0.41,9.762,0.35900838430320814,3.79409090910017,2.2115288220551377,0,0.65
1757394022.2801454,-0.508,-0.397,9.722,0.3591986602146506,3.7940886963306504,2.2114285714285713,0,0.65
1757394022.307171,-0.511,-0.366,9.757,0.35942741965520664,3.685933564987411,2.211177944862155,0,0.65
1757394022.33407,-0.511,-0.366,9.757,0.35942741965520664,3.685933564987411,2.211177944862155,0,0.65
1757394022.3615448,-0.312,-0.414,9.689,0.35911076285736687,3.0626398506405472,2.2204010025062657,0,0.65
1757394022.3891308,-0.312,-0.414,9.689,0.35911076285736687,3.0626398506405472,2.2204010025062657,0,0.65
1757394022.4172456,-0.583,-0.574,9.742,0.3596823042630816,4.800518024656333,2.232832080200501,0,0.65
1757394022.4446318,-0.583,-0.574,9.742,0.3596823042630816,4.800518024656333,2.232832080200501,0,0.65
1757394022.4718642,-0.33,-0.487,9.76,0.35951574374427614,3.449284859411197,2.2453132832080205,0,0.65
1757394022.4989066,-0.33,-0.487,9.76,0.35951574374427614,3.449284859411197,2.2453132832080205,0,0.65
1757394022.52722,-0.553,-0.453,9.626,0.3600443479628586,4.247157822265701,2.2559398496240597,0,0.65
1757394022.5549157,-0.553,-0.453,9.626,0.3600443479628586,4.247157822265701,2.2559398496240597,0,0.65
1757394022.5812323,-0.336,-0.618,9.648,0.35993231308122364,4.170049200215681,2.2657644110275688,0,0.65
1757394022.6083927,-0.336,-0.618,9.648,0.35993231308122364,4.170049200215681,2.2657644110275688,0,0.65
1757394022.6354494,-0.291,-0.54,9.636,0.35977628118040245,3.642473156346305,2.2671679197994985,0,0.65
1757394022.6622703,-0.291,-0.54,9.636,0.35977628118040245,3.642473156346305,2.2671679197994985,0,0.65
1757394022.6898108,-0.399,-0.457,9.588,0.3599206197205156,3.62050740892397,2.2716791979949873,0,0.65
1757394022.7172098,-0.399,-0.457,9.588,0.3599206197205156,3.62050740892397,2.2716791979949873,0,0.65
1757394022.744583,-0.198,-0.393,9.661,0.3596898664127195,2.6080299471483452,2.281654135338346,0,0.65
1757394022.7712204,-0.198,-0.393,9.661,0.3596898664127195,2.6080299471483452,2.281654135338346,0,0.65
1757394022.797613,-0.263,-0.265,9.681,0.35955861830861463,2.208560395448905,2.2844110275689222,0,0.65
1757394022.8247428,-0.263,-0.265,9.681,0.35955861830861463,2.208560395448905,2.2844110275689222,0,0.65
1757394022.851631,-0.272,-0.307,9.669,0.35946646227429896,2.4290495151489297,2.284611528822055,0,0.65
1757394022.8786726,-0.272,-0.307,9.669,0.35946646227429896,2.4290495151489297,2.284611528822055,0,0.65
1757394022.9059806,-0.369,-0.281,9.871,0.359579379275286,2.690200106035612,2.289172932330827,0,0.65
1757394022.9336176,-0.369,-0.281,9.871,0.359579379275286,2.690200106035612,2.289172932330827,0,0.65
1757394022.9609864,-0.146,-0.257,9.763,0.3592793620568818,1.7341052285366383,2.2996491228070175,0,0.65
1757394022.9887044,-0.146,-0.257,9.763,0.3592793620568818,1.7341052285366383,2.2996491228070175,0,0.65
1757394023.0160594,-0.303,-0.326,9.74,0.3591918324516859,2.6162995855116082,2.306466165413534,0,0.65
1757394023.0440547,-0.303,-0.326,9.74,0.3591918324516859,2.6162995855116082,2.306466165413534,0,0.65
1757394023.0717285,-0.245,-0.344,9.772,0.35894207401752165,2.4746794313673814,2.3090726817042606,0,0.65
1757394023.0989733,-0.245,-0.344,9.772,0.35894207401752165,2.4746794313673814,2.3090726817042606,0,0.65
1757394023.126503,-0.372,-0.391,9.855,0.358949815433857,3.13455986768009,2.3150375939849623,0,0.65
1757394023.1541035,-0.372,-0.391,9.855,0.358949815433857,3.13455986768009,2.3150375939849623,0,0.65
1757394023.181477,-0.303,-0.322,9.792,0.35877453923041974,2.5853654324869484,2.3182456140350878,0,0.65
1757394023.2083318,-0.303,-0.322,9.792,0.35877453923041974,2.5853654324869484,2.3182456140350878,0,0.65
1757394023.2356856,-0.437,-0.349,9.823,0.35893144540427213,3.258535419234344,2.3242606516290727,0,0.65
1757394023.2630093,-0.437,-0.349,9.823,0.35893144540427213,3.258535419234344,2.3242606516290727,0,0.65
1757394023.2909133,-0.546,-0.46,9.877,0.3594231941597537,4.134348068319401,2.3289724310776942,0,0.65
1757394023.3176737,-0.546,-0.46,9.877,0.3594231941597537,4.134348068319401,2.3289724310776942,0,0.65
1757394023.3445601,-0.488,-0.573,9.879,0.3596638569553521,4.356734504930894,2.330827067669173,0,0.65
1757394023.3706594,-0.488,-0.573,9.879,0.3596638569553521,4.356734504930894,2.330827067669173,0,0.65
1757394023.3975968,-0.482,-0.518,9.962,0.3598226507600654,4.062689459959198,2.330576441102757,0,0.65
1757394023.4251757,-0.482,-0.518,9.962,0.3598226507600654,4.062689459959198,2.330576441102757,0,0.65
1757394023.4524043,-0.906,-0.54,10.045,0.3619859216875706,5.9940693449831715,2.3509774436090223,0,0.65
1757394023.4802785,-0.906,-0.54,10.045,0.3619859216875706,5.9940693449831715,2.3509774436090223,0,0.65
1757394023.507722,-0.443,-0.422,10.082,0.3619329081473526,3.472743620067391,2.373634085213032,0,0.65
1757394023.5356982,-0.443,-0.422,10.082,0.3619329081473526,3.472743620067391,2.373634085213032,0,0.65
1757394023.5630174,-0.844,-0.239,10.089,0.36362297438418273,4.9690792004595705,2.393684210526316,0,0.65
1757394023.5903728,-0.844,-0.239,10.089,0.36362297438418273,4.9690792004595705,2.393684210526316,0,0.65
1757394023.6169462,-0.732,-0.402,10.018,0.3646975013624305,4.765278700218864,2.3992481203007516,0,0.65
1757394023.6445043,-0.732,-0.402,10.018,0.3646975013624305,4.765278700218864,2.3992481203007516,0,0.65
1757394023.6719086,-0.632,-0.325,10.211,0.36530565968788387,3.9812674415831335,2.4042105263157896,0,0.65
1757394023.6988175,-0.632,-0.325,10.211,0.36530565968788387,3.9812674415831335,2.4042105263157896,0,0.65
1757394023.7260454,-0.714,-0.257,10.032,0.3662928677984326,4.325752269205281,2.4078696741854637,0,0.65
1757394023.7531486,-0.714,-0.257,10.032,0.3662928677984326,4.325752269205281,2.4078696741854637,0,0.65
1757394023.7801769,-0.693,-0.34,9.927,0.3672053716927355,4.446309503035725,2.408721804511278,0,0.65
1757394023.8075147,-0.693,-0.34,9.927,0.3672053716927355,4.446309503035725,2.408721804511278,0,0.65
1757394023.8349288,-0.334,-0.298,10.059,0.366848896004881,2.5479266609004334,2.4254636591478698,0,0.65
1757394023.8614345,-0.334,-0.298,10.059,0.366848896004881,2.5479266609004334,2.4254636591478698,0,0.65
1757394023.8878562,-0.387,-0.13,9.968,0.3666995159527757,2.3453051896253965,2.4278696741854633,0,0.65
1757394023.9142187,-0.387,-0.13,9.968,0.3666995159527757,2.3453051896253965,2.4278696741854633,0,0.65
1757394023.9412854,-0.499,-0.205,9.838,0.3669032229348769,3.1386795870616164,2.433132832080201,0,0.65
1757394023.9683433,-0.499,-0.205,9.838,0.3669032229348769,3.1386795870616164,2.433132832080201,0,0.65
1757394023.9947305,-0.239,-0.203,9.857,0.3664734881270404,1.8221094153033202,2.4452130325814534,0,0.65
1757394024.0220482,-0.239,-0.203,9.857,0.3664734881270404,1.8221094153033202,2.4452130325814534,0,0.65
1757394024.0490334,-0.357,-0.196,9.851,0.3663376004452723,2.367404344097252,2.450877192982456,0,0.65
1757394024.0759766,-0.357,-0.196,9.851,0.3663376004452723,2.367404344097252,2.450877192982456,0,0.65
1757394024.1027834,-0.358,-0.227,9.798,0.36621797812231993,2.4773081285530845,2.4502756892230577,0,0.65
1757394024.1297386,-0.358,-0.227,9.798,0.36621797812231993,2.4773081285530845,2.4502756892230577,0,0.65
1757394024.1568117,-0.09,-0.117,9.772,0.36572346793718336,0.865415750225022,2.46265664160401,0,0.65
1757394024.1836913,-0.09,-0.117,9.772,0.36572346793718336,0.865415750225022,2.46265664160401,0,0.65
1757394024.210834,-0.219,-0.05,9.844,0.3654193584089382,1.3072347598448621,2.4684210526315784,0,0.65
1757394024.2383523,-0.219,-0.05,9.844,0.3654193584089382,1.3072347598448621,2.4684210526315784,0,0.65
1757394024.2648714,-0.23,-0.139,9.766,0.36516669823520326,1.5762608040659467,2.4683709273182957,0,0.65
1757394024.291543,-0.23,-0.139,9.766,0.36516669823520326,1.5762608040659467,2.4683709273182957,0,0.65
1757394024.318971,-0.268,-0.226,9.779,0.36500744855413564,2.053138197169286,2.46937343358396,0,0.65
1757394024.3466237,-0.268,-0.226,9.779,0.36500744855413564,2.053138197169286,2.46937343358396,0,0.65
1757394024.3733563,-0.19,-0.319,9.848,0.36476704552357797,2.159183977653614,2.4728822055137845,0,0.65
1757394024.3996642,-0.19,-0.319,9.848,0.36476704552357797,2.159183977653614,2.4728822055137845,0,0.65
1757394024.4272325,-0.25,-0.305,9.608,0.36463466305330877,2.3504230043553394,2.475137844611529,0,0.65
1757394024.454532,-0.25,-0.305,9.608,0.36463466305330877,2.3504230043553394,2.475137844611529,0,0.65
1757394024.4819977,-0.432,-0.366,9.685,0.3648941969941424,3.345778487445099,2.4837092731829573,0,0.65
1757394024.509145,-0.432,-0.366,9.685,0.3648941969941424,3.345778487445099,2.4837092731829573,0,0.65
1757394024.5353885,-0.116,-0.513,9.708,0.3645347377137054,3.101088851169125,2.4994486215538845,0,0.65
1757394024.563766,-0.116,-0.513,9.708,0.3645347377137054,3.101088851169125,2.4994486215538845,0,0.65
1757394024.5904698,-0.26,-0.571,9.692,0.3643559866394403,3.7038538471064095,2.506265664160401,0,0.65
1757394024.6183739,-0.26,-0.571,9.692,0.3643559866394403,3.7038538471064095,2.506265664160401,0,0.65
1757394024.6451986,-0.342,-0.739,9.763,0.36432733221651104,4.767820361199334,2.5101253132832078,0,0.65
1757394024.6724496,-0.342,-0.739,9.763,0.36432733221651104,4.767820361199334,2.5101253132832078,0,0.65
1757394024.6995144,-0.191,-0.572,9.778,0.36401017156118043,3.5291784759253786,2.517644110275689,0,0.65
1757394024.7265835,-0.191,-0.572,9.778,0.36401017156118043,3.5291784759253786,2.517644110275689,0,0.65
1757394024.7539918,-0.277,-0.647,9.765,0.36382856883427944,4.122407230994083,2.5216541353383457,0,0.65
1757394024.7820373,-0.277,-0.647,9.765,0.36382856883427944,4.122407230994083,2.5216541353383457,0,0.65
1757394024.809543,-0.261,-0.467,9.716,0.36360231022368383,3.151658813719853,2.5211027568922306,0,0.65
1757394024.8364573,-0.261,-0.467,9.716,0.36360231022368383,3.151658813719853,2.5211027568922306,0,0.65
1757394024.863915,-0.152,-0.471,9.753,0.36315048877841266,2.9050012972781896,2.5071177944862155,0,0.65
1757394024.8911283,-0.152,-0.471,9.753,0.36315048877841266,2.9050012972781896,2.5071177944862155,0,0.65
1757394024.9183466,-0.392,-0.425,9.798,0.3636789449500754,3.3770921150824575,2.488671679197995,0,0.65
1757394024.9453726,-0.392,-0.425,9.798,0.3636789449500754,3.3770921150824575,2.488671679197995,0,0.65
1757394024.9718864,-0.254,-0.332,9.837,0.362607559904644,2.433295854973786,2.471027568922306,0,0.65
1757394024.9984183,-0.254,-0.332,9.837,0.362607559904644,2.433295854973786,2.471027568922306,0,0.65
1757394025.0256472,-0.285,-0.208,9.811,0.36283533799783063,2.0596229580293564,2.4680200501253133,0,0.65
1757394025.0532632,-0.285,-0.208,9.811,0.36283533799783063,2.0596229580293564,2.4680200501253133,0,0.65
1757394025.0812716,-0.306,-0.24,9.968,0.3630001136363458,2.234199729840306,2.4609523809523806,0,0.65
1757394025.109556,-0.306,-0.24,9.968,0.3630001136363458,2.234199729840306,2.4609523809523806,0,0.65
1757394025.136933,-0.439,-0.221,9.782,0.3631768783939859,2.876366515437929,2.4601503759398495,0,0.65
1757394025.1644309,-0.439,-0.221,9.782,0.3631768783939859,2.876366515437929,2.4601503759398495,0,0.65
1757394025.1918826,-0.059,-0.219,9.678,0.36301146676103774,1.3425066582789342,2.4756892230576444,0,0.65
1757394025.2196796,-0.059,-0.219,9.678,0.36301146676103774,1.3425066582789342,2.4756892230576444,0,0.65
1757394025.2472773,-0.467,-0.213,9.825,0.3634584226565674,2.9905504486816095,2.4936340852130328,0,0.65
1757394025.274402,-0.467,-0.213,9.825,0.3634584226565674,2.9905504486816095,2.4936340852130328,0,0.65
1757394025.3019917,-0.383,-0.101,9.831,0.3635487931488702,2.307213241935983,2.494235588972431,0,0.65
1757394025.329167,-0.383,-0.101,9.831,0.3635487931488702,2.307213241935983,2.494235588972431,0,0.65
1757394025.35657,-0.448,-0.268,9.79,0.3639786017061992,3.052350343877757,2.4961403508771935,0,0.65
1757394025.383405,-0.448,-0.268,9.79,0.3639786017061992,3.052350343877757,2.4961403508771935,0,0.65
1757394025.4110203,-0.459,-0.316,9.821,0.3643886867069284,3.247567316749462,2.491228070175439,0,0.65
1757394025.4386618,-0.459,-0.316,9.821,0.3643886867069284,3.247567316749462,2.491228070175439,0,0.65
1757394025.4666874,-0.555,-0.293,9.858,0.3648655574317751,3.642728195593403,2.48671679197995,0,0.65
1757394025.493109,-0.555,-0.293,9.858,0.3648655574317751,3.642728195593403,2.48671679197995,0,0.65
1757394025.5205486,-0.349,-0.322,9.688,0.36510931924561996,2.8060790783963605,2.494636591478697,0,0.65
1757394025.5479167,-0.349,-0.322,9.688,0.36510931924561996,2.8060790783963605,2.494636591478697,0,0.65
1757394025.575654,-0.63,-0.533,9.763,0.3662113358431167,4.83145905435558,2.500852130325815,0,0.65
1757394025.6030765,-0.441,-0.364,9.874,0.36624403749412765,3.3143877165472366,2.5037092731829578,0,0.65
1757394025.6300495,-0.441,-0.364,9.874,0.36624403749412765,3.3143877165472366,2.5037092731829578,0,0.65
1757394025.6576722,-0.735,-0.358,9.88,0.36778152142270554,4.730336373372093,2.507919799498747,0,0.65
1757394025.6852043,-0.735,-0.358,9.88,0.36778152142270554,4.730336373372093,2.507919799498747,0,0.65
1757394025.7126653,-0.459,-0.69,9.928,0.36762044284832696,4.7716034321664855,2.51468671679198,0,0.65
1757394025.7400522,-0.459,-0.69,9.928,0.36762044284832696,4.7716034321664855,2.51468671679198,0,0.65
1757394025.7674973,-0.444,-0.596,9.802,0.36783271673411544,4.335964559088565,2.5111779448621556,0,0.65
1757394025.7945037,-0.444,-0.596,9.802,0.36783271673411544,4.335964559088565,2.5111779448621556,0,0.65
1757394025.8220062,-0.56,-0.444,9.855,0.36862731518432,4.147674677544313,2.509423558897243,0,0.65
1757394025.8486013,-0.56,-0.444,9.855,0.36862731518432,4.147674677544313,2.509423558897243,0,0.65
1757394025.8747826,-0.607,-0.365,9.849,0.36924043318683286,4.113336858958792,2.5102756892230573,0,0.65
1757394025.9012775,-0.607,-0.365,9.849,0.36924043318683286,4.113336858958792,2.5102756892230573,0,0.65
1757394025.9281132,-0.37,-0.365,9.881,0.36915406675262297,3.0109537236474773,2.514786967418546,0,0.65
1757394025.9554405,-0.37,-0.365,9.881,0.36915406675262297,3.0109537236474773,2.514786967418546,0,0.65
1757394025.981148,-0.41,-0.285,9.627,0.36869869134565697,2.9691051752495046,2.5013032581453634,0,0.65
1757394026.0077968,-0.41,-0.285,9.627,0.36869869134565697,2.9691051752495046,2.5013032581453634,0,0.65
1757394026.0346324,-0.536,-0.305,9.71,0.36947498223831066,3.6340895503431776,2.4933834586466164,0,0.65
1757394026.0617435,-0.536,-0.305,9.71,0.36947498223831066,3.6340895503431776,2.4933834586466164,0,0.65
1757394026.0891266,-0.379,-0.268,9.784,0.3690281865928401,2.7162455681361144,2.490125313283208,0,0.65
1757394026.115713,-0.379,-0.268,9.784,0.3690281865928401,2.7162455681361144,2.490125313283208,0,0.65
1757394026.1430318,-0.396,-0.368,9.843,0.36924831753171194,3.14361159706043,2.4900751879699246,0,0.65
1757394026.1706007,-0.396,-0.368,9.843,0.36924831753171194,3.14361159706043,2.4900751879699246,0,0.65
1757394026.198314,-0.319,-0.385,9.688,0.3692439843788928,2.9543450290711197,2.4849122807017543,0,0.65
1757394026.225627,-0.319,-0.385,9.688,0.3692439843788928,2.9543450290711197,2.4849122807017543,0,0.65
1757394026.2525957,-0.288,-0.44,9.656,0.3686746228044453,3.1173005434036187,2.47062656641604,0,0.65
1757394026.2801938,-0.288,-0.44,9.656,0.3686746228044453,3.1173005434036187,2.47062656641604,0,0.65
1757394026.3077557,-0.214,-0.344,9.505,0.3665606975659011,2.44064351972379,2.4662155388471176,0,0.65
1757394026.3357167,-0.214,-0.344,9.505,0.3665606975659011,2.44064351972379,2.4662155388471176,0,0.65
1757394026.3636737,-0.191,-0.268,9.517,0.3652196393952549,1.9804952282007666,2.46110275689223,0,0.65
1757394026.3912897,-0.191,-0.268,9.517,0.3652196393952549,1.9804952282007666,2.46110275689223,0,0.65
1757394026.4189134,-0.162,-0.457,9.628,0.364347011789585,2.882966949239677,2.449624060150376,0,0.65
1757394026.4460745,-0.162,-0.457,9.628,0.364347011789585,2.882966949239677,2.449624060150376,0,0.65
1757394026.473044,-0.284,-0.419,9.593,0.362488654994884,3.0204356761576134,2.440250626566416,0,0.65
1757394026.4993854,-0.284,-0.419,9.593,0.362488654994884,3.0204356761576134,2.440250626566416,0,0.65
1757394026.5258188,-0.111,-0.365,9.589,0.36173916708037024,2.2783500969961055,2.4347869674185465,0,0.65
1757394026.553205,-0.111,-0.365,9.589,0.36173916708037024,2.2783500969961055,2.4347869674185465,0,0.65
1757394026.580853,-0.818,-0.416,9.883,0.36205004143073927,5.305089563549672,2.4565914786967418,0,0.65
1757394026.6082737,-0.818,-0.416,9.883,0.36205004143073927,5.305089563549672,2.4565914786967418,0,0.65
1757394026.634924,-0.267,-0.34,9.864,0.3614701267048219,2.509479248382914,2.4809022556390974,0,0.65
1757394026.6626885,-0.267,-0.34,9.864,0.3614701267048219,2.509479248382914,2.4809022556390974,0,0.65
1757394026.6904955,-0.576,-0.316,9.763,0.3615522507190351,3.8498329636254596,2.4827568922305763,0,0.65
1757394026.718017,-0.576,-0.316,9.763,0.3615522507190351,3.8498329636254596,2.4827568922305763,0,0.65
1757394026.744447,-0.619,-0.365,9.852,0.3625985521206614,4.171738284438622,2.4793984962406013,0,0.65
1757394026.771878,-0.619,-0.365,9.852,0.3625985521206614,4.171738284438622,2.4793984962406013,0,0.65
1757394026.7995198,-0.298,-0.453,9.952,0.3623721809134912,3.1186478679633898,2.4891729323308267,0,0.65
1757394026.8271368,-0.298,-0.453,9.952,0.3623721809134912,3.1186478679633898,2.4891729323308267,0,0.65
1757394026.854386,-0.681,-0.46,9.924,0.3637234904429463,4.733845571460283,2.5059147869674185,0,0.65
1757394026.881407,-0.681,-0.46,9.924,0.3637234904429463,4.733845571460283,2.5059147869674185,0,0.65
1757394026.908988,-0.427,-0.449,9.889,0.36400681312305133,3.5853280738920463,2.5116290726817043,0,0.65
1757394026.9364808,-0.427,-0.449,9.889,0.36400681312305133,3.5853280738920463,2.5116290726817043,0,0.65
1757394026.9633057,-0.278,-0.31,9.953,0.36355787709799386,2.395631164392241,2.5070676691729323,0,0.65
1757394026.9897697,-0.278,-0.31,9.953,0.36355787709799386,2.395631164392241,2.5070676691729323,0,0.65
1757394027.0158386,-0.374,-0.31,9.815,0.36387824886904135,2.833426898579433,2.4893233082706767,0,0.65
1757394027.0436337,-0.374,-0.31,9.815,0.36387824886904135,2.833426898579433,2.4893233082706767,0,0.65
1757394027.0708904,-0.39,-0.205,9.762,0.3628756536335829,2.5842226508457835,2.4767919799498745,0,0.65
1757394027.098132,-0.39,-0.205,9.762,0.3628756536335829,2.5842226508457835,2.4767919799498745,0,0.65
1757394027.1242986,-0.18,-0.355,9.714,0.3624358425983832,2.3463539182947217,2.4839598997493737,0,0.65
1757394027.1517942,-0.18,-0.355,9.714,0.3624358425983832,2.3463539182947217,2.4839598997493737,0,0.65
1757394027.177544,-0.344,-0.38,9.677,0.36209164240562086,3.0320475822936643,2.490576441102757,0,0.65
1757394027.203911,-0.344,-0.38,9.677,0.36209164240562086,3.0320475822936643,2.490576441102757,0,0.65
1757394027.2299259,-0.186,-0.389,9.616,0.36135072298253396,2.56741997217121,2.493333333333333,0,0.65
1757394027.2570531,-0.186,-0.389,9.616,0.36135072298253396,2.56741997217121,2.493333333333333,0,0.65
1757394027.2843974,-0.116,-0.492,9.623,0.3608544651240996,3.0069459288048224,2.4798997493734336,0,0.65
1757394027.3118494,-0.116,-0.492,9.623,0.3608544651240996,3.0069459288048224,2.4798997493734336,0,0.65
1757394027.3400862,-0.027,-0.455,9.644,0.35898590153375104,2.7059332029224414,2.4626065162907267,0,0.65
1757394027.3676162,-0.027,-0.455,9.644,0.35898590153375104,2.7059332029224414,2.4626065162907267,0,0.65
1757394027.3953485,-0.236,-0.452,9.626,0.35886643406704954,3.032199261632516,2.465914786967418,0,0.65
1757394027.4224424,-0.236,-0.452,9.626,0.35886643406704954,3.032199261632516,2.465914786967418,0,0.65
1757394027.44842,-0.331,-0.51,9.598,0.35856435614823734,3.6246310490072498,2.4682706766917293,0,0.65
1757394027.4745674,-0.331,-0.51,9.598,0.35856435614823734,3.6246310490072498,2.4682706766917293,0,0.65
1757394027.5002363,-0.066,-0.513,9.518,0.3577381514459983,3.1105140292526463,2.47859649122807,0,0.65
1757394027.52731,-0.066,-0.513,9.518,0.3577381514459983,3.1105140292526463,2.47859649122807,0,0.65
1757394027.5547237,-0.137,-0.567,9.595,0.3571511549750329,3.4789456713522737,2.4689724310776944,0,0.65
1757394027.5822356,-0.137,-0.567,9.595,0.3571511549750329,3.4789456713522737,2.4689724310776944,0,0.65
1757394027.6101243,-0.374,-0.393,9.594,0.3575405361633839,3.2364897128096737,2.469172932330827,0,0.65
1757394027.6372194,-0.374,-0.393,9.594,0.3575405361633839,3.2364897128096737,2.469172932330827,0,0.65
1757394027.663512,-0.151,-0.407,9.497,0.3570549362493116,2.617170798917748,2.47203007518797,0,0.65
1757394027.691081,-0.151,-0.407,9.497,0.3570549362493116,2.617170798917748,2.47203007518797,0,0.65
1757394027.7179546,-0.105,-0.503,9.504,0.35689851498710384,3.0947352527924568,2.4612531328320806,0,0.65
1757394027.743917,-0.105,-0.503,9.504,0.35689851498710384,3.0947352527924568,2.4612531328320806,0,0.65
1757394027.7712677,-0.301,-0.472,9.593,0.35635029114622596,3.3397582635972336,2.4696240601503763,0,0.65
1757394027.7984536,-0.301,-0.472,9.593,0.35635029114622596,3.3397582635972336,2.4696240601503763,0,0.65
1757394027.8259366,-0.22,-0.479,9.664,0.3557512754720635,3.122006199385569,2.473132832080201,0,0.65
1757394027.8534448,-0.22,-0.479,9.664,0.3557512754720635,3.122006199385569,2.473132832080201,0,0.65
1757394027.8809319,-0.171,-0.487,9.631,0.3551196277312759,3.067688374341458,2.475388471177945,0,0.65
1757394027.909191,-0.171,-0.487,9.631,0.3551196277312759,3.067688374341458,2.475388471177945,0,0.65
1757394027.9365077,-0.259,-0.443,9.673,0.3546330920825072,3.0367195924058157,2.4599498746867168,0,0.65
1757394027.9628222,-0.259,-0.443,9.673,0.3546330920825072,3.0367195924058157,2.4599498746867168,0,0.65
1757394027.9894161,-0.328,-0.39,9.636,0.35500065845009354,3.0272205147351445,2.4411027568922306,0,0.65
1757394028.0151062,-0.328,-0.39,9.636,0.35500065845009354,3.0272205147351445,2.4411027568922306,0,0.65
1757394028.042224,-0.37,-0.337,9.79,0.35459513180527447,2.926436102524957,2.4326315789473685,0,0.65
1757394028.0695212,-0.37,-0.337,9.79,0.35459513180527447,2.926436102524957,2.4326315789473685,0,0.65
1757394028.096812,-0.274,-0.29,9.648,0.3545612711506997,2.3679730892154054,2.4362406015037594,0,0.65
1757394028.1244752,-0.274,-0.29,9.648,0.3545612711506997,2.3679730892154054,2.4362406015037594,0,0.65
1757394028.1518388,-0.265,-0.327,9.741,0.35445901737718566,2.474141381754325,2.435839598997494,0,0.65
1757394028.1792672,-0.265,-0.327,9.741,0.35445901737718566,2.474141381754325,2.435839598997494,0,0.65
1757394028.2067075,-0.243,-0.295,9.847,0.3542785027347835,2.2227325607075143,2.4357894736842107,0,0.65
1757394028.2337472,-0.243,-0.295,9.847,0.3542785027347835,2.2227325607075143,2.4357894736842107,0,0.65
1757394028.2597687,-0.162,-0.289,9.812,0.35392627057058085,1.9338913310683077,2.4367418546365913,0,0.65
1757394028.2867515,-0.162,-0.289,9.812,0.35392627057058085,1.9338913310683077,2.4367418546365913,0,0.65
1757394028.3136008,-0.199,-0.316,9.751,0.3534516727927596,2.1932161898374085,2.4345864661654137,0,0.65
1757394028.3412771,-0.199,-0.316,9.751,0.3534516727927596,2.1932161898374085,2.4345864661654137,0,0.65
1757394028.3683496,-0.296,-0.358,9.822,0.3533598767545631,2.7077266053623377,2.430075187969925,0,0.65
1757394028.3957326,-0.296,-0.358,9.822,0.3533598767545631,2.7077266053623377,2.430075187969925,0,0.65
1757394028.4235227,-0.362,-0.323,9.775,0.35285177128647094,2.841371132515989,2.432781954887218,0,0.65
1757394028.4510646,-0.362,-0.323,9.775,0.35285177128647094,2.841371132515989,2.432781954887218,0,0.65
1757394028.4775362,-0.143,-0.403,9.666,0.3519051789900228,2.533084866195489,2.4393984962406012,0,0.65
1757394028.5044427,-0.143,-0.403,9.666,0.3519051789900228,2.533084866195489,2.4393984962406012,0,0.65
1757394028.5316825,-0.225,-0.463,9.749,0.35070428426239675,3.022577487731749,2.4386967418546366,0,0.65
1757394028.5587637,-0.225,-0.463,9.749,0.35070428426239675,3.022577487731749,2.4386967418546366,0,0.65
1757394028.5854278,-0.217,-0.321,9.693,0.3498812584291991,2.2891117862814943,2.4346365914786965,0,0.65
1757394028.6121175,-0.217,-0.321,9.693,0.3498812584291991,2.2891117862814943,2.4346365914786965,0,0.65
1757394028.6394918,-0.261,-0.379,9.596,0.3494389610504244,2.7455150362414007,2.4365914786967418,0,0.65
1757394028.6678782,-0.261,-0.379,9.596,0.3494389610504244,2.7455150362414007,2.4365914786967418,0,0.65
1757394028.6956358,-0.205,-0.406,9.578,0.3488868405371575,2.7186981812493296,2.439047619047619,0,0.65
1757394028.7221844,-0.205,-0.406,9.578,0.3488868405371575,2.7186981812493296,2.439047619047619,0,0.65
1757394028.749331,-0.153,-0.394,9.515,0.3482891184059588,2.5434538684897894,2.434937343358396,0,0.65
1757394028.7775488,-0.153,-0.394,9.515,0.3482891184059588,2.5434538684897894,2.434937343358396,0,0.65
1757394028.8050735,-0.484,-0.079,9.44,0.34880215022273015,2.9738238426991197,2.444260651629073,0,0.65
1757394028.8321803,-0.484,-0.079,9.44,0.34880215022273015,2.9738238426991197,2.444260651629073,0,0.65
1757394028.8585024,-0.298,-0.274,9.577,0.3484041152167982,2.4204586192003914,2.447919799498747,0,0.65
1757394028.8861463,-0.298,-0.274,9.577,0.3484041152167982,2.4204586192003914,2.447919799498747,0,0.65
1757394028.9126573,-0.361,-0.321,9.783,0.34847143354943744,2.8269168937423244,2.4482706766917293,0,0.65
1757394028.9403968,-0.361,-0.321,9.783,0.34847143354943744,2.8269168937423244,2.4482706766917293,0,0.65
1757394028.968281,-0.27,-0.259,9.76,0.3481872197539709,2.1953044821232846,2.4430075187969926,0,0.65
1757394028.994903,-0.27,-0.259,9.76,0.3481872197539709,2.1953044821232846,2.4430075187969926,0,0.65
1757394029.0217578,-0.521,-0.193,9.699,0.34902557571043413,3.278555847661749,2.451328320802005,0,0.65
1757394029.0491774,-0.521,-0.193,9.699,0.34902557571043413,3.278555847661749,2.451328320802005,0,0.65
1757394029.0765405,-0.179,-0.311,9.789,0.34886150905481106,2.099344683163955,2.4667167919799495,0,0.65
1757394029.1038485,-0.179,-0.311,9.789,0.34886150905481106,2.099344683163955,2.4667167919799495,0,0.65
1757394029.1313186,-0.364,-0.191,9.692,0.34912283296856994,2.4286381551352325,2.4709774436090224,0,0.65
1757394029.1589758,-0.364,-0.191,9.692,0.34912283296856994,2.4286381551352325,2.4709774436090224,0,0.65
1757394029.186509,-0.405,-0.084,9.745,0.34928637963711096,2.4304186339270175,2.4688721804511276,0,0.65
1757394029.213846,-0.405,-0.084,9.745,0.34928637963711096,2.4304186339270175,2.4688721804511276,0,0.65
1757394029.242217,-0.51,-0.306,9.836,0.34997274536740713,3.4603121307854194,2.473684210526316,0,0.65
1757394029.270196,-0.51,-0.306,9.836,0.34997274536740713,3.4603121307854194,2.473684210526316,0,0.65
1757394029.2972097,-0.268,-0.449,9.77,0.34996890218989457,3.063606722391158,2.481453634085213,0,0.65
1757394029.324749,-0.268,-0.449,9.77,0.34996890218989457,3.063606722391158,2.481453634085213,0,0.65
1757394029.3518865,-0.371,-0.403,9.621,0.3503407091675188,3.258596811507386,2.481453634085213,0,0.65
1757394029.377949,-0.371,-0.403,9.621,0.3503407091675188,3.258596811507386,2.481453634085213,0,0.65
1757394029.404528,-0.247,-0.442,9.757,0.35053549748919866,2.9706608288844047,2.4769924812030073,0,0.65
1757394029.4316852,-0.247,-0.442,9.757,0.35053549748919866,2.9706608288844047,2.4769924812030073,0,0.65
1757394029.4578822,-0.226,-0.346,9.69,0.3504114759821658,2.442134085826078,2.4682706766917293,0,0.65
1757394029.483445,-0.226,-0.346,9.69,0.3504114759821658,2.442134085826078,2.4682706766917293,0,0.65
1757394029.509421,-0.423,-0.356,9.649,0.3510149783128919,3.279356134666584,2.4776942355889724,0,0.65
1757394029.5358973,-0.423,-0.356,9.649,0.3510149783128919,3.279356134666584,2.4776942355889724,0,0.65
1757394029.5641813,-0.233,-0.269,9.689,0.35116750276755393,2.103541497745292,2.4829072681704263,0,0.65
1757394029.5914962,-0.233,-0.269,9.689,0.35116750276755393,2.103541497745292,2.4829072681704263,0,0.65
1757394029.6181457,-0.411,-0.255,9.955,0.3516358841187856,2.7816199269356088,2.4910275689223056,0,0.65
1757394029.6457112,-0.411,-0.255,9.955,0.3516358841187856,2.7816199269356088,2.4910275689223056,0,0.65
1757394029.6729383,-0.559,-0.222,9.847,0.3525901232309266,3.4953665843122366,2.4946365914786965,0,0.65
1757394029.6999571,-0.559,-0.222,9.847,0.3525901232309266,3.4953665843122366,2.4946365914786965,0,0.65
1757394029.7275274,-0.884,-0.343,9.934,0.35528750681666255,5.452427771410654,2.4974436090225565,0,0.65
1757394029.754942,-0.884,-0.343,9.934,0.35528750681666255,5.452427771410654,2.4974436090225565,0,0.65
1757394029.782386,-0.406,-0.143,9.926,0.35529887770720586,2.483112935232493,2.5206015037593983,0,0.65
1757394029.8099978,-0.406,-0.143,9.926,0.35529887770720586,2.483112935232493,2.5206015037593983,0,0.65
1757394029.8371243,-0.623,-0.024,9.784,0.35613919329385807,3.6461073877422234,2.527017543859649,0,0.65
1757394029.8650126,-0.623,-0.024,9.784,0.35613919329385807,3.6461073877422234,2.527017543859649,0,0.65
1757394029.8931112,-0.586,-0.081,9.775,0.3565523138334682,3.463250000171303,2.5243107769423556,0,0.65
1757394029.920516,-0.586,-0.081,9.775,0.3565523138334682,3.463250000171303,2.5243107769423556,0,0.65
1757394029.947504,-0.454,-0.135,9.938,0.35675790460759244,2.728660205273119,2.5243609022556392,0,0.65
1757394029.9740138,-0.454,-0.135,9.938,0.35675790460759244,2.728660205273119,2.5243609022556392,0,0.65
1757394030.0014834,-0.539,-0.138,9.779,0.3575506712341623,3.256387980439059,2.5259649122807013,0,0.65
1757394030.0292215,-0.539,-0.138,9.779,0.3575506712341623,3.256387980439059,2.5259649122807013,0,0.65
1757394030.0565643,-0.467,-0.233,9.705,0.357985495516229,3.0781869066695595,2.5286215538847117,0,0.65
1757394030.083985,-0.309,-0.294,9.937,0.35795007333425705,2.457748820193909,2.530225563909774,0,0.65
1757394030.110824,-0.309,-0.294,9.937,0.35795007333425705,2.457748820193909,2.530225563909774,0,0.65
1757394030.1382916,-0.363,-0.132,9.67,0.3582717892885232,2.28738658493916,2.5302756892230573,0,0.65
1757394030.166146,-0.363,-0.132,9.67,0.3582717892885232,2.28738658493916,2.5302756892230573,0,0.65
1757394030.1944697,-0.453,-0.322,9.663,0.3587658533082545,3.2918229500973593,2.5322305764411026,0,0.65
1757394030.2223415,-0.453,-0.322,9.663,0.3587658533082545,3.2918229500973593,2.5322305764411026,0,0.65
1757394030.2505825,-0.359,-0.364,9.931,0.3590740000334193,2.9469998701269398,2.535739348370927,0,0.65
1757394030.2777805,-0.359,-0.364,9.931,0.3590740000334193,2.9469998701269398,2.535739348370927,0,0.65
1757394030.305645,-0.437,-0.355,9.913,0.35956223035797297,3.2506986636750295,2.5367418546365914,0,0.65
1757394030.3327644,-0.437,-0.355,9.913,0.35956223035797297,3.2506986636750295,2.5367418546365914,0,0.65
1757394030.36028,-0.427,-0.317,9.798,0.3600987329886069,3.1067963588891545,2.5330827067669173,0,0.65
1757394030.3882153,-0.427,-0.317,9.798,0.3600987329886069,3.1067963588891545,2.5330827067669173,0,0.65
1757394030.4162183,-0.23,-0.295,9.7,0.3600654072526268,2.2084288349083296,2.5408521303258143,0,0.65
1757394030.444011,-0.23,-0.295,9.7,0.3600654072526268,2.2084288349083296,2.5408521303258143,0,0.65
1757394030.4712405,-0.392,-0.393,9.745,0.3603027858621135,3.260068844478134,2.547769423558897,0,0.65
1757394030.4987302,-0.392,-0.393,9.745,0.3603027858621135,3.260068844478134,2.547769423558897,0,0.65
1757394030.5260146,-0.274,-0.274,9.663,0.3602168062431291,2.296379083307481,2.5454636591478694,0,0.65
1757394030.5535746,-0.274,-0.274,9.663,0.3602168062431291,2.296379083307481,2.5454636591478694,0,0.65
1757394030.581245,-0.542,-0.273,9.699,0.3611548109883073,3.5803592050601654,2.5409523809523806,0,0.65
1757394030.6090515,-0.542,-0.273,9.699,0.3611548109883073,3.5803592050601654,2.5409523809523806,0,0.65
1757394030.6362565,-0.197,-0.282,9.652,0.36038808248886367,2.0411479158421724,2.540150375939849,0,0.65
1757394030.664472,-0.197,-0.282,9.652,0.36038808248886367,2.0411479158421724,2.540150375939849,0,0.65
1757394030.69223,-0.413,-0.211,9.832,0.3609023275070417,2.7006548005011526,2.5505263157894733,0,0.65
1757394030.7200933,-0.413,-0.211,9.832,0.3609023275070417,2.7006548005011526,2.5505263157894733,0,0.65
1757394030.747516,-0.519,-0.049,9.729,0.3617478161647973,3.0671405102015616,2.5499749373433587,0,0.65
1757394030.774474,-0.519,-0.049,9.729,0.3617478161647973,3.0671405102015616,2.5499749373433587,0,0.65
1757394030.8024642,-0.317,-0.165,9.804,0.3618337221708336,2.087595455983959,2.5557894736842104,0,0.65
1757394030.8291497,-0.317,-0.165,9.804,0.3618337221708336,2.087595455983959,2.5557894736842104,0,0.65
1757394030.855933,-0.22,-0.252,9.826,0.36187752071660934,1.9498489832911223,2.5569924812030074,0,0.65
1757394030.8831632,-0.22,-0.252,9.826,0.36187752071660934,1.9498489832911223,2.5569924812030074,0,0.65
1757394030.9102092,-0.608,-0.064,9.726,0.36310585233510073,3.5967791012672716,2.568571428571429,0,0.65
1757394030.9384933,-0.608,-0.064,9.726,0.36310585233510073,3.5967791012672716,2.568571428571429,0,0.65
1757394030.9663868,-0.443,-0.116,9.918,0.3635246346535541,2.6435929574442736,2.5733834586466164,0,0.65
1757394030.9920666,-0.443,-0.116,9.918,0.3635246346535541,2.6435929574442736,2.5733834586466164,0,0.65
1757394031.0189526,-0.362,-0.109,9.763,0.3638320079377294,2.2175657840082517,2.570977443609023,0,0.65
1757394031.0468311,-0.362,-0.109,9.763,0.3638320079377294,2.2175657840082517,2.570977443609023,0,0.65
1757394031.0732577,-0.418,-0.214,9.74,0.3644125100761498,2.760269582737812,2.5729824561403505,0,0.65
1757394031.1005611,-0.418,-0.214,9.74,0.3644125100761498,2.760269582737812,2.5729824561403505,0,0.65
1757394031.1271217,-0.317,-0.202,9.723,0.36472866284403804,2.2139430581149777,2.5650125313283207,0,0.65
1757394031.153883,-0.317,-0.202,9.723,0.36472866284403804,2.2139430581149777,2.5650125313283207,0,0.65
1757394031.1812947,-0.461,-0.131,9.759,0.36503465246466665,2.811460819648571,2.5631077694235587,0,0.65
1757394031.2084548,-0.461,-0.131,9.759,0.36503465246466665,2.811460819648571,2.5631077694235587,0,0.65
1757394031.2351992,-0.393,-0.262,9.646,0.36546548058606027,2.803313102177892,2.5653634085213035,0,0.65
1757394031.2634711,-0.393,-0.262,9.646,0.36546548058606027,2.803313102177892,2.5653634085213035,0,0.65
1757394031.2912934,-0.568,-0.116,9.863,0.3664945940938284,3.3638416630104246,2.5683208020050126,0,0.65
1757394031.3195255,-0.568,-0.116,9.863,0.3664945940938284,3.3638416630104246,2.5683208020050126,0,0.65
1757394031.3463328,-0.275,-0.205,9.702,0.3665184033578669,2.0247736794898987,2.575187969924812,0,0.65
