timestamp,ax,ay,az,rms,tilt_now,jerk,tilt_crosses,freq
1757394503.0323882,0.155,-0.335,9.761,0.00775,2.165657051906517,0.007769423558897242,0,0.1
1757394503.0604815,0.163,-0.343,9.765,0.011246555028096381,2.2271081945634807,0.008170426065162906,0,0.05
1757394503.086195,0.156,-0.352,9.756,0.013686672349406192,2.259998901039141,0.008521303258145364,0,0.05
1757394503.1143446,0.159,-0.35,9.757,0.01582806052553502,2.2562699284170398,0.008671679197994987,0,0.05
1757394503.1423204,0.166,-0.353,9.75,0.017872255033990536,2.2910989154840498,0.009022556390977444,0,0.05
1757394503.1679025,0.176,-0.361,9.748,0.019921282589231044,2.3592540396628428,0.009523809523809523,0,0.05
1757394503.193626,0.188,-0.363,9.738,0.02202765307516895,2.403826181224524,0.01012531328320802,0,0.05
1757394503.218659,0.19,-0.37,9.734,0.023988903684828953,2.4467535838625025,0.010225563909774436,0,0.05
1757394503.2435837,0.2,-0.379,9.727,0.02598975759794616,2.5225965499441148,0.010726817042606517,0,0.05
1757394503.2694845,0.21,-0.363,9.731,0.028030652864319803,2.467693153386641,0.011228070175438596,0,0.05
1757394503.2944262,0.204,-0.366,9.734,0.029828803194228228,2.464852220320972,0.011528822055137843,0,0.05
1757394503.3193605,0.213,-0.368,9.74,0.031673016907140375,2.499647820982003,0.011979949874686716,0,0.05
1757394503.3447626,0.227,-0.375,9.737,0.033645244834894575,2.577680185248829,0.012681704260651627,0,0.05
1757394503.3704858,0.238,-0.386,9.736,0.035687707967870394,2.6667487603555404,0.013233082706766916,0,0.05
1757394503.3961904,0.244,-0.385,9.745,0.037715414620550045,2.677974215269007,0.013533834586466164,0,0.05
1757394503.421439,0.267,-0.385,9.732,0.04000843661029509,2.7562363649813966,0.014686716791979948,0,0.05
1757394503.4471464,0.278,-0.396,9.723,0.04235427959486503,2.848819664300543,0.015238095238095238,0,0.05
1757394503.4728043,0.278,-0.396,9.723,0.04235427959486503,2.848819664300543,0.015238095238095238,0,0.05
1757394503.498047,0.278,-0.396,9.723,0.04235427959486503,2.848819664300543,0.015238095238095238,0,0.05
1757394503.5233176,0.292,-0.394,9.73,0.04480005580353668,2.8853598674041048,0.01593984962406015,0,0.05
1757394503.5486655,0.292,-0.394,9.73,0.04480005580353668,2.8853598674041048,0.01593984962406015,0,0.05
1757394503.5739014,0.299,-0.409,9.738,0.04722867243529084,2.978236481514548,0.016290726817042613,0,0.05
1757394503.5994616,0.299,-0.409,9.738,0.04722867243529084,2.978236481514548,0.016290726817042613,0,0.05
1757394503.624994,0.3,-0.407,9.744,0.04955348120969909,2.9704214242908553,0.01634085213032582,0,0.05
1757394503.6507425,0.3,-0.407,9.744,0.04955348120969909,2.9704214242908553,0.01634085213032582,0,0.05
1757394503.6759446,0.307,-0.404,9.752,0.051876487930468076,2.9784929847844572,0.016691729323308275,0,0.05
1757394503.7017882,0.307,-0.404,9.752,0.051876487930468076,2.9784929847844572,0.016691729323308275,0,0.05
1757394503.7282023,0.309,-0.392,9.75,0.05412829666634634,2.9306579116083116,0.01679197994987469,0,0.05
1757394503.753938,0.309,-0.392,9.75,0.05412829666634634,2.9306579116083116,0.01679197994987469,0,0.05
1757394503.7790177,0.3,-0.393,9.741,0.05616825170859424,2.9056325547580166,0.01724310776942356,0,0.05
1757394503.8043106,0.3,-0.393,9.741,0.05616825170859424,2.9056325547580166,0.01724310776942356,0,0.05
1757394503.8300185,0.296,-0.395,9.736,0.058085389729259806,2.902321867075376,0.017443609022556393,0,0.05
1757394503.8555298,0.296,-0.395,9.736,0.058085389729259806,2.902321867075376,0.017443609022556393,0,0.05
1757394503.8808477,0.3,-0.386,9.725,0.05999093681548905,2.877815269862472,0.017644110275689226,0,0.05
1757394503.9059348,0.3,-0.386,9.725,0.05999093681548905,2.877815269862472,0.017644110275689226,0,0.05
1757394503.931682,0.296,-0.377,9.728,0.061789582455297434,2.8207917525249866,0.01784461152882206,0,0.05
1757394503.957197,0.296,-0.377,9.728,0.061789582455297434,2.8207917525249866,0.01784461152882206,0,0.05
1757394503.9825752,0.296,-0.377,9.728,0.061789582455297434,2.8207917525249866,0.01784461152882206,0,0.05
1757394504.0085218,0.293,-0.365,9.75,0.06350255900355513,2.748401355576599,0.017994987468671682,0,0.05
1757394504.0340495,0.293,-0.365,9.75,0.06350255900355513,2.748401355576599,0.017994987468671682,0,0.05
1757394504.059382,0.281,-0.363,9.761,0.06503827719120486,2.6925986567992815,0.018596491228070177,0,0.05
1757394504.0846078,0.281,-0.363,9.761,0.06503827719120486,2.6925986567992815,0.018596491228070177,0,0.05
1757394504.109744,0.269,-0.358,9.754,0.06641445625765523,2.6285685367140874,0.019197994987468676,0,0.05
1757394504.134888,0.269,-0.358,9.754,0.06641445625765523,2.6285685367140874,0.019197994987468676,0,0.05
1757394504.160116,0.267,-0.351,9.73,0.06774291475866683,2.5951430316207853,0.019298245614035085,0,0.05
1757394504.185051,0.267,-0.351,9.73,0.06774291475866683,2.5951430316207853,0.019298245614035085,0,0.05
1757394504.2100186,0.251,-0.354,9.727,0.06889560943920882,2.554468749715168,0.02010025062656642,0,0.05
1757394504.2351098,0.251,-0.354,9.727,0.06889560943920882,2.554468749715168,0.02010025062656642,0,0.05
1757394504.2601693,0.251,-0.354,9.727,0.06889560943920882,2.554468749715168,0.02010025062656642,0,0.05
1757394504.285183,0.255,-0.358,9.738,0.07006545154353891,2.5843385048692338,0.020300751879699253,0,0.05
1757394504.310172,0.242,-0.36,9.739,0.07110258434121786,2.5502901323387355,0.020952380952380955,0,0.05
1757394504.3352518,0.242,-0.36,9.739,0.07110258434121786,2.5502901323387355,0.020952380952380955,0,0.05
1757394504.360381,0.242,-0.36,9.739,0.07110258434121786,2.5502901323387355,0.020952380952380955,0,0.05
1757394504.385386,0.235,-0.351,9.743,0.07206691335141252,2.4824877631999818,0.021303258145363407,0,0.05
1757394504.4103916,0.235,-0.351,9.743,0.07206691335141252,2.4824877631999818,0.021303258145363407,0,0.05
1757394504.4354906,0.231,-0.344,9.752,0.07298659123428083,2.4330393783333464,0.02150375939849624,0,0.05
1757394504.4605873,0.231,-0.344,9.752,0.07298659123428083,2.4330393783333464,0.02150375939849624,0,0.05
1757394504.485691,0.227,-0.338,9.743,0.07386382741234034,2.3929532334730412,0.021704260651629073,0,0.05
1757394504.5108025,0.227,-0.338,9.743,0.07386382741234034,2.3929532334730412,0.021704260651629073,0,0.05
1757394504.5360694,0.22,-0.333,9.753,0.07467841053477237,2.343338644535547,0.02205513784461153,0,0.05
1757394504.5612614,0.22,-0.333,9.753,0.07467841053477237,2.343338644535547,0.02205513784461153,0,0.05
1757394504.5867352,0.218,-0.337,9.754,0.07546969590504522,2.356314620902822,0.022155388471177945,0,0.05
1757394504.6124232,0.218,-0.337,9.754,0.07546969590504522,2.356314620902822,0.022155388471177945,0,0.05
1757394504.6375086,0.235,-0.341,9.756,0.0763789074286874,2.4306915347532922,0.02300751879699249,0,0.05
1757394504.6625319,0.235,-0.341,9.756,0.0763789074286874,2.4306915347532922,0.02300751879699249,0,0.05
1757394504.687553,0.235,-0.341,9.756,0.0763789074286874,2.4306915347532922,0.02300751879699249,0,0.05
1757394504.7124763,0.234,-0.343,9.748,0.07726983564108313,2.439043769176349,0.023057644110275697,0,0.05
1757394504.7374034,0.234,-0.343,9.748,0.07726983564108313,2.439043769176349,0.023057644110275697,0,0.05
1757394504.7624238,0.224,-0.346,9.748,0.07807731744879559,2.421223901389657,0.023558897243107765,0,0.05
1757394504.7873054,0.224,-0.346,9.748,0.07807731744879559,2.421223901389657,0.023558897243107765,0,0.05
1757394504.8121877,0.237,-0.353,9.742,0.07897145053752021,2.4990317577457546,0.02421052631578947,0,0.05
1757394504.837184,0.237,-0.353,9.742,0.07897145053752021,2.4990317577457546,0.02421052631578947,0,0.05
1757394504.862181,0.241,-0.356,9.752,0.07988549618047071,2.524171178834473,0.024411027568922303,0,0.05
1757394504.8873012,0.241,-0.356,9.752,0.07988549618047071,2.524171178834473,0.024411027568922303,0,0.05
1757394504.9121966,0.236,-0.362,9.759,0.08075229098917255,2.5354344207369026,0.02466165413533834,0,0.05
1757394504.937012,0.236,-0.362,9.759,0.08075229098917255,2.5354344207369026,0.02466165413533834,0,0.05
1757394504.961828,0.224,-0.359,9.761,0.08152528748799356,2.482287796636057,0.025263157894736838,0,0.05
1757394504.9870014,0.224,-0.359,9.761,0.08152528748799356,2.482287796636057,0.025263157894736838,0,0.05
1757394505.0123024,0.214,-0.351,9.754,0.08222446412108747,2.4133617897902755,0.025764411027568917,0,0.05
1757394505.0372567,0.214,-0.351,9.754,0.08222446412108747,2.4133617897902755,0.025764411027568917,0,0.05
1757394505.0622616,0.214,-0.351,9.754,0.08222446412108747,2.4133617897902755,0.025764411027568917,0,0.05
1757394505.0879347,0.197,-0.348,9.734,0.08281234811306826,2.3524967467759876,0.02661654135338345,0,0.05
1757394505.1129127,0.197,-0.348,9.734,0.08281234811306826,2.3524967467759876,0.02661654135338345,0,0.05
1757394505.1379526,0.191,-0.34,9.719,0.08336118701170227,2.2977650426583827,0.026917293233082704,0,0.05
1757394505.1629555,0.191,-0.34,9.719,0.08336118701170227,2.2977650426583827,0.026917293233082704,0,0.05
1757394505.1879823,0.183,-0.342,9.724,0.08386185068313243,2.2842725683775,0.027318295739348377,0,0.05
1757394505.2130365,0.183,-0.342,9.724,0.08386185068313243,2.2842725683775,0.027318295739348377,0,0.05
1757394505.2380176,0.174,-0.339,9.718,0.0843119208653201,2.245443528506039,0.02776942355889724,0,0.05
1757394505.263316,0.174,-0.339,9.718,0.0843119208653201,2.245443528506039,0.02776942355889724,0,0.05
1757394505.2891223,0.175,-0.329,9.732,0.08476474797933396,2.1928371307603545,0.027819548872180456,0,0.05
1757394505.314771,0.175,-0.329,9.732,0.08476474797933396,2.1928371307603545,0.027819548872180456,0,0.05
1757394505.3398786,0.179,-0.332,9.736,0.08523593725653517,2.218574272118426,0.02802005012531328,0,0.05
1757394505.364951,0.179,-0.332,9.736,0.08523593725653517,2.218574272118426,0.02802005012531328,0,0.05
1757394505.3899128,0.18,-0.32,9.746,0.08570977190495842,2.1574257131609658,0.028070175438596495,0,0.05
1757394505.4150188,0.18,-0.32,9.746,0.08570977190495842,2.1574257131609658,0.028070175438596495,0,0.05
1757394505.4399557,0.18,-0.32,9.746,0.08570977190495842,2.1574257131609658,0.028070175438596495,0,0.05
1757394505.4649513,0.165,-0.328,9.754,0.08610590862420534,2.155729806439648,0.028822055137844603,0,0.05
1757394505.490018,0.165,-0.328,9.754,0.08610590862420534,2.155729806439648,0.028822055137844603,0,0.05
1757394505.5149057,0.164,-0.331,9.753,0.08649547676034858,2.1690760175605743,0.02887218045112781,0,0.05
1757394505.5398176,0.164,-0.331,9.753,0.08649547676034858,2.1690760175605743,0.02887218045112781,0,0.05
1757394505.564865,0.157,-0.33,9.743,0.08685096430092183,2.148061485071698,0.02922305764411027,0,0.05
1757394505.5900514,0.157,-0.33,9.743,0.08685096430092183,2.148061485071698,0.02922305764411027,0,0.05
1757394505.6150305,0.152,-0.334,9.739,0.08718285381885592,2.157854556501931,0.02947368421052631,0,0.05
1757394505.639921,0.152,-0.334,9.739,0.08718285381885592,2.157854556501931,0.02947368421052631,0,0.05
1757394505.6649458,0.144,-0.34,9.741,0.08747965477755384,2.1707833952342277,0.029874686716791974,0,0.05
1757394505.6899893,0.144,-0.34,9.741,0.08747965477755384,2.1707833952342277,0.029874686716791974,0,0.05
1757394505.714945,0.134,-0.34,9.73,0.08773585356055982,2.150985077283869,0.030375939849624053,0,0.05
1757394505.7399201,0.134,-0.34,9.73,0.08773585356055982,2.150985077283869,0.030375939849624053,0,0.05
1757394505.7649727,0.118,-0.325,9.736,0.08793400934791953,2.0339138936021643,0.031177944862155384,0,0.05
1757394505.790285,0.118,-0.325,9.736,0.08793400934791953,2.0339138936021643,0.031177944862155384,0,0.05
1757394505.8152435,0.118,-0.325,9.736,0.08793400934791953,2.0339138936021643,0.031177944862155384,0,0.05
1757394505.8402045,0.116,-0.326,9.728,0.08812508156024594,2.037141195257621,0.0312781954887218,0,0.05
1757394505.8652759,0.116,-0.326,9.728,0.08812508156024594,2.037141195257621,0.0312781954887218,0,0.05
1757394505.8903296,0.117,-0.332,9.726,0.0883190381514654,2.072799420858177,0.03132832080200501,0,0.05
1757394505.9153688,0.117,-0.332,9.726,0.0883190381514654,2.072799420858177,0.03132832080200501,0,0.05
1757394505.9404144,0.109,-0.32,9.739,0.08848703294833656,1.988020913275262,0.03172932330827067,0,0.05
1757394505.9655485,0.109,-0.32,9.739,0.08848703294833656,1.988020913275262,0.03172932330827067,0,0.05
1757394505.9907615,0.11,-0.332,9.748,0.08865779717543179,2.054833780364511,0.03177944862155388,0,0.05
1757394506.01581,0.11,-0.332,9.748,0.08865779717543179,2.054833780364511,0.03177944862155388,0,0.05
1757394506.0407865,0.101,-0.318,9.743,0.08880150618092016,1.9613567494800683,0.03223057644110275,0,0.05
1757394506.065857,0.101,-0.318,9.743,0.08880150618092016,1.9613567494800683,0.03223057644110275,0,0.05
1757394506.0915022,0.102,-0.321,9.738,0.08894783583651712,1.9809451344267193,0.03228070175438596,0,0.05
1757394506.1185815,0.102,-0.321,9.738,0.08894783583651712,1.9809451344267193,0.03228070175438596,0,0.05
1757394506.1452,0.208,-0.325,9.801,0.08955376876491575,2.254547137742223,0.037593984962406006,0,0.05
1757394506.1707528,0.208,-0.325,9.801,0.08955376876491575,2.254547137742223,0.037593984962406006,0,0.05
1757394506.1968868,0.208,-0.325,9.801,0.08955376876491575,2.254547137742223,0.037593984962406006,0,0.05
1757394506.223077,0.512,-0.208,9.577,0.09314095500906139,3.3025697758415085,0.05283208020050125,0,0.05
1757394506.2502487,0.512,-0.208,9.577,0.09314095500906139,3.3025697758415085,0.05283208020050125,0,0.05
1757394506.2773132,0.186,-0.619,9.692,0.093604099803374,3.8152984737876405,0.06917293233082707,0,0.05
1757394506.3042326,0.186,-0.619,9.692,0.093604099803374,3.8152984737876405,0.06917293233082707,0,0.05
1757394506.330845,0.249,-0.262,9.772,0.09442843851298188,2.11830080673336,0.07233082706766918,0,0.05
1757394506.3575053,0.249,-0.262,9.772,0.09442843851298188,2.11830080673336,0.07233082706766918,0,0.05
1757394506.384516,0.433,-0.149,9.698,0.09687854509642473,2.7033785672304647,0.08155388471177945,0,0.05
1757394506.4108915,0.433,-0.149,9.698,0.09687854509642473,2.7033785672304647,0.08155388471177945,0,0.05
1757394506.4374642,0.541,-0.148,9.594,0.10058406931517534,3.3457838990607423,0.08696741854636592,0,0.05
1757394506.4646375,0.541,-0.148,9.594,0.10058406931517534,3.3457838990607423,0.08696741854636592,0,0.05
1757394506.4914744,0.214,-0.256,9.569,0.10115159415451642,1.997055621252998,0.10335839598997494,0,0.05
1757394506.5192773,0.214,-0.256,9.569,0.10115159415451642,1.997055621252998,0.10335839598997494,0,0.05
1757394506.545998,0.214,-0.256,9.569,0.10115159415451642,1.997055621252998,0.10335839598997494,0,0.05
1757394506.5723698,0.033,-0.143,9.598,0.10116505078336095,0.8760133619806196,0.11243107769423559,0,0.05
1757394506.5989249,0.436,-0.228,9.625,0.1034872335121584,2.9263312898996867,0.13263157894736843,0,0.05
1757394506.626073,0.436,-0.228,9.625,0.1034872335121584,2.9263312898996867,0.13263157894736843,0,0.05
1757394506.6518667,0.295,-0.139,9.292,0.10453310480417197,2.0099988092271177,0.13969924812030077,0,0.05
1757394506.6786444,0.295,-0.139,9.292,0.10453310480417197,2.0099988092271177,0.13969924812030077,0,0.05
1757394506.7049801,0.295,-0.139,9.292,0.10453310480417197,2.0099988092271177,0.13969924812030077,0,0.05
1757394506.7319877,0.295,-0.139,9.292,0.10453310480417197,2.0099988092271177,0.13969924812030077,0,0.05
1757394506.7595153,0.295,-0.139,9.292,0.10453310480417197,2.0099988092271177,0.13969924812030077,0,0.05
1757394506.7859633,0.295,-0.139,9.292,0.10453310480417197,2.0099988092271177,0.13969924812030077,0,0.05
1757394506.8127635,1.012,-0.288,9.479,0.11613582565255219,6.333983677843966,0.1756390977443609,0,0.05
1757394506.840176,0.34,-0.398,9.339,0.11737346378121419,3.208089883156588,0.2093233082706767,0,0.05
1757394506.8673415,0.689,-0.452,9.53,0.12232470110325223,4.941897872680737,0.22681704260651628,0,0.05
1757394506.894612,0.689,-0.452,9.53,0.12232470110325223,4.941897872680737,0.22681704260651628,0,0.05
1757394506.920822,0.388,-0.395,9.745,0.12385351226348004,3.251907815507482,0.2419047619047619,0,0.05
1757394506.948129,0.388,-0.395,9.745,0.12385351226348004,3.251907815507482,0.2419047619047619,0,0.05
1757394506.9754245,0.558,-0.226,9.656,0.1269570892073381,3.5676451042563975,0.2504260651629073,0,0.05
1757394507.0030155,0.558,-0.226,9.656,0.1269570892073381,3.5676451042563975,0.2504260651629073,0,0.05
1757394507.0288568,0.373,-0.272,9.755,0.12831962047948864,2.7094206729800523,0.25969924812030076,0,0.05
1757394507.055562,0.373,-0.272,9.755,0.12831962047948864,2.7094206729800523,0.25969924812030076,0,0.05
1757394507.0823083,0.343,-0.346,9.735,0.12946060211508365,2.8650540995811955,0.261203007518797,0,0.05
1757394507.1091778,0.343,-0.346,9.735,0.12946060211508365,2.8650540995811955,0.261203007518797,0,0.05
1757394507.135998,0.361,-0.347,9.669,0.1307128532318073,2.964533945737025,0.26210526315789473,0,0.05
1757394507.162866,0.361,-0.347,9.669,0.1307128532318073,2.964533945737025,0.26210526315789473,0,0.05
1757394507.19021,0.447,-0.275,9.795,0.13260985068990916,3.0669866560360193,0.26641604010025066,0,0.05
1757394507.217504,0.447,-0.275,9.795,0.13260985068990916,3.0669866560360193,0.26641604010025066,0,0.05
1757394507.2444625,0.309,-0.295,9.767,0.13350683503102004,2.504512980454983,0.2733333333333333,0,0.05
1757394507.270716,0.309,-0.295,9.767,0.13350683503102004,2.504512980454983,0.2733333333333333,0,0.05
1757394507.296911,0.251,-0.419,9.889,0.13409540447010107,2.8276009019169965,0.2762406015037594,0,0.05
1757394507.3241832,0.251,-0.419,9.889,0.13409540447010107,2.8276009019169965,0.2762406015037594,0,0.05
1757394507.3510146,0.314,-0.489,9.897,0.13501136063309635,3.3604477194412508,0.2793984962406015,0,0.05
1757394507.37847,0.314,-0.489,9.897,0.13501136063309635,3.3604477194412508,0.2793984962406015,0,0.05
1757394507.4053798,0.361,-0.487,9.652,0.13621259119479373,3.5938339418153857,0.28175438596491226,0,0.05
1757394507.4327686,0.361,-0.487,9.652,0.13621259119479373,3.5938339418153857,0.28175438596491226,0,0.05
1757394507.4596763,0.078,-0.668,9.739,0.13626841160004763,3.950358177882979,0.29593984962406017,0,0.05
1757394507.4867146,0.078,-0.668,9.739,0.13626841160004763,3.950358177882979,0.29593984962406017,0,0.05
1757394507.512658,0.156,-0.52,9.829,0.13649146493462513,3.1614682409816175,0.29984962406015037,0,0.05
1757394507.5388045,0.156,-0.52,9.829,0.13649146493462513,3.1614682409816175,0.29984962406015037,0,0.05
1757394507.5655196,0.302,-0.381,9.668,0.1373241784974518,2.878802677600331,0.30716791979949876,0,0.05
1757394507.5925946,0.302,-0.381,9.668,0.1373241784974518,2.878802677600331,0.30716791979949876,0,0.05
1757394507.6193595,0.172,-0.536,9.729,0.13759320477407305,3.31144771942933,0.31368421052631584,0,0.05
1757394507.6460552,0.172,-0.536,9.729,0.13759320477407305,3.31144771942933,0.31368421052631584,0,0.05
1757394507.6724184,0.13,-0.492,9.741,0.13774665150195123,2.990502456282238,0.3157894736842105,0,0.05
1757394507.6995203,0.13,-0.492,9.741,0.13774665150195123,2.990502456282238,0.3157894736842105,0,0.05
1757394507.7269266,0.286,-0.465,9.77,0.13848693079132052,3.1981595878768343,0.323609022556391,0,0.05
1757394507.7541668,0.286,-0.465,9.77,0.13848693079132052,3.1981595878768343,0.323609022556391,0,0.05
1757394507.7808614,0.067,-0.39,9.847,0.13852744312951135,2.3012600511441463,0.33458646616541354,0,0.05
1757394507.8076866,0.067,-0.39,9.847,0.13852744312951135,2.3012600511441463,0.33458646616541354,0,0.05
1757394507.8346806,0.089,-0.389,10.048,0.1385988997070323,2.274278493273034,0.3356892230576441,0,0.05
1757394507.8626223,0.089,-0.389,10.048,0.1385988997070323,2.274278493273034,0.3356892230576441,0,0.05
1757394507.889569,0.083,-0.462,10.062,0.13866101651149107,2.6709351528358503,0.33598997493734334,0,0.05
1757394507.915693,0.083,-0.462,10.062,0.13866101651149107,2.6709351528358503,0.33598997493734334,0,0.05
1757394507.9428313,0.202,-0.377,10.034,0.13902836940711058,2.4407974443610243,0.3419548872180451,0,0.05
1757394507.9700978,0.202,-0.377,10.034,0.13902836940711058,2.4407974443610243,0.3419548872180451,0,0.05
1757394507.9972913,0.12,-0.45,9.988,0.1391577791573292,2.669681309715276,0.34606516290726813,0,0.05
1757394508.0238295,0.12,-0.45,9.988,0.1391577791573292,2.669681309715276,0.34606516290726813,0,0.05
1757394508.0506513,0.204,-0.414,9.907,0.13953109868412847,2.667280048645122,0.35027568922305763,0,0.05
1757394508.0774512,0.204,-0.414,9.907,0.13953109868412847,2.667280048645122,0.35027568922305763,0,0.05
1757394508.1042047,0.134,-0.372,9.812,0.13969186626285726,2.307624975224017,0.3537844611528822,0,0.05
1757394508.1313515,0.134,-0.372,9.812,0.13969186626285726,2.307624975224017,0.3537844611528822,0,0.05
1757394508.1584275,0.435,-0.502,9.818,0.14137496242262984,3.8705287224954734,0.36887218045112785,0,0.05
1757394508.1858604,0.435,-0.502,9.818,0.14137496242262984,3.8705287224954734,0.36887218045112785,0,0.05
1757394508.2132494,0.013,-0.595,9.869,0.14137645666800397,3.450996034200471,0.3900250626566416,0,0.05
1757394508.2405162,0.013,-0.595,9.869,0.14137645666800397,3.450996034200471,0.3900250626566416,0,0.05
1757394508.267468,0.262,-0.509,9.651,0.14198208513752714,3.3946618062350713,0.40250626566416037,0,0.05
1757394508.2935982,0.262,-0.509,9.651,0.14198208513752714,3.3946618062350713,0.40250626566416037,0,0.05
1757394508.3199227,0.361,-0.51,9.632,0.14312482314399555,3.7116297455599647,0.407468671679198,0,0.05
1757394508.3472688,0.361,-0.51,9.632,0.14312482314399555,3.7116297455599647,0.407468671679198,0,0.05
1757394508.373762,0.456,-0.493,9.645,0.14492948285286883,3.9829156331456623,0.4122305764411027,0,0.05
1757394508.400398,0.456,-0.493,9.645,0.14492948285286883,3.9829156331456623,0.4122305764411027,0,0.05
1757394508.427467,0.354,-0.365,9.459,0.1460063183564328,3.0769775550122436,0.4173433583959899,0,0.05
1757394508.4548619,0.354,-0.365,9.459,0.1460063183564328,3.0769775550122436,0.4173433583959899,0,0.05
1757394508.4823751,0.487,-0.516,9.413,0.14802286140998627,4.310637176802107,0.4240100250626566,0,0.05
1757394508.5100746,0.487,-0.516,9.413,0.14802286140998627,4.310637176802107,0.4240100250626566,0,0.05
1757394508.5366151,0.517,-0.482,9.457,0.15026306931511815,4.274441273710011,0.4255137844611528,0,0.05
1757394508.56496,0.517,-0.482,9.457,0.15026306931511815,4.274441273710011,0.4255137844611528,0,0.05
1757394508.5920324,0.131,-0.377,9.652,0.15040575953067756,2.3678393560201707,0.4448621553884711,0,0.05
1757394508.61977,0.131,-0.377,9.652,0.15040575953067756,2.3678393560201707,0.4448621553884711,0,0.05
1757394508.6456733,0.18,-0.318,9.739,0.1506747905258209,2.1487419505342547,0.4473182957393483,0,0.05
1757394508.6710768,0.18,-0.318,9.739,0.1506747905258209,2.1487419505342547,0.4473182957393483,0,0.05
1757394508.6975527,-0.069,-0.324,9.812,0.15071428266756937,1.9336448440304521,0.45979949874686704,0,0.05
1757394508.7250419,-0.069,-0.324,9.812,0.15071428266756937,1.9336448440304521,0.45979949874686704,0,0.05
1757394508.7521706,0.444,-0.286,9.711,0.15234052317095412,3.113007804656355,0.48551378446115273,0,0.05
1757394508.7802072,0.444,-0.286,9.711,0.15234052317095412,3.113007804656355,0.48551378446115273,0,0.05
1757394508.8070168,0.206,-0.399,9.567,0.15268832633832882,2.687282699239717,0.4974436090225563,0,0.05
1757394508.8335388,0.206,-0.399,9.567,0.15268832633832882,2.687282699239717,0.4974436090225563,0,0.05
1757394508.8604717,0.085,-0.458,9.833,0.152747463154057,2.7122572806067957,0.5035087719298244,0,0.05
1757394508.887566,0.085,-0.458,9.833,0.152747463154057,2.7122572806067957,0.5035087719298244,0,0.05
1757394508.914361,0.285,-0.074,9.83,0.1534107232236391,1.7157394101930734,0.5135338345864661,0,0.05
1757394508.9418545,0.285,-0.074,9.83,0.1534107232236391,1.7157394101930734,0.5135338345864661,0,0.05
1757394508.9687016,0.069,-0.124,9.757,0.15344951124066836,0.8332457243727053,0.5243609022556389,0,0.05
1757394508.9965677,0.069,-0.124,9.757,0.15344951124066836,0.8332457243727053,0.5243609022556389,0,0.05
1757394509.02333,0.086,-0.128,9.766,0.15350974724752825,0.904639917004264,0.5252130325814536,0,0.05
1757394509.0502443,0.086,-0.128,9.766,0.15350974724752825,0.904639917004264,0.5252130325814536,0,0.05
1757394509.0770118,0.224,-0.219,9.817,0.15391777837533907,1.8277335397931698,0.5321303258145362,0,0.05
1757394509.1047828,0.224,-0.219,9.817,0.15391777837533907,1.8277335397931698,0.5321303258145362,0,0.05
1757394509.1315424,0.377,-0.407,9.596,0.15506774326080844,3.308780964727733,0.5397994987468671,0,0.05
1757394509.1590197,0.377,-0.407,9.596,0.15506774326080844,3.308780964727733,0.5397994987468671,0,0.05
1757394509.1860158,0.377,-0.407,9.596,0.15506774326080844,3.308780964727733,0.5397994987468671,0,0.05
1757394509.2132995,0.352,-0.508,9.633,0.15606333650156273,3.6709606699800417,0.5410526315789473,0,0.05
1757394509.2403762,0.406,-0.413,9.592,0.15737806390980924,3.4551851728861247,0.5437593984962407,0,0.05
1757394509.2675395,0.406,-0.413,9.592,0.15737806390980924,3.4551851728861247,0.5437593984962407,0,0.05
1757394509.2945998,0.405,-0.425,9.502,0.15867551008268416,3.535452926891502,0.5438095238095237,0,0.05
1757394509.3217134,0.405,-0.425,9.502,0.15867551008268416,3.535452926891502,0.5438095238095237,0,0.05
1757394509.3490045,0.388,-0.469,9.456,0.15985705333203162,3.6830993205886493,0.5446616541353384,0,0.05
1757394509.3761666,0.388,-0.469,9.456,0.15985705333203162,3.6830993205886493,0.5446616541353384,0,0.05
1757394509.4023335,0.531,-0.407,9.385,0.1620468450788228,4.0775957859415675,0.5518295739348372,0,0.05
1757394509.429659,0.531,-0.407,9.385,0.1620468450788228,4.0775957859415675,0.5518295739348372,0,0.05
1757394509.4565175,0.284,-0.306,9.447,0.16266782103415536,2.5303754494687225,0.5642105263157896,0,0.05
1757394509.484451,0.284,-0.306,9.447,0.16266782103415536,2.5303754494687225,0.5642105263157896,0,0.05
1757394509.5116897,0.511,-0.446,9.414,0.16466214653040329,4.120928145714799,0.5755889724310778,0,0.05
1757394509.5388336,0.511,-0.446,9.414,0.16466214653040329,4.120928145714799,0.5755889724310778,0,0.05
1757394509.5658734,0.264,-0.402,9.53,0.1651903825893021,2.8890115065926536,0.5879699248120301,0,0.05
1757394509.593082,0.264,-0.402,9.53,0.1651903825893021,2.8890115065926536,0.5879699248120301,0,0.05
1757394509.6194355,0.291,-0.398,9.572,0.16582992793823437,2.948596793106073,0.5893233082706767,0,0.05
1757394509.6464586,0.291,-0.398,9.572,0.16582992793823437,2.948596793106073,0.5893233082706767,0,0.05
1757394509.6735787,0.378,-0.465,9.644,0.16690349007734978,3.5556627004929284,0.5936842105263158,0,0.05
1757394509.7006567,0.378,-0.465,9.644,0.16690349007734978,3.5556627004929284,0.5936842105263158,0,0.05
1757394509.7280817,0.143,-0.672,9.653,0.1670565697600666,4.071128050424761,0.6054636591478696,0,0.05
1757394509.7553303,0.143,-0.672,9.653,0.1670565697600666,4.071128050424761,0.6054636591478696,0,0.05
1757394509.7820904,0.356,-0.531,9.688,0.1680021949261378,3.7753745375168912,0.6161403508771929,0,0.05
1757394509.8074074,0.356,-0.531,9.688,0.1680021949261378,3.7753745375168912,0.6161403508771929,0,0.05
1757394509.832743,0.397,-0.722,9.573,0.16917080126310216,4.919333179093618,0.6181954887218044,0,0.05
1757394509.857926,0.397,-0.722,9.573,0.16917080126310216,4.919333179093618,0.6181954887218044,0,0.05
1757394509.883312,0.167,-0.824,9.612,0.1693767472234604,4.998885533602376,0.6297243107769422,0,0.05
1757394509.9107106,0.167,-0.824,9.612,0.1693767472234604,4.998885533602376,0.6297243107769422,0,0.05
1757394509.9385595,0.385,-0.712,9.781,0.17046713759549081,4.730723564536661,0.6406516290726817,0,0.05
1757394509.9659462,0.385,-0.712,9.781,0.17046713759549081,4.730723564536661,0.6406516290726817,0,0.05
1757394509.9927354,0.185,-0.667,9.693,0.17071791792310495,4.084578594862017,0.6506766917293232,0,0.05
1757394510.0186586,0.185,-0.667,9.693,0.17071791792310495,4.084578594862017,0.6506766917293232,0,0.05
1757394510.0454743,0.023,-0.62,9.799,0.17072179122771647,3.6228625655822344,0.6587969924812029,0,0.05
1757394510.0726433,0.023,-0.62,9.799,0.17072179122771647,3.6228625655822344,0.6587969924812029,0,0.05
1757394510.0998292,0.351,-0.601,9.728,0.17162148029894161,4.092254797678631,0.6752380952380951,0,0.05
1757394510.127066,0.351,-0.601,9.728,0.17162148029894161,4.092254797678631,0.6752380952380951,0,0.05
1757394510.1540766,-0.024,-0.619,9.627,0.17162567552671132,3.681715060041035,0.6940350877192983,0,0.05
1757394510.181243,-0.024,-0.619,9.627,0.17162567552671132,3.681715060041035,0.6940350877192983,0,0.05
1757394510.208236,0.259,-0.53,9.576,0.1721135526331381,3.5250705288422743,0.7082205513784461,0,0.05
1757394510.2354815,0.259,-0.53,9.576,0.1721135526331381,3.5250705288422743,0.7082205513784461,0,0.05
1757394510.2623854,0.247,-0.568,9.617,0.17255607059735684,3.6850347723123256,0.7088220551378447,0,0.05
1757394510.2883406,0.247,-0.568,9.617,0.17255607059735684,3.6850347723123256,0.7088220551378447,0,0.05
1757394510.3148978,0.247,-0.568,9.617,0.17255607059735684,3.6850347723123256,0.7088220551378447,0,0.05
1757394510.3421123,0.3,-0.475,9.6,0.17320680558222878,3.349207444923257,0.7114786967418548,0,0.05
1757394510.3694851,0.187,-0.395,9.665,0.17345898650689737,2.589017027519993,0.7171428571428573,0,0.05
1757394510.3966987,0.187,-0.395,9.665,0.17345898650689737,2.589017027519993,0.7171428571428573,0,0.05
1757394510.423511,0.155,-0.525,9.752,0.17363203189503948,3.21277691830137,0.7187468671679197,0,0.05
1757394510.4504292,0.155,-0.525,9.752,0.17363203189503948,3.21277691830137,0.7187468671679197,0,0.05
1757394510.4774075,0.272,-0.593,9.622,0.17416383809505348,3.8789190653116137,0.7246115288220552,0,0.05
1757394510.5044086,0.272,-0.593,9.622,0.17416383809505348,3.8789190653116137,0.7246115288220552,0,0.05
1757394510.5295808,0.144,-0.574,9.688,0.17431259994618864,3.495543580101481,0.7310275689223058,0,0.05
1757394510.5558782,0.144,-0.574,9.688,0.17431259994618864,3.495543580101481,0.7310275689223058,0,0.05
1757394510.5832694,0.226,-0.463,9.676,0.17467848321988602,3.047923864164614,0.7351378446115286,0,0.05
1757394510.6107223,0.226,-0.463,9.676,0.17467848321988602,3.047923864164614,0.7351378446115286,0,0.05
1757394510.6377392,0.297,-0.442,9.617,0.17530857081158355,3.169364441776372,0.7386967418546363,0,0.05
1757394510.6640942,0.297,-0.442,9.617,0.17530857081158355,3.169364441776372,0.7386967418546363,0,0.05
1757394510.6901944,0.325,-0.353,9.55,0.17606009627397118,2.8763315250669845,0.7401002506265663,0,0.05
1757394510.717177,0.325,-0.353,9.55,0.17606009627397118,2.8763315250669845,0.7401002506265663,0,0.05
1757394510.7440934,0.172,-0.243,9.489,0.17627001304816428,1.7970388669477455,0.747769423558897,0,0.05
1757394510.7713559,0.172,-0.243,9.489,0.17627001304816428,1.7970388669477455,0.747769423558897,0,0.05
1757394510.7990422,0.214,-0.234,9.641,0.17659447188403155,1.8838198686538103,0.7498746867167918,0,0.05
1757394510.8260226,0.214,-0.234,9.641,0.17659447188403155,1.8838198686538103,0.7498746867167918,0,0.05
1757394510.8533435,0.184,-0.393,9.625,0.17683395460148485,2.581420914131225,0.7513784461152883,0,0.05
1757394510.8809056,0.184,-0.393,9.625,0.17683395460148485,2.581420914131225,0.7513784461152883,0,0.05
1757394510.9074154,0.164,-0.502,9.704,0.177023974365056,3.115070608687235,0.7523809523809523,0,0.05
1757394510.934692,0.164,-0.502,9.704,0.177023974365056,3.115070608687235,0.7523809523809523,0,0.05
1757394510.962075,0.161,-0.565,9.798,0.17720691295770602,3.431365372203507,0.7525313283208018,0,0.05
1757394510.9876208,0.161,-0.565,9.798,0.17720691295770602,3.431365372203507,0.7525313283208018,0,0.05
1757394511.012697,0.437,-0.36,9.739,0.17854890786560415,3.3272119313030917,0.7663659147869674,0,0.05
1757394511.039871,0.437,-0.36,9.739,0.17854890786560415,3.3272119313030917,0.7663659147869674,0,0.05
1757394511.0670109,0.354,-0.284,9.739,0.17942408561840298,2.668076538984049,0.7705263157894735,0,0.05
1757394511.093364,0.354,-0.284,9.739,0.17942408561840298,2.668076538984049,0.7705263157894735,0,0.05
1757394511.1204126,0.384,-0.331,9.692,0.18044844831696394,2.9942945990824206,0.77203007518797,0,0.05
1757394511.1465554,0.384,-0.331,9.692,0.18044844831696394,2.9942945990824206,0.77203007518797,0,0.05
1757394511.173672,0.295,-0.278,9.621,0.1810502830707536,2.4125499871957916,0.7764912280701756,0,0.05
1757394511.2008278,0.295,-0.278,9.621,0.1810502830707536,2.4125499871957916,0.7764912280701756,0,0.05
1757394511.2278793,0.397,-0.275,9.641,0.18213519017477103,2.8676993634097405,0.7816040100250627,0,0.05
1757394511.2554786,0.397,-0.275,9.641,0.18213519017477103,2.8676993634097405,0.7816040100250627,0,0.05
1757394511.282715,0.462,-0.227,9.562,0.1835942196802503,3.0814540523826714,0.7848621553884713,0,0.05
1757394511.3096414,0.462,-0.227,9.562,0.1835942196802503,3.0814540523826714,0.7848621553884713,0,0.05
1757394511.3367324,0.462,-0.227,9.562,0.1835942196802503,3.0814540523826714,0.7848621553884713,0,0.05
1757394511.3633444,0.154,-0.24,9.646,0.18375561896170686,1.6933117054970832,0.8003007518796995,0,0.05
1757394511.3904662,0.364,-0.291,9.532,0.18465472509524364,2.798980323102474,0.8108270676691731,0,0.05
1757394511.4180117,0.364,-0.291,9.532,0.18465472509524364,2.798980323102474,0.8108270676691731,0,0.05
1757394511.445338,0.303,-0.292,9.499,0.18527517372816038,2.536512846774552,0.8138847117794488,0,0.05
1757394511.4726126,0.303,-0.292,9.499,0.18527517372816038,2.536512846774552,0.8138847117794488,0,0.05
1757394511.4997704,0.35,-0.305,9.628,0.18609981192897537,2.7605723650402223,0.8162406015037595,0,0.05
1757394511.5260723,0.35,-0.305,9.628,0.18609981192897537,2.7605723650402223,0.8162406015037595,0,0.05
1757394511.5527403,0.377,-0.315,9.452,0.18705203153133623,2.9753327515630548,0.8175939849624063,0,0.05
1757394511.5794415,0.377,-0.315,9.452,0.18705203153133623,2.9753327515630548,0.8175939849624063,0,0.05
1757394511.6065023,0.352,-0.162,9.528,0.1878782118820594,2.3288493787521127,0.8188471177944866,0,0.05
1757394511.6330073,0.352,-0.162,9.528,0.1878782118820594,2.3288493787521127,0.8188471177944866,0,0.05
1757394511.6600595,0.227,-0.242,9.592,0.18822073477701654,1.9811628819140379,0.8251127819548875,0,0.05
1757394511.6875925,0.227,-0.242,9.592,0.18822073477701654,1.9811628819140379,0.8251127819548875,0,0.05
1757394511.7147417,0.256,-0.025,9.663,0.1886554663931051,1.52478685685114,0.8265664160401003,0,0.05
1757394511.7422962,0.256,-0.025,9.663,0.1886554663931051,1.52478685685114,0.8265664160401003,0,0.05
1757394511.7699215,0.118,-0.028,9.595,0.18874770197276577,0.7241546739948709,0.8334837092731832,0,0.05
1757394511.7971754,0.118,-0.028,9.595,0.18874770197276577,0.7241546739948709,0.8334837092731832,0,0.05
1757394511.8243892,-0.021,0.006,9.589,0.18875062251552974,0.130499170849173,0.8404511278195488,0,0.05
1757394511.8513258,-0.021,0.006,9.589,0.18875062251552974,0.130499170849173,0.8404511278195488,0,0.05
1757394511.8781645,0.24,0.009,9.73,0.18913169353654083,1.4139628712015706,0.8535338345864664,0,0.05
1757394511.9047308,0.24,0.009,9.73,0.18913169353654083,1.4139628712015706,0.8535338345864664,0,0.05
1757394511.931843,0.212,-0.03,9.531,0.1894285023432324,1.2869224367605927,0.854937343358396,0,0.05
1757394511.9595602,0.212,-0.03,9.531,0.1894285023432324,1.2869224367605927,0.854937343358396,0,0.05
1757394511.9866033,0.047,-0.053,9.649,0.18944307852228331,0.4206276834949463,0.8632080200501253,0,0.05
1757394512.0145562,0.047,-0.053,9.649,0.18944307852228331,0.4206276834949463,0.8632080200501253,0,0.05
1757394512.0417879,0.327,-0.187,9.74,0.19014731788799968,2.214804622344789,0.8772431077694236,0,0.05
1757394512.0694716,0.327,-0.187,9.74,0.19014731788799968,2.214804622344789,0.8772431077694236,0,0.05
1757394512.0967577,0.054,-0.179,9.706,0.19016648626926883,1.1035593983193768,0.8909273182957393,0,0.05
1757394512.124651,0.054,-0.179,9.706,0.19016648626926883,1.1035593983193768,0.8909273182957393,0,0.05
1757394512.1511943,0.183,-0.212,9.694,0.19038648849117418,1.6548104293059624,0.8973934837092732,0,0.05
1757394512.178968,0.183,-0.212,9.694,0.19038648849117418,1.6548104293059624,0.8973934837092732,0,0.05
1757394512.2066083,0.183,-0.212,9.694,0.19038648849117418,1.6548104293059624,0.8973934837092732,0,0.05
1757394512.2333739,0.199,-0.209,9.778,0.19064631520173686,1.6905270348881405,0.8981954887218045,0,0.05
1757394512.2609534,0.199,-0.209,9.778,0.19064631520173686,1.6905270348881405,0.8981954887218045,0,0.05
1757394512.2875032,0.206,-0.384,9.734,0.19092435020185353,2.563272334626651,0.8985463659147869,0,0.05
1757394512.3145785,0.452,-0.288,9.535,0.19225729505014888,3.2171675920130647,0.9108771929824562,0,0.05
1757394512.3418996,0.452,-0.288,9.535,0.19225729505014888,3.2171675920130647,0.9108771929824562,0,0.05
1757394512.3692966,0.34,-0.418,9.643,0.1930074286135122,3.1981627665402694,0.9164912280701755,0,0.05
1757394512.3963845,0.34,-0.418,9.643,0.1930074286135122,3.1981627665402694,0.9164912280701755,0,0.05
1757394512.4226785,0.459,-0.415,9.659,0.19436710112567918,3.6655864233823094,0.9224561403508772,0,0.05
1757394512.4487517,0.459,-0.415,9.659,0.19436710112567918,3.6655864233823094,0.9224561403508772,0,0.05
1757394512.4751322,0.231,-0.481,9.701,0.19470997021210804,3.1483226731394227,0.9338847117794485,0,0.05
1757394512.5024934,0.231,-0.481,9.701,0.19470997021210804,3.1483226731394227,0.9338847117794485,0,0.05
1757394512.5294316,0.231,-0.481,9.701,0.19470997021210804,3.1483226731394227,0.9338847117794485,0,0.05
1757394512.5565526,0.389,-0.687,9.712,0.19567901011605715,4.647347572887305,0.9418045112781955,0,0.05
1757394512.5843258,0.376,-0.471,9.6,0.19658004730897793,3.592236439868715,0.9424561403508772,0,0.05
1757394512.6112182,0.376,-0.471,9.6,0.19658004730897793,3.592236439868715,0.9424561403508772,0,0.05
1757394512.6370554,0.426,-0.433,9.438,0.19773063748443234,3.682448498500616,0.9449624060150378,0,0.05
1757394512.6640396,0.426,-0.433,9.438,0.19773063748443234,3.682448498500616,0.9449624060150378,0,0.05
1757394512.6915324,0.088,-0.344,9.481,0.1977795869143224,2.1448091817723256,0.9619047619047619,0,0.05
1757394512.7189791,0.088,-0.344,9.481,0.1977795869143224,2.1448091817723256,0.9619047619047619,0,0.05
1757394512.7465067,0.253,-0.237,9.571,0.19818372158176864,2.0743784354025046,0.9701754385964911,0,0.05
1757394512.7738976,0.253,-0.237,9.571,0.19818372158176864,2.0743784354025046,0.9701754385964911,0,0.05
1757394512.8003507,0.309,-0.342,9.456,0.1987850346479835,2.7905822667936233,0.972982456140351,0,0.05
1757394512.8263621,0.309,-0.342,9.456,0.1987850346479835,2.7905822667936233,0.972982456140351,0,0.05
1757394512.8526053,0.003,-0.33,9.579,0.19878509124177296,1.9731613846402922,0.9883208020050126,0,0.05
1757394512.8788824,0.003,-0.33,9.579,0.19878509124177296,1.9731613846402922,0.9883208020050126,0,0.05
1757394512.9059753,0.256,-0.242,9.561,0.19919676829707855,2.110127953621388,1.001002506265664,0,0.05
1757394512.933837,0.256,-0.242,9.561,0.19919676829707855,2.110127953621388,1.001002506265664,0,0.05
1757394512.9615178,0.293,-0.494,9.519,0.19973476162150644,3.45291891698282,1.002857142857143,0,0.05
1757394512.9885278,0.293,-0.494,9.519,0.19973476162150644,3.45291891698282,1.002857142857143,0,0.05
1757394513.0146148,0.04,-0.469,9.535,0.19974477465005186,2.826156297690667,1.0155388471177944,0,0.05
1757394513.041455,0.04,-0.469,9.535,0.19974477465005186,2.826156297690667,1.0155388471177944,0,0.05
1757394513.0685563,0.152,-0.392,9.672,0.19988930686757608,2.4890570106683945,1.0211528822055136,0,0.05
1757394513.0953074,0.152,-0.392,9.672,0.19988930686757608,2.4890570106683945,1.0211528822055136,0,0.05
1757394513.1224525,0.018,-0.105,9.683,0.19989133297869618,0.6303387073903779,1.0278696741854636,0,0.05
1757394513.1499748,0.018,-0.105,9.683,0.19989133297869618,0.6303387073903779,1.0278696741854636,0,0.05
1757394513.1762698,0.254,-0.16,9.667,0.20029437086448534,1.7786574941442477,1.039699248120301,0,0.05
1757394513.2038765,0.254,-0.16,9.667,0.20029437086448534,1.7786574941442477,1.039699248120301,0,0.05
1757394513.230998,0.254,-0.16,9.667,0.20029437086448534,1.7786574941442477,1.039699248120301,0,0.05
1757394513.2574112,0.254,-0.16,9.667,0.20029437086448534,1.7786574941442477,1.039699248120301,0,0.05
1757394513.2845488,0.044,-0.375,9.869,0.20030645271683087,2.190978373672787,1.0502255639097744,0,0.05
1757394513.3121345,0.093,-0.337,9.763,0.20036041899536944,2.050791031378585,1.0526817042606516,0,0.05
1757394513.3390868,0.07,-0.378,9.69,0.20039098657374785,2.2718773011353015,1.0538345864661656,0,0.05
1757394513.36615,0.07,-0.378,9.69,0.20039098657374785,2.2718773011353015,1.0538345864661656,0,0.05
1757394513.393333,0.25,-0.398,9.713,0.20078047091288534,2.770335760956737,1.062857142857143,0,0.05
1757394513.4206011,0.25,-0.398,9.713,0.20078047091288534,2.770335760956737,1.062857142857143,0,0.05
1757394513.447603,0.171,-0.365,9.867,0.20096243430054286,2.3392538121941064,1.0668170426065164,0,0.05
1757394513.4751966,0.171,-0.365,9.867,0.20096243430054286,2.3392538121941064,1.0668170426065164,0,0.05
1757394513.501845,-0.089,-0.365,9.822,0.20101169742082176,2.1905104100574158,1.0798496240601503,0,0.05
1757394513.52821,-0.089,-0.365,9.822,0.20101169742082176,2.1905104100574158,1.0798496240601503,0,0.05
1757394513.5545251,0.081,-0.451,9.921,0.20105249314544696,2.6444113182142495,1.0883709273182955,0,0.05
1757394513.5815942,0.081,-0.451,9.921,0.20105249314544696,2.6444113182142495,1.0883709273182955,0,0.05
1757394513.607959,0.296,-0.454,9.804,0.20159649054485052,3.164121511337848,1.0991478696741854,0,0.05
1757394513.6343038,0.296,-0.454,9.804,0.20159649054485052,3.164121511337848,1.0991478696741854,0,0.05
1757394513.6622064,-0.049,-0.67,9.767,0.20161137740712948,3.9346954618751866,1.1164411027568921,0,0.05
1757394513.6898842,-0.049,-0.67,9.767,0.20161137740712948,3.9346954618751866,1.1164411027568921,0,0.05
1757394513.7161283,0.19,-0.456,9.778,0.20183507499936676,2.8922142021236796,1.1284210526315788,0,0.05
1757394513.7435944,0.19,-0.456,9.778,0.20183507499936676,2.8922142021236796,1.1284210526315788,0,0.05
1757394513.7701244,0.392,-0.326,9.647,0.20278451001001038,3.025262438100378,1.138546365914787,0,0.05
1757394513.796911,0.392,-0.326,9.647,0.20278451001001038,3.025262438100378,1.138546365914787,0,0.05
1757394513.8239913,0.045,-0.474,9.749,0.2027969920881471,2.7960461573818263,1.15593984962406,0,0.05
1757394513.8512266,0.045,-0.474,9.749,0.2027969920881471,2.7960461573818263,1.15593984962406,0,0.05
1757394513.8785985,0.156,-0.38,9.883,0.20294693887812154,2.3800594802582724,1.161503759398496,0,0.05
1757394513.906359,0.156,-0.38,9.883,0.20294693887812154,2.3800594802582724,1.161503759398496,0,0.05
1757394513.933399,0.298,-0.412,9.791,0.20349316941853357,2.972871875682377,1.1686215538847118,0,0.05
1757394513.9598575,0.298,-0.412,9.791,0.20349316941853357,2.972871875682377,1.1686215538847118,0,0.05
1757394513.9864683,0.292,-0.535,9.772,0.20401624935283955,3.5690277702698787,1.168922305764411,0,0.05
1757394514.0130622,0.292,-0.535,9.772,0.20401624935283955,3.5690277702698787,1.168922305764411,0,0.05
1757394514.0392275,0.282,-0.394,9.679,0.2045029095147548,2.8657732242706913,1.1694235588972433,0,0.05
1757394514.0664291,0.282,-0.394,9.679,0.2045029095147548,2.8657732242706913,1.1694235588972433,0,0.05
1757394514.093878,0.333,-0.368,9.766,0.20517958597287403,2.9092170907932315,1.1719799498746868,0,0.05
1757394514.121058,0.333,-0.368,9.766,0.20517958597287403,2.9092170907932315,1.1719799498746868,0,0.05
1757394514.1476626,0.333,-0.368,9.766,0.20517958597287403,2.9092170907932315,1.1719799498746868,0,0.05
1757394514.1746187,0.231,-0.474,9.925,0.2055044160109461,3.04113225112294,1.177092731829574,0,0.05
1757394514.201737,0.35,-0.416,9.746,0.20624818787082713,3.1927599583968673,1.1830576441102758,0,0.05
1757394514.2276366,0.35,-0.416,9.746,0.20624818787082713,3.1927599583968673,1.1830576441102758,0,0.05
1757394514.253834,0.108,-0.36,9.754,0.2063188672904153,2.2066874405837615,1.1951879699248118,0,0.05
1757394514.2810621,0.108,-0.36,9.754,0.2063188672904153,2.2066874405837615,1.1951879699248118,0,0.05
1757394514.3079681,0.148,-0.341,9.867,0.20645153184222198,2.1575586461175607,1.1971929824561403,0,0.05
1757394514.335035,0.148,-0.341,9.867,0.20645153184222198,2.1575586461175607,1.1971929824561403,0,0.05
1757394514.362095,0.097,-0.597,9.73,0.20650849256144407,3.557000185613289,1.1997493734335838,0,0.05
1757394514.3882713,0.097,-0.597,9.73,0.20650849256144407,3.557000185613289,1.1997493734335838,0,0.05
1757394514.4144187,0.159,-0.595,9.807,0.20666146230006213,3.5934479612314845,1.2028571428571426,0,0.05
1757394514.4404526,0.159,-0.595,9.807,0.20666146230006213,3.5934479612314845,1.2028571428571426,0,0.05
1757394514.4675443,-0.011,-0.583,9.745,0.20666219417203527,3.4242788600161798,1.211378446115288,0,0.05
1757394514.494779,-0.011,-0.583,9.745,0.20666219417203527,3.4242788600161798,1.211378446115288,0,0.05
1757394514.521888,-0.011,-0.583,9.745,0.20666219417203527,3.4242788600161798,1.211378446115288,0,0.05
1757394514.549064,0.287,-0.587,9.694,0.207159805464284,3.8560763380822833,1.226315789473684,0,0.05
1757394514.5764058,0.246,-0.422,9.83,0.20752463709159932,2.844770639153358,1.2283709273182954,0,0.05
1757394514.6034966,0.246,-0.422,9.83,0.20752463709159932,2.844770639153358,1.2283709273182954,0,0.05
1757394514.6297095,0.233,-0.361,9.875,0.20785138320444252,2.491376162636844,1.2290225563909773,0,0.05
1757394514.6567817,0.233,-0.361,9.875,0.20785138320444252,2.491376162636844,1.2290225563909773,0,0.05
1757394514.6843052,0.233,-0.361,9.875,0.20785138320444252,2.491376162636844,1.2290225563909773,0,0.05
1757394514.7116592,0.233,-0.361,9.875,0.20785138320444252,2.491376162636844,1.2290225563909773,0,0.05
1757394514.7379673,0.233,-0.361,9.875,0.20785138320444252,2.491376162636844,1.2290225563909773,0,0.05
1757394514.7649727,0.233,-0.361,9.875,0.20785138320444252,2.491376162636844,1.2290225563909773,0,0.05
1757394514.7921305,0.233,-0.361,9.875,0.20785138320444252,2.491376162636844,1.2290225563909773,0,0.05
1757394514.8192942,0.233,-0.361,9.875,0.20785138320444252,2.491376162636844,1.2290225563909773,0,0.05
1757394514.847024,0.165,-0.485,9.869,0.20801504753262443,2.97155065595392,1.2324310776942353,0,0.05
1757394514.8741658,0.227,-0.435,9.869,0.20832446447789085,2.8462875997155854,1.2355388471177944,0,0.05
1757394514.9014263,0.227,-0.435,9.869,0.20832446447789085,2.8462875997155854,1.2355388471177944,0,0.05
1757394514.928004,0.227,-0.435,9.869,0.20832446447789085,2.8462875997155854,1.2355388471177944,0,0.05
1757394514.9551072,0.027,-0.54,9.959,0.20832883861818075,3.1075398980269835,1.245563909774436,0,0.05
1757394514.9824028,0.222,-0.466,9.953,0.20862433942375946,2.968789675962316,1.2553383458646614,0,0.05
1757394515.0092895,0.36,-0.239,9.629,0.20939941499440726,2.5694888946356724,1.2622556390977444,0,0.05
1757394515.0361445,0.187,-0.1,9.66,0.20960805685850914,1.2575705923980995,1.270927318295739,0,0.05
1757394515.0635028,0.545,-0.175,9.702,0.2113719470506907,3.3764731411482125,1.2888721804511278,0,0.05
1757394515.091094,0.421,-0.251,9.636,0.21241751928689875,2.9118980814456523,1.2950877192982457,0,0.05
1757394515.1186538,0.421,-0.251,9.636,0.21241751928689875,2.9118980814456523,1.2950877192982457,0,0.05
1757394515.1448941,0.421,-0.251,9.636,0.21241751928689875,2.9118980814456523,1.2950877192982457,0,0.05
1757394515.1710756,0.421,-0.251,9.636,0.21241751928689875,2.9118980814456523,1.2950877192982457,0,0.05
1757394515.198459,0.293,-0.262,9.693,0.2129221101717715,2.3221001652770945,1.3015037593984962,0,0.05
1757394515.226132,0.343,-0.244,9.782,0.2136116745405082,2.4639994331370194,1.3040100250626565,0,0.05
1757394515.253811,0.343,-0.244,9.782,0.2136116745405082,2.4639994331370194,1.3040100250626565,0,0.05
1757394515.281168,0.397,-0.416,9.66,0.21453197896817155,3.406649324365698,1.3067167919799496,0,0.05
1757394515.308637,0.124,-0.286,9.706,0.2146215506420546,1.8395163866646398,1.3204010025062654,0,0.05
1757394515.3359628,0.124,-0.286,9.706,0.2146215506420546,1.8395163866646398,1.3204010025062654,0,0.05
1757394515.3631492,0.5,-0.31,9.729,0.2160726961001783,3.4604034264947305,1.3392481203007516,0,0.05
1757394515.390771,0.149,-0.377,9.837,0.21620109273544386,2.359786586723657,1.3568421052631576,0,0.05
1757394515.4176981,0.149,-0.377,9.837,0.21620109273544386,2.359786586723657,1.3568421052631576,0,0.05
1757394515.4450011,0.302,-0.268,9.769,0.21672776125822,2.366772451175954,1.3645112781954882,0,0.05
1757394515.4723706,0.302,-0.268,9.769,0.21672776125822,2.366772451175954,1.3645112781954882,0,0.05
1757394515.498809,0.399,-0.216,9.823,0.2176440327691067,2.6445558809506964,1.3693734335839598,0,0.05
1757394515.5263395,0.399,-0.216,9.823,0.2176440327691067,2.6445558809506964,1.3693734335839598,0,0.05
1757394515.5536423,0.369,-0.382,9.84,0.21842464947894502,3.0895577262294345,1.370877192982456,0,0.05
1757394515.5813644,0.369,-0.382,9.84,0.21842464947894502,3.0895577262294345,1.370877192982456,0,0.05
1757394515.6084073,0.243,-0.347,9.754,0.21876231393912435,2.4868434935272683,1.37719298245614,0,0.05
1757394515.6345193,0.243,-0.347,9.754,0.21876231393912435,2.4868434935272683,1.37719298245614,0,0.05
1757394515.6608815,0.243,-0.347,9.754,0.21876231393912435,2.4868434935272683,1.37719298245614,0,0.05
1757394515.6869872,0.41,-0.476,9.875,0.21972073183930552,3.640164449748676,1.3855639097744359,0,0.05
1757394515.7144766,0.45,-0.356,9.583,0.22086975800231232,3.42654632071894,1.3875689223057643,0,0.05
1757394515.7412531,0.45,-0.356,9.583,0.22086975800231232,3.42654632071894,1.3875689223057643,0,0.05
1757394515.767585,0.45,-0.356,9.583,0.22086975800231232,3.42654632071894,1.3875689223057643,0,0.05
1757394515.79436,0.45,-0.356,9.583,0.22086975800231232,3.42654632071894,1.3875689223057643,0,0.05
1757394515.8215575,0.45,-0.356,9.583,0.22086975800231232,3.42654632071894,1.3875689223057643,0,0.05
1757394515.8486993,0.118,-0.48,9.679,0.22094854604635894,2.923466280052734,1.4042105263157891,0,0.05
1757394515.8760023,0.284,-0.239,9.587,0.2214043811671305,2.2172333413152137,1.412531328320802,0,0.05
1757394515.9022112,0.24,-0.275,9.648,0.2217293395110354,2.1665620809523682,1.4147368421052628,0,0.05
1757394515.9290154,0.338,-0.398,9.513,0.22237245782695303,3.141743445330013,1.4196491228070174,0,0.05
1757394515.9565046,0.338,-0.398,9.513,0.22237245782695303,3.141743445330013,1.4196491228070174,0,0.05
1757394515.98383,0.161,-0.188,9.617,0.22251811723992274,1.474325467946767,1.4285213032581452,0,0.05
1757394516.0108306,0.161,-0.188,9.617,0.22251811723992274,1.474325467946767,1.4285213032581452,0,0.05
1757394516.0383515,0.184,-0.066,9.603,0.22270822279386093,1.1661532124287692,1.429674185463659,0,0.05
1757394516.0649867,0.184,-0.066,9.603,0.22270822279386093,1.1661532124287692,1.429674185463659,0,0.05
1757394516.0915618,0.209,-0.299,9.516,0.22295325743303235,2.1954079976516274,1.4309273182957392,0,0.05
1757394516.1185625,0.209,-0.299,9.516,0.22295325743303235,2.1954079976516274,1.4309273182957392,0,0.05
1757394516.14586,0.164,-0.294,9.602,0.22310400041236375,2.007979868344415,1.4331829573934838,0,0.05
1757394516.1731653,0.164,-0.294,9.602,0.22310400041236375,2.007979868344415,1.4331829573934838,0,0.05
1757394516.2004035,0.124,-0.228,9.681,0.2231901319503172,1.5356754379422939,1.435187969924812,0,0.05
1757394516.2281868,0.124,-0.228,9.681,0.2231901319503172,1.5356754379422939,1.435187969924812,0,0.05
1757394516.2555149,0.088,-0.143,9.592,0.2232334988302607,1.0028587184655529,1.4369924812030073,0,0.05
1757394516.282662,0.088,-0.143,9.592,0.2232334988302607,1.0028587184655529,1.4369924812030073,0,0.05
1757394516.310068,0.234,-0.279,9.581,0.2235398957680709,2.1765550806234186,1.4443107769423562,0,0.05
1757394516.3377864,0.234,-0.279,9.581,0.2235398957680709,2.1765550806234186,1.4443107769423562,0,0.05
1757394516.3650413,0.008,-0.225,9.623,0.22354025364573604,1.340262249102007,1.4556390977443607,0,0.05
1757394516.3924708,0.008,-0.225,9.623,0.22354025364573604,1.340262249102007,1.4556390977443607,0,0.05
1757394516.4196405,0.069,-0.386,9.725,0.22356687478246862,2.3089540168838014,1.4586967418546366,0,0.05
1757394516.4467747,0.069,-0.386,9.725,0.22356687478246862,2.3089540168838014,1.4586967418546366,0,0.05
1757394516.4741452,0.021,-0.393,9.736,0.22356934047404622,2.3148207841360557,1.461102756892231,0,0.05
1757394516.5000079,0.021,-0.393,9.736,0.22356934047404622,2.3148207841360557,1.461102756892231,0,0.05
1757394516.5267525,0.048,-0.581,9.653,0.22358222201239525,3.4561005310070856,1.4624561403508773,0,0.05
1757394516.5537386,0.048,-0.581,9.653,0.22358222201239525,3.4561005310070856,1.4624561403508773,0,0.05
1757394516.5804741,-0.005,-0.517,9.69,0.2235823617819617,3.054204286786351,1.465112781954887,0,0.05
1757394516.6080606,-0.005,-0.517,9.69,0.2235823617819617,3.054204286786351,1.465112781954887,0,0.05
1757394516.6346064,-0.039,-0.402,9.83,0.2235908651980219,2.3528008553534097,1.4668170426065166,0,0.05
1757394516.6606116,-0.039,-0.402,9.83,0.2235908651980219,2.3528008553534097,1.4668170426065166,0,0.05
1757394516.687695,0.001,-0.398,9.813,0.22359087078859013,2.322561957709468,1.4688220551378448,0,0.05
1757394516.7141888,0.001,-0.398,9.813,0.22359087078859013,2.322561957709468,1.4688220551378448,0,0.05
1757394516.7413878,0.037,-0.403,9.886,0.22359852414539771,2.344160757906993,1.4706265664160403,0,0.05
1757394516.7684987,0.037,-0.403,9.886,0.22359852414539771,2.344160757906993,1.4706265664160403,0,0.05
1757394516.7956553,-0.081,-0.423,9.942,0.22363519959970526,2.4804911301716666,1.4765413533834586,0,0.05
1757394516.8229322,-0.081,-0.423,9.942,0.22363519959970526,2.4804911301716666,1.4765413533834586,0,0.05
1757394516.8497796,0.025,-0.283,9.891,0.22363869298491262,1.6452711163352276,1.4818546365914789,0,0.05
1757394516.8762243,0.025,-0.283,9.891,0.22363869298491262,1.6452711163352276,1.4818546365914789,0,0.05
1757394516.902295,0.043,-0.336,9.908,0.22364902749620888,1.958097873406034,1.4827568922305765,0,0.05
1757394516.9291134,0.043,-0.336,9.908,0.22364902749620888,1.958097873406034,1.4827568922305765,0,0.05
1757394516.956248,0.062,-0.297,10.018,0.2236705110201164,1.734713863214112,1.4837092731829578,0,0.05
1757394516.9831302,0.062,-0.297,10.018,0.2236705110201164,1.734713863214112,1.4837092731829578,0,0.05
1757394517.0092807,0.01,-0.218,9.845,0.22367106987717478,1.269839204221482,1.4863157894736847,0,0.05
1757394517.0360997,0.01,-0.218,9.845,0.22367106987717478,1.269839204221482,1.4863157894736847,0,0.05
1757394517.0626807,0.316,-0.248,9.761,0.22422842705598237,2.3565750227194635,1.5016541353383461,0,0.05
1757394517.0894446,0.316,-0.248,9.761,0.22422842705598237,2.3565750227194635,1.5016541353383461,0,0.05
1757394517.1158922,0.195,-0.202,9.827,0.22444030386719763,1.6365397440440574,1.5077192982456145,0,0.05
1757394517.1419888,0.195,-0.202,9.827,0.22444030386719763,1.6365397440440574,1.5077192982456145,0,0.05
1757394517.1689758,0.195,-0.202,9.827,0.22444030386719763,1.6365397440440574,1.5077192982456145,0,0.05
1757394517.19614,0.163,-0.138,9.852,0.22458822876544532,1.2418654114295864,1.5093233082706767,0,0.05
1757394517.2233815,0.146,-0.128,9.754,0.22470683678962683,1.1403894796021852,1.5101754385964912,0,0.05
1757394517.2506003,0.146,-0.128,9.754,0.22470683678962683,1.1403894796021852,1.5101754385964912,0,0.05
1757394517.2775657,0.271,-0.169,9.699,0.2251150039424294,1.8860062169397525,1.5164411027568925,0,0.05
1757394517.3050458,0.271,-0.169,9.699,0.2251150039424294,1.8860062169397525,1.5164411027568925,0,0.05
1757394517.332367,0.279,-0.217,9.686,0.2255468188647315,2.089868106254074,1.516842105263158,0,0.05
1757394517.3596706,0.279,-0.217,9.686,0.2255468188647315,2.089868106254074,1.516842105263158,0,0.05
1757394517.385786,0.261,-0.276,9.524,0.225924035905877,2.2840297785871817,1.5177443609022554,0,0.05
1757394517.4126725,0.261,-0.276,9.524,0.225924035905877,2.2840297785871817,1.5177443609022554,0,0.05
1757394517.4398723,0.342,-0.316,9.52,0.22657025400524228,2.800202144463652,1.5218045112781955,0,0.05
1757394517.467215,0.342,-0.316,9.52,0.22657025400524228,2.800202144463652,1.5218045112781955,0,0.05
1757394517.4943957,0.313,-0.427,9.496,0.22711011095941985,3.1911156377340384,1.5232581453634084,0,0.05
1757394517.5213962,0.313,-0.427,9.496,0.22711011095941985,3.1911156377340384,1.5232581453634084,0,0.05
1757394517.5480244,0.321,-0.37,9.562,0.227676535901265,2.932558308249685,1.5236591478696744,0,0.05
1757394517.5752015,0.321,-0.37,9.562,0.227676535901265,2.932558308249685,1.5236591478696744,0,0.05
1757394517.6023006,0.242,-0.371,9.68,0.2279978399020482,2.619988949735672,1.5276190476190477,0,0.05
1757394517.6287043,0.242,-0.371,9.68,0.2279978399020482,2.619988949735672,1.5276190476190477,0,0.05
1757394517.65571,0.431,-0.403,9.631,0.22901401158007778,3.5059394812703992,1.5370927318295742,0,0.05
1757394517.6829996,0.431,-0.403,9.631,0.22901401158007778,3.5059394812703992,1.5370927318295742,0,0.05
1757394517.710366,0.271,-0.254,9.589,0.22941451566978058,2.2182174914077564,1.5451127819548873,0,0.05
1757394517.7369673,0.271,-0.254,9.589,0.22941451566978058,2.2182174914077564,1.5451127819548873,0,0.05
1757394517.7635396,0.268,-0.317,9.683,0.22980552647836822,2.454742180415217,1.545263157894737,0,0.05
1757394517.7907462,0.268,-0.317,9.683,0.22980552647836822,2.454742180415217,1.545263157894737,0,0.05
1757394517.817961,0.182,-0.475,9.696,0.2299856299858754,3.0031111461166713,1.5495739348370923,0,0.05
1757394517.8449738,0.182,-0.475,9.696,0.2299856299858754,3.0031111461166713,1.5495739348370923,0,0.05
1757394517.8709784,0.252,-0.428,9.582,0.23033052337890436,2.967235221841503,1.553082706766917,0,0.05
1757394517.8981247,0.252,-0.428,9.582,0.23033052337890436,2.967235221841503,1.553082706766917,0,0.05
1757394517.9247713,0.243,-0.563,9.647,0.2306507587240935,3.6370626796367684,1.553533834586466,0,0.05
1757394517.9521432,0.243,-0.563,9.647,0.2306507587240935,3.6370626796367684,1.553533834586466,0,0.05
1757394517.9794445,0.388,-0.431,9.594,0.23146518636719432,3.4590870184770037,1.560802005012531,0,0.05
1757394518.0074673,0.388,-0.431,9.594,0.23146518636719432,3.4590870184770037,1.560802005012531,0,0.05
1757394518.0342417,0.722,-0.439,9.459,0.23426340409889035,5.104776879012689,1.5775438596491227,0,0.05
1757394518.0610275,0.722,-0.439,9.459,0.23426340409889035,5.104776879012689,1.5775438596491227,0,0.05
1757394518.0883982,0.328,-0.397,9.624,0.23483675713141672,3.0629088292358486,1.5972932330827065,0,0.05
1757394518.1161149,0.328,-0.397,9.624,0.23483675713141672,3.0629088292358486,1.5972932330827065,0,0.05
1757394518.1434226,0.691,-0.363,9.713,0.2373647088343168,4.594462880854972,1.615488721804511,0,0.05
1757394518.171485,0.691,-0.363,9.713,0.2373647088343168,4.594462880854972,1.615488721804511,0,0.05
1757394518.1997056,0.57,-0.474,9.544,0.23906956100683333,4.441553754858139,1.6215538847117792,0,0.05
1757394518.227383,0.57,-0.474,9.544,0.23906956100683333,4.441553754858139,1.6215538847117792,0,0.05
1757394518.2544458,0.442,-0.409,9.561,0.24008886896314038,3.604017133942393,1.6279699248120298,0,0.05
1757394518.2818236,0.442,-0.409,9.561,0.24008886896314038,3.604017133942393,1.6279699248120298,0,0.05
1757394518.309052,0.42,-0.414,9.545,0.24100552898222066,3.535552344905182,1.6290726817042607,0,0.05
1757394518.3364522,0.42,-0.414,9.545,0.24100552898222066,3.535552344905182,1.6290726817042607,0,0.05
1757394518.3632553,0.354,-0.345,9.373,0.2416546192399392,3.0188396603888723,1.6323809523809523,0,0.05
1757394518.3896444,0.354,-0.345,9.373,0.2416546192399392,3.0188396603888723,1.6323809523809523,0,0.05
1757394518.4166682,0.144,-0.139,9.456,0.24176185596574162,1.2125217543599323,1.642907268170426,0,0.05
1757394518.443961,0.144,-0.139,9.456,0.24176185596574162,1.2125217543599323,1.642907268170426,0,0.05
1757394518.470938,0.142,-0.164,9.588,0.2418660889831396,1.2961237777770538,1.6430075187969924,0,0.05
1757394518.498196,0.142,-0.164,9.588,0.2418660889831396,1.2961237777770538,1.6430075187969924,0,0.05
1757394518.5245082,0.075,-0.167,9.524,0.24189515807473286,1.1011916246555045,1.6463659147869671,0,0.05
1757394518.5521445,0.075,-0.167,9.524,0.24189515807473286,1.1011916246555045,1.6463659147869671,0,0.05
1757394518.5793288,-0.004,-0.014,9.526,0.24189524075516658,0.08757489947916493,1.6503258145363406,0,0.05
1757394518.606472,-0.004,-0.014,9.526,0.24189524075516658,0.08757489947916493,1.6503258145363406,0,0.05
1757394518.6328962,0.23,-0.059,9.559,0.24216844860551096,1.4229421933364914,1.6620551378446113,0,0.05
1757394518.6599348,0.23,-0.059,9.559,0.24216844860551096,1.4229421933364914,1.6620551378446113,0,0.05
1757394518.6870782,-0.028,-0.042,9.59,0.24217249534164692,0.30157804835501545,1.6749874686716788,0,0.05
1757394518.714859,-0.028,-0.042,9.59,0.24217249534164692,0.30157804835501545,1.6749874686716788,0,0.05
1757394518.7418783,0.112,-0.095,9.641,0.24223723392575303,0.8727341398335425,1.682005012531328,0,0.05
1757394518.7683487,0.112,-0.095,9.641,0.24223723392575303,0.8727341398335425,1.682005012531328,0,0.05
1757394518.794849,-0.043,-0.129,9.801,0.24224677500433311,0.7948640150252418,1.6897744360902254,0,0.05
1757394518.8222692,-0.043,-0.129,9.801,0.24224677500433311,0.7948640150252418,1.6897744360902254,0,0.05
1757394518.8494403,0.06,-0.192,9.901,0.24226535039084726,1.1639068754091457,1.6949373433583959,0,0.05
1757394518.87667,0.06,-0.192,9.901,0.24226535039084726,1.1639068754091457,1.6949373433583959,0,0.05
1757394518.9039443,-0.003,-0.17,9.77,0.24226539682752882,0.9970128719709386,1.698095238095238,0,0.05
1757394518.9308016,-0.003,-0.17,9.77,0.24226539682752882,0.9970128719709386,1.698095238095238,0,0.05
1757394518.9586236,-0.07,0.032,9.786,0.24229067769932874,0.45062573570553777,1.701453634085213,0,0.05
1757394518.98627,-0.07,0.032,9.786,0.24229067769932874,0.45062573570553777,1.701453634085213,0,0.05
1757394519.0133371,0.184,-0.149,9.782,0.24246528101977818,1.3865167268897918,1.7141854636591476,0,0.05
1757394519.0406313,0.184,-0.149,9.782,0.24246528101977818,1.3865167268897918,1.7141854636591476,0,0.05
1757394519.0679703,0.067,-0.226,9.729,0.24248842240403976,1.3879381962395172,1.7200501253132832,0,0.05
1757394519.0951161,0.067,-0.226,9.729,0.24248842240403976,1.3879381962395172,1.7200501253132832,0,0.05
1757394519.121775,0.11,-0.079,9.778,0.24255078849593542,0.793517184960033,1.7222055137844607,0,0.05
1757394519.1492467,0.11,-0.079,9.778,0.24255078849593542,0.793517184960033,1.7222055137844607,0,0.05
1757394519.1765459,-0.123,-0.095,9.863,0.24262874417512859,0.9027597539568315,1.7338847117794487,0,0.05
1757394519.204117,-0.123,-0.095,9.863,0.24262874417512859,0.9027597539568315,1.7338847117794487,0,0.05
1757394519.2313735,-0.032,-0.207,9.776,0.2426340196674819,1.2274213188889536,1.7384461152882202,0,0.05
1757394519.2592716,-0.032,-0.207,9.776,0.2426340196674819,1.2274213188889536,1.7384461152882202,0,0.05
1757394519.286629,0.173,-0.222,9.727,0.24278815868983394,1.6573750299534664,1.7487218045112782,0,0.05
1757394519.3140628,0.173,-0.222,9.727,0.24278815868983394,1.6573750299534664,1.7487218045112782,0,0.05
1757394519.3411741,0.117,-0.08,9.793,0.24285862657109797,0.829193169265357,1.7515288220551375,0,0.05
1757394519.3677988,0.117,-0.08,9.793,0.24285862657109797,0.829193169265357,1.7515288220551375,0,0.05
1757394519.3950818,0.144,-0.091,9.689,0.2429653318891401,1.00722197177814,1.7528822055137847,0,0.05
1757394519.4224336,0.144,-0.091,9.689,0.2429653318891401,1.00722197177814,1.7528822055137847,0,0.05
1757394519.4505239,0.125,-0.287,9.813,0.24304570557818955,1.8271462972193555,1.7538345864661655,0,0.05
1757394519.4781034,0.125,-0.287,9.813,0.24304570557818955,1.8271462972193555,1.7538345864661655,0,0.05
1757394519.5053794,0.031,-0.205,9.842,0.2430506480139479,1.2068090507228824,1.758546365914787,0,0.05
1757394519.5320044,0.031,-0.205,9.842,0.2430506480139479,1.2068090507228824,1.758546365914787,0,0.05
1757394519.5596251,0.254,-0.23,9.775,0.24338222511103808,2.0076671335664367,1.7697243107769425,0,0.05
1757394519.586484,0.254,-0.23,9.775,0.24338222511103808,2.0076671335664367,1.7697243107769425,0,0.05
1757394519.6139054,0.078,-0.338,9.731,0.24341347025175086,2.0415717793679726,1.7785463659147867,0,0.05
1757394519.6408975,0.078,-0.338,9.731,0.24341347025175086,2.0415717793679726,1.7785463659147867,0,0.05
1757394519.667836,0.12,-0.334,9.798,0.24348740727191623,2.0744587308080735,1.7806516290726815,0,0.05
1757394519.6950552,0.12,-0.334,9.798,0.24348740727191623,2.0744587308080735,1.7806516290726815,0,0.05
1757394519.72235,0.155,-0.282,9.712,0.24361071405010085,1.8977022129184713,1.7824060150375938,0,0.05
1757394519.7487524,0.155,-0.282,9.712,0.24361071405010085,1.8977022129184713,1.7824060150375938,0,0.05
1757394519.776084,0.194,-0.261,9.624,0.24380375304740493,1.935335957727879,1.7843609022556388,0,0.05
1757394519.8034143,0.194,-0.261,9.624,0.24380375304740493,1.935335957727879,1.7843609022556388,0,0.05
1757394519.8307345,0.194,-0.261,9.624,0.24380375304740493,1.935335957727879,1.7843609022556388,0,0.05
1757394519.8578675,0.194,-0.261,9.624,0.24380375304740493,1.935335957727879,1.7843609022556388,0,0.05
1757394519.8847601,0.194,-0.261,9.624,0.24380375304740493,1.935335957727879,1.7843609022556388,0,0.05
1757394519.912048,0.194,-0.261,9.624,0.24380375304740493,1.935335957727879,1.7843609022556388,0,0.05
1757394519.9393206,0.194,-0.261,9.624,0.24380375304740493,1.935335957727879,1.7843609022556388,0,0.05
1757394519.9659522,0.225,-0.326,9.579,0.24406317317448775,2.3679250746805347,1.7859147869674186,0,0.05
1757394519.992364,0.074,-0.475,9.797,0.24409121758064134,2.80919727823328,1.793483709273183,0,0.05
1757394520.0191956,0.125,-0.426,9.842,0.24417122066287827,2.582791671133337,1.7960401002506265,0,0.05
1757394520.0454066,0.128,-0.247,9.784,0.24425508183045036,1.6286960040202314,1.7961904761904761,0,0.05
1757394520.0712483,0.002,-0.386,9.866,0.24425510230085265,2.240542589781706,1.8025062656641602,0,0.05
1757394520.0973506,0.26,-0.346,9.854,0.24460080743938684,2.5148870386425184,1.815438596491228,0,0.05
1757394520.1245396,0.26,-0.346,9.854,0.24460080743938684,2.5148870386425184,1.815438596491228,0,0.05
1757394520.151489,0.164,-0.313,9.686,0.24473821728532716,2.0893248473130868,1.820250626566416,0,0.05
1757394520.179202,0.164,-0.313,9.686,0.24473821728532716,2.0893248473130868,1.820250626566416,0,0.05
1757394520.2064514,0.082,-0.545,9.79,0.24477255769387224,3.2221014426331447,1.8243609022556393,0,0.05
1757394520.233625,0.082,-0.545,9.79,0.24477255769387224,3.2221014426331447,1.8243609022556393,0,0.05
1757394520.2608674,0.254,-0.411,9.788,0.2451018053789078,2.8259284276961867,1.832982456140351,0,0.05
1757394520.2883916,0.254,-0.411,9.788,0.2451018053789078,2.8259284276961867,1.832982456140351,0,0.05
1757394520.3154466,0.065,-0.32,9.715,0.24512335160078078,1.925067157700157,1.8424561403508772,0,0.05
1757394520.3416498,0.065,-0.32,9.715,0.24512335160078078,1.925067157700157,1.8424561403508772,0,0.05
1757394520.3683326,0.203,-0.296,9.765,0.24533340579709076,2.105014042427695,1.8493734335839598,0,0.05
1757394520.3960307,0.203,-0.296,9.765,0.24533340579709076,2.105014042427695,1.8493734335839598,0,0.05
1757394520.4230251,0.268,-0.219,9.77,0.24569908424737769,2.02883962706183,1.8526315789473686,0,0.05
1757394520.4503126,0.268,-0.219,9.77,0.24569908424737769,2.02883962706183,1.8526315789473686,0,0.05
1757394520.4773703,0.202,-0.23,9.647,0.2459065879556707,1.8174552367966132,1.85593984962406,0,0.05
1757394520.5038679,0.202,-0.23,9.647,0.2459065879556707,1.8174552367966132,1.85593984962406,0,0.05
1757394520.5293005,0.168,-0.201,9.816,0.24605001524080422,1.5287138104887597,1.8576441102756893,0,0.05
1757394520.5554225,0.168,-0.201,9.816,0.24605001524080422,1.5287138104887597,1.8576441102756893,0,0.05
1757394520.58138,0.299,-0.226,9.842,0.24650377786151675,2.180881519874096,1.8642105263157893,0,0.05
1757394520.6084225,0.299,-0.226,9.842,0.24650377786151675,2.180881519874096,1.8642105263157893,0,0.05
1757394520.6348255,0.219,-0.328,9.814,0.24674686421513042,2.301288033957681,1.868220551378446,0,0.05
1757394520.6628075,0.219,-0.328,9.814,0.24674686421513042,2.301288033957681,1.868220551378446,0,0.05
1757394520.6898723,0.219,-0.328,9.814,0.24674686421513042,2.301288033957681,1.868220551378446,0,0.05
1757394520.7168908,0.219,-0.328,9.814,0.24674686421513042,2.301288033957681,1.868220551378446,0,0.05
1757394520.7427616,0.219,-0.328,9.814,0.24674686421513042,2.301288033957681,1.868220551378446,0,0.05
1757394520.7700243,0.219,-0.328,9.814,0.24674686421513042,2.301288033957681,1.868220551378446,0,0.05
1757394520.7973826,0.219,-0.328,9.814,0.24674686421513042,2.301288033957681,1.868220551378446,0,0.05
1757394520.824642,0.219,-0.328,9.814,0.24674686421513042,2.301288033957681,1.868220551378446,0,0.05
1757394520.851684,0.295,-0.081,9.66,0.24718733280651745,1.8138686193105114,1.8720300751879697,0,0.05
1757394520.878763,0.241,-0.15,9.749,0.24748086794740315,1.6678469549628816,1.874736842105263,0,0.05
1757394520.907343,0.208,-0.247,9.739,0.24769929349919428,1.8990444353819662,1.876390977443609,0,0.05
1757394520.935383,0.226,-0.266,9.663,0.24795691157941133,2.0687240344271465,1.8772932330827066,0,0.05
1757394520.9625905,0.226,-0.266,9.663,0.24795691157941133,2.0687240344271465,1.8772932330827066,0,0.05
1757394520.9899156,0.342,-0.376,9.82,0.2485458509007946,2.9629177816059085,1.883107769423559,0,0.05
1757394521.0165446,0.214,-0.502,9.8,0.24877606396114557,3.1872095637299362,1.8895238095238094,0,0.05
1757394521.043419,0.204,-0.536,9.88,0.2489850798742768,3.3221441461975956,1.8900250626566417,0,0.05
1757394521.0704048,0.204,-0.536,9.88,0.2489850798742768,3.3221441461975956,1.8900250626566417,0,0.05
1757394521.0970857,0.345,-0.479,9.949,0.24958191541055214,3.395584489669592,1.8970927318295738,0,0.05
1757394521.123976,0.313,-0.523,9.891,0.2500720996032944,3.526239906697697,1.8986967418546363,0,0.05
1757394521.150774,0.313,-0.523,9.891,0.2500720996032944,3.526239906697697,1.8986967418546363,0,0.05
1757394521.1780977,0.313,-0.523,9.891,0.2500720996032944,3.526239906697697,1.8986967418546363,0,0.05
1757394521.205451,0.699,-0.561,9.678,0.25250258909563683,5.2910861893857835,1.9180451127819547,0,0.05
1757394521.2333417,0.318,-0.545,9.86,0.2530027025547356,3.6616490568581255,1.937142857142857,0,0.05
1757394521.2608948,0.318,-0.545,9.86,0.2530027025547356,3.6616490568581255,1.937142857142857,0,0.05
1757394521.2883859,0.514,-0.714,9.887,0.25430465489251275,5.08491879148091,1.9469674185463657,0,0.05
1757394521.3163316,0.514,-0.714,9.887,0.25430465489251275,5.08491879148091,1.9469674185463657,0,0.05
1757394521.343792,0.514,-0.714,9.887,0.25430465489251275,5.08491879148091,1.9469674185463657,0,0.05
1757394521.3711863,0.402,-0.673,9.79,0.25509776067225676,4.578117250640894,1.952581453634085,0,0.05
1757394521.3987205,0.402,-0.673,9.79,0.25509776067225676,4.578117250640894,1.952581453634085,0,0.05
1757394521.4260728,0.493,-0.605,9.776,0.25628595357529843,4.564323456799521,1.9571428571428569,0,0.05
1757394521.4537575,0.493,-0.605,9.776,0.25628595357529843,4.564323456799521,1.9571428571428569,0,0.05
1757394521.4810236,0.493,-0.605,9.776,0.25628595357529843,4.564323456799521,1.9571428571428569,0,0.05
1757394521.5074747,0.493,-0.605,9.776,0.25628595357529843,4.564323456799521,1.9571428571428569,0,0.05
1757394521.533974,0.355,-0.57,9.888,0.25689988808872616,3.8850803908595264,1.9640601503759394,0,0.05
1757394521.5603476,0.468,-0.636,9.844,0.2579633937208921,4.586140289846463,1.9697243107769422,0,0.05
1757394521.5869489,0.363,-0.404,9.78,0.2586011117532173,3.178614620653656,1.974987468671679,0,0.05
1757394521.6139126,0.349,-0.511,9.973,0.25918919248302,3.550549390369763,1.9756892230576437,0,0.05
1757394521.6413844,0.349,-0.511,9.973,0.25918919248302,3.550549390369763,1.9756892230576437,0,0.05
1757394521.6686485,0.379,-0.441,9.821,0.2598810112339876,3.3884175156019665,1.9771929824561403,0,0.30000000000000004
1757394521.6962767,0.379,-0.441,9.821,0.2598810112339876,3.3884175156019665,1.9771929824561403,0,0.30000000000000004
1757394521.7239091,0.379,-0.441,9.821,0.2598810112339876,3.3884175156019665,1.9771929824561403,0,0.30000000000000004
1757394521.7500713,0.379,-0.441,9.821,0.2598810112339876,3.3884175156019665,1.9771929824561403,0,0.30000000000000004
1757394521.7764926,0.282,-0.247,9.734,0.2602632321323932,2.205493965782393,1.9820551378446114,0,0.30000000000000004
1757394521.804088,0.073,-0.126,9.934,0.2602888251539048,0.8398205770788373,1.992531328320802,0,0.30000000000000004
1757394521.8315988,0.232,-0.216,9.756,0.260547179029058,1.8609636799636038,2.000501253132832,0,0.30000000000000004
1757394521.8587098,0.067,-0.072,9.744,0.2605687145457029,0.5782973512066087,2.008771929824561,0,0.30000000000000004
1757394521.8861861,0.067,-0.072,9.744,0.2605687145457029,0.5782973512066087,2.008771929824561,0,0.30000000000000004
1757394521.9137526,0.067,-0.072,9.744,0.2605687145457029,0.5782973512066087,2.008771929824561,0,0.30000000000000004
1757394521.9414487,0.067,-0.072,9.744,0.2605687145457029,0.5782973512066087,2.008771929824561,0,0.30000000000000004
1757394521.9683695,0.179,-0.083,9.762,0.26072237629325185,1.1578889329282684,2.0143859649122806,0,0.30000000000000004
1757394521.9949985,0.168,-0.274,9.933,0.26085765754525975,1.8532792368616964,2.014937343358396,0,0.30000000000000004
1757394522.0220277,0.168,-0.274,9.933,0.26085765754525975,1.8532792368616964,2.014937343358396,0,0.30000000000000004
1757394522.0484188,0.168,-0.274,9.933,0.26085765754525975,1.8532792368616964,2.014937343358396,0,0.30000000000000004
1757394522.0756269,-0.038,-0.388,9.895,0.26086457693600335,2.2562484218375616,2.0252631578947367,0,0.30000000000000004
1757394522.102175,0.216,-0.261,9.826,0.26108804549423553,1.974700800781659,2.037994987468672,0,0.30000000000000004
1757394522.129459,0.092,-0.375,9.886,0.2611285650785835,2.236681461944052,2.0442105263157897,0,0.30000000000000004
1757394522.1563535,0.092,-0.375,9.886,0.2611285650785835,2.236681461944052,2.0442105263157897,0,0.30000000000000004
1757394522.1837077,0.092,-0.375,9.886,0.2611285650785835,2.236681461944052,2.0442105263157897,0,0.30000000000000004
1757394522.21051,0.069,-0.517,9.886,0.2611513545819742,3.0201179783572845,2.0453634085213035,0,0.30000000000000004
1757394522.2372758,0.069,-0.517,9.886,0.2611513545819742,3.0201179783572845,2.0453634085213035,0,0.30000000000000004
1757394522.263409,0.16,-0.377,10.048,0.26127386015443643,2.3340317504019796,2.0499248120300755,0,0.30000000000000004
1757394522.290393,0.16,-0.377,10.048,0.26127386015443643,2.3340317504019796,2.0499248120300755,0,0.30000000000000004
1757394522.3175516,-0.0,-0.399,10.092,0.26127386015443643,2.2640820163146715,2.0579448621553884,0,0.30000000000000004
1757394522.3447824,-0.002,-0.597,9.977,0.2612738792914439,3.4243795005529365,2.0580451127819552,0,0.30000000000000004
1757394522.3714812,-0.002,-0.597,9.977,0.2612738792914439,3.4243795005529365,2.0580451127819552,0,0.30000000000000004
1757394522.3992944,-0.002,-0.597,9.977,0.2612738792914439,3.4243795005529365,2.0580451127819552,0,0.30000000000000004
1757394522.4264324,0.294,-0.471,9.872,0.2616870841291179,3.2190724385145955,2.072882205513784,0,0.30000000000000004
1757394522.4537082,-0.042,-0.296,10.001,0.2616955100875825,1.7122613963301114,2.0897243107769423,0,0.30000000000000004
1757394522.4801505,-0.042,-0.296,10.001,0.2616955100875825,1.7122613963301114,2.0897243107769423,0,0.30000000000000004
1757394522.5068748,-0.042,-0.296,10.001,0.2616955100875825,1.7122613963301114,2.0897243107769423,0,0.30000000000000004
1757394522.5348465,0.055,-0.21,9.818,0.26170995873294545,1.2666438771406279,2.0945864661654134,0,0.30000000000000004
1757394522.5626037,-0.057,-0.342,9.899,0.2617254764061,2.0059935152548634,2.1002005012531324,0,0.30000000000000004
1757394522.5896018,-0.057,-0.342,9.899,0.2617254764061,2.0059935152548634,2.1002005012531324,0,0.30000000000000004
1757394522.6167321,-0.057,-0.342,9.899,0.2617254764061,2.0059935152548634,2.1002005012531324,0,0.30000000000000004
1757394522.6445255,-0.188,-0.383,10.057,0.26189422483132385,2.4292315189650346,2.106766917293233,0,0.30000000000000004
1757394522.6719918,0.251,-0.366,9.89,0.26219475109162654,2.5693354136683904,2.1287719298245618,0,0.30000000000000004
1757394522.6995485,0.251,-0.366,9.89,0.26219475109162654,2.5693354136683904,2.1287719298245618,0,0.30000000000000004
1757394522.726439,0.033,-0.632,9.747,0.2621999427917558,3.7149313689374757,2.139699248120301,0,0.30000000000000004
1757394522.75288,0.033,-0.632,9.747,0.2621999427917558,3.7149313689374757,2.139699248120301,0,0.30000000000000004
1757394522.7793448,0.207,-0.389,9.638,0.2624041396396025,2.6177275747188644,2.148421052631579,0,0.30000000000000004
1757394522.805472,0.207,-0.389,9.638,0.2624041396396025,2.6177275747188644,2.148421052631579,0,0.30000000000000004
1757394522.8328102,0.207,-0.389,9.638,0.2624041396396025,2.6177275747188644,2.148421052631579,0,0.30000000000000004
1757394522.8595214,0.207,-0.389,9.638,0.2624041396396025,2.6177275747188644,2.148421052631579,0,0.30000000000000004
1757394522.887128,0.068,-0.29,9.617,0.26242616580668937,1.7740455045465806,2.155388471177945,0,0.30000000000000004
1757394522.9149156,0.068,-0.29,9.617,0.26242616580668937,1.7740455045465806,2.155388471177945,0,0.30000000000000004
1757394522.9421825,0.068,-0.29,9.617,0.26242616580668937,1.7740455045465806,2.155388471177945,0,0.30000000000000004
1757394522.9691286,0.068,-0.29,9.617,0.26242616580668937,1.7740455045465806,2.155388471177945,0,0.30000000000000004
1757394522.9964297,0.068,-0.29,9.617,0.26242616580668937,1.7740455045465806,2.155388471177945,0,0.30000000000000004
1757394523.0235453,0.068,-0.29,9.617,0.26242616580668937,1.7740455045465806,2.155388471177945,0,0.30000000000000004
1757394523.0509906,0.068,-0.29,9.617,0.26242616580668937,1.7740455045465806,2.155388471177945,0,0.30000000000000004
1757394523.077706,0.068,-0.29,9.617,0.26242616580668937,1.7740455045465806,2.155388471177945,0,0.30000000000000004
1757394523.1042814,0.068,-0.29,9.617,0.26242616580668937,1.7740455045465806,2.155388471177945,0,0.30000000000000004
1757394523.1318429,0.228,-0.375,9.618,0.26267366160313826,2.6126125029222553,2.1634085213032583,0,0.30000000000000004
1757394523.1592178,-0.032,-0.322,9.591,0.2626785345246162,1.932341898893366,2.176441102756892,0,0.30000000000000004
1757394523.1859512,0.168,-0.322,9.44,0.2628128088583203,2.2032920072905333,2.186466165413534,0,0.30000000000000004
1757394523.213631,0.0,-0.402,9.562,0.2628128088583203,2.407377919676162,2.1948872180451127,0,0.30000000000000004
1757394523.2402027,0.187,-0.303,9.592,0.26297907711451113,2.1258668236753038,2.204260651629072,0,0.30000000000000004
1757394523.2673666,-0.104,-0.095,9.665,0.26303048302430654,0.8349717979956035,2.218847117794486,0,0.30000000000000004
1757394523.2946546,0.246,-0.252,9.633,0.26331791621536127,2.0936957407729144,2.236390977443609,0,0.30000000000000004
1757394523.321606,-0.041,-0.218,9.626,0.2633258959920197,1.3200930257773298,2.2507769423558894,0,0.30000000000000004
1757394523.3490639,0.01,-0.122,9.762,0.2633263706885431,0.7184142707564026,2.253333333333333,0,0.30000000000000004
1757394523.3765566,0.106,-0.253,9.587,0.26337970214122425,1.6389294335409326,2.258145363408521,0,0.30000000000000004
1757394523.4047606,0.106,-0.253,9.587,0.26337970214122425,1.6389294335409326,2.258145363408521,0,0.30000000000000004
1757394523.4319348,0.106,-0.253,9.587,0.26337970214122425,1.6389294335409326,2.258145363408521,0,0.30000000000000004
1757394523.4591222,-0.041,-0.294,9.556,0.2633876800459733,1.7792489143180925,2.2655137844611524,0,0.30000000000000004
1757394523.4858897,0.016,-0.187,9.689,0.2633888949823056,1.1097237139497707,2.2683709273182955,0,0.30000000000000004
1757394523.5133564,0.016,-0.187,9.689,0.2633888949823056,1.1097237139497707,2.2683709273182955,0,0.30000000000000004
1757394523.5408142,-0.088,-0.122,9.675,0.2634256441578914,0.8907580427134749,2.273583959899749,0,0.30000000000000004
1757394523.5683038,-0.088,-0.122,9.675,0.2634256441578914,0.8907580427134749,2.273583959899749,0,0.30000000000000004
1757394523.5956733,-0.088,-0.122,9.675,0.2634256441578914,0.8907580427134749,2.273583959899749,0,0.30000000000000004
1757394523.6229792,0.084,-0.3,9.613,0.26345912396423093,1.8561920581084068,2.282205513784461,0,0.30000000000000004
1757394523.6499724,0.084,-0.3,9.613,0.26345912396423093,1.8561920581084068,2.282205513784461,0,0.30000000000000004
1757394523.6776533,0.002,-0.156,9.7,0.26345914294250633,0.9214541711300205,2.286315789473684,0,0.30000000000000004
1757394523.7053301,0.002,-0.156,9.7,0.26345914294250633,0.9214541711300205,2.286315789473684,0,0.30000000000000004
1757394523.7328234,0.002,-0.156,9.7,0.26345914294250633,0.9214541711300205,2.286315789473684,0,0.30000000000000004
1757394523.7598536,0.002,-0.156,9.7,0.26345914294250633,0.9214541711300205,2.286315789473684,0,0.30000000000000004
1757394523.7869515,0.211,-0.197,9.564,0.2636702912730215,1.7288285502963547,2.2967919799498744,0,0.30000000000000004
1757394523.8147461,0.049,-0.366,9.662,0.2636816736142275,2.1886836943745687,2.304912280701754,0,0.30000000000000004
1757394523.8423092,0.049,-0.366,9.662,0.2636816736142275,2.1886836943745687,2.304912280701754,0,0.30000000000000004
1757394523.8696246,0.139,-0.349,9.656,0.263773250160057,2.227941430826598,2.309423558897243,0,0.30000000000000004
1757394523.8969042,0.117,-0.367,9.78,0.2638381132437086,2.255506657214075,2.3105263157894735,0,0.30000000000000004
1757394523.9240823,0.228,-0.361,9.681,0.2640842857877007,2.5253428435826555,2.3160902255639098,0,0.30000000000000004
1757394523.9517245,0.228,-0.361,9.681,0.2640842857877007,2.5253428435826555,2.3160902255639098,0,0.30000000000000004
1757394523.9792929,0.084,-0.334,9.591,0.2641176821040197,2.056536844551095,2.3233082706766917,0,0.30000000000000004
1757394524.005964,0.084,-0.334,9.591,0.2641176821040197,2.056536844551095,2.3233082706766917,0,0.30000000000000004
1757394524.0334406,0.29,-0.21,9.638,0.26451540597855544,2.1275513495934493,2.3336340852130326,0,0.30000000000000004
1757394524.061458,0.29,-0.21,9.638,0.26451540597855544,2.1275513495934493,2.3336340852130326,0,0.30000000000000004
1757394524.0893319,0.055,-0.179,9.526,0.2645297006008966,1.1261577712527768,2.3454135338345865,0,0.30000000000000004
1757394524.1170523,0.055,-0.179,9.526,0.2645297006008966,1.1261577712527768,2.3454135338345865,0,0.30000000000000004
1757394524.144035,0.094,-0.327,9.7,0.26457145065180404,2.008914796679671,2.3473684210526313,0,0.30000000000000004
1757394524.1718247,0.094,-0.327,9.7,0.26457145065180404,2.008914796679671,2.3473684210526313,0,0.30000000000000004
1757394524.1995053,0.1,-0.141,9.737,0.264618692650387,1.0170666336216496,2.3398997493734335,0,0.30000000000000004
1757394524.2269459,0.1,-0.141,9.737,0.264618692650387,1.0170666336216496,2.3398997493734335,0,0.30000000000000004
1757394524.2537692,0.046,-0.275,9.802,0.2645151791485698,1.6293556932247206,2.342205513784461,0,0.30000000000000004
1757394524.2814598,0.046,-0.275,9.802,0.2645151791485698,1.6293556932247206,2.342205513784461,0,0.30000000000000004
1757394524.3094041,-0.053,-0.348,9.899,0.2644028744170532,2.0366048918109443,2.346817042606516,0,0.30000000000000004
1757394524.337339,-0.053,-0.348,9.899,0.2644028744170532,2.0366048918109443,2.346817042606516,0,0.30000000000000004
1757394524.364303,0.016,-0.497,9.86,0.2642890084736783,2.8870829117623273,2.350125313283208,0,0.30000000000000004
1757394524.3917289,0.016,-0.497,9.86,0.2642890084736783,2.8870829117623273,2.350125313283208,0,0.30000000000000004
1757394524.419231,-0.132,-0.512,9.94,0.26425184483745806,3.0448847731865634,2.35719298245614,0,0.30000000000000004
1757394524.4464478,-0.132,-0.512,9.94,0.26425184483745806,3.0448847731865634,2.35719298245614,0,0.30000000000000004
1757394524.4730904,0.084,-0.615,9.743,0.2641548551512919,3.6452909118624977,2.367518796992481,0,0.30000000000000004
1757394524.4998014,0.084,-0.615,9.743,0.2641548551512919,3.6452909118624977,2.367518796992481,0,0.30000000000000004
1757394524.5276089,0.18,-0.516,9.893,0.26416159353698637,3.161834083547886,2.3717293233082706,0,0.30000000000000004
1757394524.5551763,0.18,-0.516,9.893,0.26416159353698637,3.161834083547886,2.3717293233082706,0,0.30000000000000004
1757394524.5820143,0.113,-0.464,9.874,0.2640547481110688,2.768984566826683,2.3749874686716788,0,0.30000000000000004
1757394524.6091075,0.113,-0.464,9.874,0.2640547481110688,2.768984566826683,2.3749874686716788,0,0.30000000000000004
1757394524.6352983,0.155,-0.543,9.801,0.263997580481337,3.297478213187487,2.3765914786967417,0,0.30000000000000004
1757394524.6628199,0.155,-0.543,9.801,0.263997580481337,3.297478213187487,2.3765914786967417,0,0.30000000000000004
1757394524.6892903,0.155,-0.543,9.801,0.263997580481337,3.297478213187487,2.3765914786967417,0,0.30000000000000004
1757394524.7166345,0.155,-0.543,9.801,0.263997580481337,3.297478213187487,2.3765914786967417,0,0.30000000000000004
1757394524.7433088,0.187,-0.46,9.834,0.26397375816546614,2.8906331241362366,2.3776942355889723,0,0.30000000000000004
1757394524.7704287,0.419,-0.349,9.775,0.26459553567662475,3.192998292774692,2.389022556390977,0,0.30000000000000004
1757394524.7984767,0.209,-0.489,9.562,0.26460529095239194,3.1832296213888265,2.3990977443609016,0,0.30000000000000004
1757394524.8259563,0.209,-0.489,9.562,0.26460529095239194,3.1832296213888265,2.3990977443609016,0,0.30000000000000004
1757394524.8526723,0.387,-0.263,9.568,0.2650980196078424,2.7997302226922858,2.407318295739348,0,0.30000000000000004
1757394524.879859,0.387,-0.263,9.568,0.2650980196078424,2.7997302226922858,2.407318295739348,0,0.30000000000000004
1757394524.9071784,0.279,-0.079,9.59,0.26522205790620057,1.7319017172662121,2.4121804511278198,0,0.30000000000000004
1757394524.9344323,0.279,-0.079,9.59,0.26522205790620057,1.7319017172662121,2.4121804511278198,0,0.30000000000000004
1757394524.9605172,0.177,-0.061,9.645,0.265102720657484,1.1120130310594687,2.4169924812030072,0,0.30000000000000004
1757394524.9874582,0.177,-0.061,9.645,0.265102720657484,1.1120130310594687,2.4169924812030072,0,0.30000000000000004
1757394525.0147305,0.385,-0.148,9.57,0.26552057359082365,2.467920519543092,2.4262656641604012,0,0.30000000000000004
1757394525.0422323,0.385,-0.148,9.57,0.26552057359082365,2.467920519543092,2.4262656641604012,0,0.30000000000000004
1757394525.069334,0.139,-0.029,9.63,0.2652758093004336,0.8447567681778568,2.4380451127819547,0,0.30000000000000004
1757394525.0955162,0.139,-0.029,9.63,0.2652758093004336,0.8447567681778568,2.4380451127819547,0,0.30000000000000004
1757394525.1224518,0.197,-0.216,9.586,0.26509445014937605,1.7468063810588694,2.4402506265664163,0,0.30000000000000004
1757394525.1500096,0.197,-0.216,9.586,0.26509445014937605,1.7468063810588694,2.4402506265664163,0,0.30000000000000004
1757394525.1774306,0.013,-0.269,9.536,0.2646928975246597,1.6177067744742135,2.449122807017544,0,0.30000000000000004
1757394525.2042654,0.013,-0.269,9.536,0.2646928975246597,1.6177067744742135,2.449122807017544,0,0.30000000000000004
1757394525.2308674,0.294,-0.168,9.517,0.2646788950785461,2.0377240408600907,2.4631578947368427,0,0.30000000000000004
1757394525.2583055,0.294,-0.168,9.517,0.2646788950785461,2.0377240408600907,2.4631578947368427,0,0.30000000000000004
1757394525.2855816,0.14,-0.179,9.559,0.2643462076520108,1.3618387817601327,2.4705263157894737,0,0.30000000000000004
1757394525.313473,0.14,-0.179,9.559,0.2643462076520108,1.3618387817601327,2.4705263157894737,0,0.30000000000000004
1757394525.3410318,0.105,-0.274,9.559,0.263952377333488,1.758239020828226,2.47218045112782,0,0.30000000000000004
1757394525.3680303,0.105,-0.274,9.559,0.263952377333488,1.758239020828226,2.47218045112782,0,0.30000000000000004
1757394525.3953173,0.446,-0.224,9.622,0.2644417610741541,2.9692593777878082,2.4888220551378444,0,0.30000000000000004
1757394525.4228501,0.446,-0.224,9.622,0.2644417610741541,2.9692593777878082,2.4888220551378444,0,0.30000000000000004
1757394525.4502728,-0.029,-0.323,9.907,0.2640199755700315,1.8748708522624569,2.512431077694236,0,0.30000000000000004
1757394525.477026,0.033,-0.45,9.749,0.26360999601684304,2.6499025758664114,2.5153383458646617,0,0.30000000000000004
1757394525.5036707,0.033,-0.45,9.749,0.26360999601684304,2.6499025758664114,2.5153383458646617,0,0.30000000000000004
1757394525.5307362,0.033,-0.45,9.749,0.26360999601684304,2.6499025758664114,2.5153383458646617,0,0.30000000000000004
1757394525.5583122,0.249,-0.553,9.77,0.26347719540787584,3.5520816481320305,2.5259649122807013,0,0.30000000000000004
1757394525.5860333,0.249,-0.553,9.77,0.26347719540787584,3.5520816481320305,2.5259649122807013,0,0.30000000000000004
1757394525.6120436,0.063,-0.385,9.683,0.2630800543560838,2.307154328864351,2.535137844611529,0,0.30000000000000004
1757394525.638766,0.063,-0.385,9.683,0.2630800543560838,2.307154328864351,2.535137844611529,0,0.30000000000000004
1757394525.6658754,0.052,-0.47,9.663,0.2626847016862611,2.80158706959511,2.5350877192982457,0,0.30000000000000004
1757394525.6932726,0.052,-0.47,9.663,0.2626847016862611,2.80158706959511,2.5350877192982457,0,0.30000000000000004
1757394525.7202563,0.066,-0.486,9.753,0.26232944935710134,2.878877584989687,2.535187969924812,0,0.30000000000000004
1757394525.7472618,0.066,-0.486,9.753,0.26232944935710134,2.878877584989687,2.535187969924812,0,0.30000000000000004
1757394525.7750282,-0.025,-0.456,9.691,0.26198740427738126,2.6980464005904987,2.5396491228070177,0,0.35000000000000003
1757394525.802781,0.234,-0.465,9.659,0.261908509789201,3.084891846789228,2.551829573934837,0,0.35000000000000003
1757394525.8306105,0.234,-0.465,9.659,0.261908509789201,3.084891846789228,2.551829573934837,0,0.35000000000000003
1757394525.8588393,0.109,-0.601,9.637,0.26166441771857324,3.626622786835423,2.557894736842105,0,0.35000000000000003
1757394525.8869665,0.109,-0.601,9.637,0.26166441771857324,3.626622786835423,2.557894736842105,0,0.35000000000000003
1757394525.9144127,0.148,-0.52,9.589,0.261458342762284,3.227060599493408,2.5591979949874686,0,0.35000000000000003
1757394525.9413598,0.148,-0.52,9.589,0.261458342762284,3.227060599493408,2.5591979949874686,0,0.35000000000000003
1757394525.9683356,0.148,-0.52,9.589,0.261458342762284,3.227060599493408,2.5591979949874686,0,0.35000000000000003
1757394525.9947543,0.086,-0.443,9.559,0.2612136003350515,2.7028672896151305,2.5619548872180453,0,0.35000000000000003
1757394526.0224125,0.086,-0.443,9.559,0.2612136003350515,2.7028672896151305,2.5619548872180453,0,0.35000000000000003
1757394526.0496066,0.2,-0.35,9.631,0.2611407331306244,2.396759791542175,2.5674686716791975,0,0.35000000000000003
1757394526.0768151,0.101,-0.483,9.666,0.26093405776172646,2.9223993544283386,2.5722305764411026,0,0.35000000000000003
1757394526.1043038,0.101,-0.483,9.666,0.26093405776172646,2.9223993544283386,2.5722305764411026,0,0.35000000000000003
1757394526.1309783,0.101,-0.483,9.666,0.26093405776172646,2.9223993544283386,2.5722305764411026,0,0.35000000000000003
1757394526.1579401,0.173,-0.481,9.777,0.2608305628180869,2.992837740456352,2.575488721804511,0,0.35000000000000003
1757394526.1856165,0.173,-0.481,9.777,0.2608305628180869,2.992837740456352,2.575488721804511,0,0.35000000000000003
1757394526.2133365,0.312,-0.278,9.552,0.26106501584854297,2.505003972717963,2.5823558897243104,0,0.35000000000000003
1757394526.240606,0.088,-0.309,9.682,0.26087447652079726,1.9005997380611945,2.592731829573935,0,0.35000000000000003
1757394526.2682133,0.088,-0.309,9.682,0.26087447652079726,1.9005997380611945,2.592731829573935,0,0.35000000000000003
1757394526.2958193,0.088,-0.309,9.682,0.26087447652079726,1.9005997380611945,2.592731829573935,0,0.35000000000000003
1757394526.3238153,0.182,-0.234,9.664,0.2607685563866932,1.7570113673976828,2.597393483709273,0,0.35000000000000003
1757394526.351239,0.224,-0.193,9.67,0.2607466011283752,1.751373150764729,2.598997493734336,0,0.35000000000000003
1757394526.3778243,0.224,-0.193,9.67,0.2607466011283752,1.751373150764729,2.598997493734336,0,0.35000000000000003
1757394526.4050343,0.221,-0.325,9.489,0.2607402011581643,2.3717585539390393,2.5984962406015035,0,0.35000000000000003
1757394526.432709,0.221,-0.325,9.489,0.2607402011581643,2.3717585539390393,2.5984962406015035,0,0.35000000000000003
1757394526.4599507,0.042,-0.316,9.499,0.2604792506131726,1.9220796578592863,2.6072681704260643,0,0.35000000000000003
1757394526.4879584,0.042,-0.316,9.499,0.2604792506131726,1.9220796578592863,2.6072681704260643,0,0.35000000000000003
1757394526.5154254,0.256,-0.302,9.47,0.260515023559103,2.3939206609920674,2.6177443609022553,0,0.35000000000000003
1757394526.5423224,0.256,-0.302,9.47,0.260515023559103,2.3939206609920674,2.6177443609022553,0,0.35000000000000003
1757394526.5705738,0.32,-0.385,9.581,0.2607390218206703,2.9910881318453155,2.6203508771929824,0,0.35000000000000003
1757394526.5972574,0.32,-0.385,9.581,0.2607390218206703,2.9910881318453155,2.6203508771929824,0,0.35000000000000003
1757394526.624941,0.255,-0.343,9.726,0.26081019918707166,2.5162130623436205,2.6231077694235587,0,0.35000000000000003
1757394526.652352,0.255,-0.343,9.726,0.26081019918707166,2.5162130623436205,2.6231077694235587,0,0.35000000000000003
1757394526.680075,0.156,-0.277,9.65,0.2607073263259013,1.886855626071331,2.6272180451127816,0,0.35000000000000003
1757394526.707211,0.156,-0.277,9.65,0.2607073263259013,1.886855626071331,2.6272180451127816,0,0.35000000000000003
1757394526.7338314,0.136,-0.359,9.757,0.260609914431512,2.2531869336425348,2.6279197994987467,0,0.35000000000000003
1757394526.7618995,0.136,-0.359,9.757,0.260609914431512,2.2531869336425348,2.6279197994987467,0,0.35000000000000003
1757394526.7899487,0.282,-0.371,9.671,0.26081628591788514,2.7587374518501533,2.634837092731829,0,0.35000000000000003
1757394526.8169122,0.282,-0.371,9.671,0.26081628591788514,2.7587374518501533,2.634837092731829,0,0.35000000000000003
1757394526.8444421,0.275,-0.271,9.658,0.2610181507098692,2.289251679802099,2.634736842105263,0,0.35000000000000003
1757394526.872108,0.275,-0.271,9.658,0.2610181507098692,2.289251679802099,2.634736842105263,0,0.35000000000000003
1757394526.8998914,0.291,-0.337,9.617,0.2612785630318722,2.6508160491428057,2.6354887218045113,0,0.35000000000000003
1757394526.927809,0.291,-0.337,9.617,0.2612785630318722,2.6508160491428057,2.6354887218045113,0,0.35000000000000003
1757394526.954764,0.343,-0.357,9.49,0.261694569106812,2.986295576548192,2.6378947368421053,0,0.35000000000000003
1757394526.982097,0.343,-0.357,9.49,0.261694569106812,2.986295576548192,2.6378947368421053,0,0.35000000000000003
1757394527.0095613,0.213,-0.352,9.596,0.26175822336652577,2.455049962866241,2.644360902255639,0,0.35000000000000003
1757394527.0365965,0.213,-0.352,9.596,0.26175822336652577,2.455049962866241,2.644360902255639,0,0.35000000000000003
1757394527.0635247,0.216,-0.427,9.58,0.26182629260637674,2.8595641092575272,2.64375939849624,0,0.35000000000000003
1757394527.0914795,0.216,-0.427,9.58,0.26182629260637674,2.8595641092575272,2.64375939849624,0,0.35000000000000003
1757394527.1197655,0.152,-0.248,9.529,0.26180661756342216,1.748421685805349,2.646917293233083,0,0.35000000000000003
1757394527.1479018,0.152,-0.248,9.529,0.26180661756342216,1.748421685805349,2.646917293233083,0,0.35000000000000003
1757394527.1761847,0.317,-0.241,9.564,0.26215775308008726,2.38420067244815,2.6548370927318294,0,0.35000000000000003
1757394527.2040691,0.317,-0.241,9.564,0.26215775308008726,2.38420067244815,2.6548370927318294,0,0.35000000000000003
1757394527.232326,0.033,-0.358,9.621,0.2620453920602307,2.140034185014769,2.668822055137845,0,0.35000000000000003
1757394527.2600207,0.285,-0.33,9.521,0.26232249236388405,2.6221427533936943,2.6810526315789476,0,0.35000000000000003
1757394527.288301,0.285,-0.33,9.521,0.26232249236388405,2.6221427533936943,2.6810526315789476,0,0.35000000000000003
1757394527.3163176,0.285,-0.33,9.521,0.26232249236388405,2.6221427533936943,2.6810526315789476,0,0.35000000000000003
1757394527.343934,0.138,-0.263,9.683,0.262314429645035,1.7568830484593505,2.6879197994987467,0,0.35000000000000003
1757394527.3717823,-0.004,-0.198,9.576,0.2622289267033674,1.1847600058966627,2.694235588972431,0,0.35000000000000003
1757394527.3988621,-0.004,-0.198,9.576,0.2622289267033674,1.1847600058966627,2.694235588972431,0,0.35000000000000003
1757394527.4264796,-0.314,-0.188,9.632,0.26263223336064445,2.1759676741505163,2.709674185463659,0,0.35000000000000003
1757394527.4544153,-0.314,-0.188,9.632,0.26263223336064445,2.1759676741505163,2.709674185463659,0,0.35000000000000003
1757394527.4819896,0.023,-0.485,9.676,0.26257070000287547,2.8727125871460526,2.7265162907268166,0,0.35000000000000003
1757394527.5094316,0.023,-0.485,9.676,0.26257070000287547,2.8727125871460526,2.7265162907268166,0,0.35000000000000003
1757394527.5376875,-0.129,-0.308,9.759,0.26258475298463163,1.9597247626525915,2.7337343358395993,0,0.35000000000000003
1757394527.565077,-0.129,-0.308,9.759,0.26258475298463163,1.9597247626525915,2.7337343358395993,0,0.35000000000000003
1757394527.5911958,-0.24,-0.33,9.826,0.2628023021208148,2.3779544553148635,2.739248120300752,0,0.30000000000000004
1757394527.6179712,-0.24,-0.33,9.826,0.2628023021208148,2.3779544553148635,2.739248120300752,0,0.30000000000000004
1757394527.6452262,0.046,-0.487,9.824,0.26275480966102216,2.850581601100072,2.7531328320802007,0,0.30000000000000004
1757394527.6721818,0.046,-0.487,9.824,0.26275480966102216,2.850581601100072,2.7531328320802007,0,0.30000000000000004
1757394527.6988192,-0.063,-0.239,9.97,0.2627251605765995,1.4201152478691008,2.7585463659147873,0,0.30000000000000004
1757394527.7264326,-0.063,-0.239,9.97,0.2627251605765995,1.4201152478691008,2.7585463659147873,0,0.30000000000000004
1757394527.7540855,0.0,-0.449,9.897,0.2626756555145528,2.59757272207284,2.756390977443609,0,0.30000000000000004
1757394527.7815263,0.0,-0.449,9.897,0.2626756555145528,2.59757272207284,2.756390977443609,0,0.30000000000000004
1757394527.8096719,-0.06,-0.381,10.043,0.2624868377652487,2.199329690578137,2.7441604010025062,0,0.6000000000000001
1757394527.8375094,-0.06,-0.381,10.043,0.2624868377652487,2.199329690578137,2.7441604010025062,0,0.6000000000000001
1757394527.8645813,0.261,-0.404,10.078,0.26156124043902224,2.7323820415242044,2.7439097744360907,0,0.6000000000000001
1757394527.892297,0.261,-0.404,10.078,0.26156124043902224,2.7323820415242044,2.7439097744360907,0,0.6000000000000001
1757394527.9197314,0.132,-0.573,10.054,0.26147916264972243,3.3471278080857645,2.7472180451127817,0,0.6000000000000001
1757394527.947291,0.132,-0.573,10.054,0.26147916264972243,3.3471278080857645,2.7472180451127817,0,0.6000000000000001
1757394527.9733794,0.073,-0.473,10.062,0.261208101903444,2.723227040016092,2.740952380952381,0,0.6000000000000001
1757394528.0004404,0.073,-0.473,10.062,0.261208101903444,2.723227040016092,2.740952380952381,0,0.6000000000000001
1757394528.0272524,0.073,-0.473,10.062,0.261208101903444,2.723227040016092,2.740952380952381,0,0.6000000000000001
1757394528.0533693,0.082,-0.411,10.094,0.2603416217203849,2.3775401272604944,2.735989974937343,0,0.6000000000000001
1757394528.0809257,0.145,-0.49,9.995,0.25903401321062064,2.9267531396092794,2.722756892230577,0,0.6000000000000001
1757394528.1083124,0.145,-0.49,9.995,0.25903401321062064,2.9267531396092794,2.722756892230577,0,0.6000000000000001
1757394528.1357694,0.262,-0.319,9.881,0.2591442455467611,2.3922712812691844,2.719548872180451,0,0.6000000000000001
1757394528.1632829,0.262,-0.319,9.881,0.2591442455467611,2.3922712812691844,2.719548872180451,0,0.6000000000000001
1757394528.1909547,-0.014,-0.127,10.242,0.25913993806435937,0.7147298628148718,2.7131829573934834,0,0.6000000000000001
1757394528.218496,-0.014,-0.127,10.242,0.25913993806435937,0.7147298628148718,2.7131829573934834,0,0.6000000000000001
1757394528.2459497,-0.014,-0.276,10.049,0.258222302483732,1.5752787689216063,2.706115288220551,0,0.6000000000000001
1757394528.2735653,-0.014,-0.276,10.049,0.258222302483732,1.5752787689216063,2.706115288220551,0,0.6000000000000001
1757394528.3008993,-0.014,-0.276,10.049,0.258222302483732,1.5752787689216063,2.706115288220551,0,0.6000000000000001
1757394528.3284519,0.077,-0.261,9.874,0.25782943489834514,1.57863644707899,2.6747368421052626,0,0.6000000000000001
1757394528.3552334,0.205,-0.169,9.923,0.25302316099519423,1.5336815160332735,2.647468671679197,0,0.6000000000000001
1757394528.3827412,0.205,-0.169,9.923,0.25302316099519423,1.5336815160332735,2.647468671679197,0,0.6000000000000001
1757394528.410413,0.149,-0.177,9.841,0.25256132423631295,1.346796640918835,2.6327819548872173,0,0.6000000000000001
1757394528.4380114,0.149,-0.177,9.841,0.25256132423631295,1.346796640918835,2.6327819548872173,0,0.6000000000000001
1757394528.4649885,0.149,-0.177,9.841,0.25256132423631295,1.346796640918835,2.6327819548872173,0,0.6000000000000001
1757394528.4921973,-0.052,-0.282,9.792,0.2502142681782955,1.6774013540361865,2.6277694235588966,0,0.35000000000000003
1757394528.5198855,0.543,-0.319,9.795,0.2509341397657959,3.6787701616610122,2.64907268170426,0,0.35000000000000003
1757394528.547329,0.543,-0.319,9.795,0.2509341397657959,3.6787701616610122,2.64907268170426,0,0.35000000000000003
1757394528.5735703,0.13,-0.343,9.789,0.2494629882367322,2.145958888437835,2.660501253132832,0,0.35000000000000003
1757394528.601003,0.13,-0.343,9.789,0.2494629882367322,2.145958888437835,2.660501253132832,0,0.35000000000000003
1757394528.628944,0.144,-0.464,9.732,0.24886904186740463,2.857890566506738,2.6596992481203,0,0.35000000000000003
1757394528.6567473,0.144,-0.464,9.732,0.24886904186740463,2.857890566506738,2.6596992481203,0,0.35000000000000003
1757394528.68517,0.144,-0.464,9.732,0.24886904186740463,2.857890566506738,2.6596992481203,0,0.35000000000000003
1757394528.713711,0.144,-0.464,9.732,0.24886904186740463,2.857890566506738,2.6596992481203,0,0.35000000000000003
1757394528.7413874,0.28,-0.482,9.941,0.24867182691249926,3.209411487980281,2.665614035087719,0,0.35000000000000003
1757394528.76879,0.273,-0.292,9.687,0.24839121864510427,2.363011717797997,2.6616541353383454,0,0.35000000000000003
1757394528.7958772,0.114,-0.243,9.731,0.2474493180431096,1.5799996008853123,2.662706766917293,0,0.35000000000000003
1757394528.822895,0.114,-0.243,9.731,0.2474493180431096,1.5799996008853123,2.662706766917293,0,0.35000000000000003
1757394528.8502078,0.035,-0.362,10.018,0.24697272116571903,2.079121921489429,2.66375939849624,0,0.35000000000000003
1757394528.8775542,0.035,-0.362,10.018,0.24697272116571903,2.079121921489429,2.66375939849624,0,0.35000000000000003
1757394528.9050043,0.203,-0.196,9.952,0.24686240094433173,1.6241294622268727,2.669022556390977,0,0.35000000000000003
1757394528.9324965,0.203,-0.196,9.952,0.24686240094433173,1.6241294622268727,2.669022556390977,0,0.35000000000000003
1757394528.960204,-0.075,-0.292,9.788,0.24639118795119277,1.764196897836116,2.6806015037593984,0,0.35000000000000003
1757394528.9877877,-0.075,-0.292,9.788,0.24639118795119277,1.764196897836116,2.6806015037593984,0,0.35000000000000003
1757394529.0151324,0.066,-0.352,9.872,0.24575130721931066,2.077651445944468,2.6734837092731825,0,0.35000000000000003
1757394529.0425062,0.066,-0.352,9.872,0.24575130721931066,2.077651445944468,2.6734837092731825,0,0.35000000000000003
1757394529.0704277,-0.058,-0.147,9.931,0.24573747170506982,0.9116504630435037,2.67578947368421,0,0.35000000000000003
1757394529.0979471,-0.058,-0.147,9.931,0.24573747170506982,0.9116504630435037,2.67578947368421,0,0.35000000000000003
1757394529.1248589,-0.001,-0.144,9.754,0.24561365495427975,0.8458265139490679,2.671328320802005,0,0.35000000000000003
1757394529.1522493,0.009,-0.154,9.992,0.2451494646129173,0.884497909987903,2.6653132832080195,0,0.35000000000000003
1757394529.1796758,0.009,-0.154,9.992,0.2451494646129173,0.884497909987903,2.6653132832080195,0,0.35000000000000003
1757394529.207243,-0.08,-0.288,9.979,0.2450312225003173,1.7156886283783073,2.667669172932331,0,0.35000000000000003
1757394529.2353747,-0.08,-0.288,9.979,0.2450312225003173,1.7156886283783073,2.667669172932331,0,0.35000000000000003
1757394529.2627149,-0.08,-0.288,9.979,0.2450312225003173,1.7156886283783073,2.667669172932331,0,0.35000000000000003
1757394529.2896776,-0.086,-0.284,9.762,0.24498273408548613,1.7410840443012414,2.6601503759398493,0,0.35000000000000003
1757394529.31789,0.161,-0.263,9.854,0.24469747138047832,1.7924035362419173,2.661553884711779,0,0.35000000000000003
1757394529.345494,0.161,-0.263,9.854,0.24469747138047832,1.7924035362419173,2.661553884711779,0,0.35000000000000003
1757394529.3731215,0.161,-0.263,9.854,0.24469747138047832,1.7924035362419173,2.661553884711779,0,0.35000000000000003
1757394529.4004986,0.021,-0.273,9.839,0.24467679191128855,1.594055190460978,2.667468671679198,0,0.35000000000000003
1757394529.4276688,0.017,-0.207,9.769,0.24463779859212273,1.2179714316849426,2.6673684210526316,0,0.35000000000000003
1757394529.45458,0.017,-0.207,9.769,0.24463779859212273,1.2179714316849426,2.6673684210526316,0,0.35000000000000003
1757394529.4818387,0.245,-0.402,9.832,0.24490915152358028,2.7413373690681393,2.6728320802005014,0,0.35000000000000003
1757394529.5092542,0.245,-0.402,9.832,0.24490915152358028,2.7413373690681393,2.6728320802005014,0,0.35000000000000003
1757394529.5371773,-0.137,-0.448,9.86,0.2447966605164376,2.7202560229267845,2.687869674185464,0,0.35000000000000003
1757394529.5652404,-0.137,-0.448,9.86,0.2447966605164376,2.7202560229267845,2.687869674185464,0,0.35000000000000003
1757394529.5927806,-0.137,-0.448,9.86,0.2447966605164376,2.7202560229267845,2.687869674185464,0,0.35000000000000003
1757394529.6196792,0.059,-0.288,9.793,0.2447408987071838,1.71947618382971,2.693483709273183,0,0.35000000000000003
1757394529.6469102,0.12,-0.604,9.62,0.24460185506246676,3.6626779984409237,2.6930325814536342,0,0.35000000000000003
1757394529.674346,0.12,-0.604,9.62,0.24460185506246676,3.6626779984409237,2.6930325814536342,0,0.35000000000000003
1757394529.7020035,0.112,-0.563,9.543,0.24457419630860489,3.442318130644006,2.6783458646616536,0,0.35000000000000003
1757394529.7289925,0.112,-0.563,9.543,0.24457419630860489,3.442318130644006,2.6783458646616536,0,0.35000000000000003
1757394529.756206,0.127,-0.44,9.546,0.24368791004069118,2.7466137978447085,2.6579448621553885,0,0.35000000000000003
1757394529.783562,0.127,-0.44,9.546,0.24368791004069118,2.7466137978447085,2.6579448621553885,0,0.35000000000000003
1757394529.8109882,0.029,-0.329,9.609,0.24369135704821376,1.9685663061686647,2.6503759398496243,0,0.35000000000000003
1757394529.8390546,0.029,-0.329,9.609,0.24369135704821376,1.9685663061686647,2.6503759398496243,0,0.35000000000000003
1757394529.866806,-0.07,-0.389,9.752,0.24336416642554423,2.320924504518439,2.6503759398496243,0,0.35000000000000003
1757394529.894769,-0.07,-0.389,9.752,0.24336416642554423,2.320924504518439,2.6503759398496243,0,0.35000000000000003
1757394529.9223893,-0.026,-0.415,9.844,0.24269735268436696,2.4187539055062817,2.6478195488721803,0,0.35000000000000003
1757394529.9488075,-0.026,-0.415,9.844,0.24269735268436696,2.4187539055062817,2.6478195488721803,0,0.35000000000000003
1757394529.9749184,-0.145,-0.332,9.836,0.24173276050217107,2.1093849256613284,2.6486716791979954,0,0.35000000000000003
1757394530.0023978,-0.145,-0.332,9.836,0.24173276050217107,2.1093849256613284,2.6486716791979954,0,0.35000000000000003
1757394530.0298765,-0.037,-0.381,9.951,0.24109097867817453,2.2029523331757224,2.647418546365915,0,0.35000000000000003
1757394530.0565555,-0.037,-0.381,9.951,0.24109097867817453,2.2029523331757224,2.647418546365915,0,0.35000000000000003
1757394530.0837824,-0.042,-0.377,9.892,0.23986735396881337,2.1960671422035594,2.6461654135338346,0,0.35000000000000003
1757394530.1107025,-0.042,-0.377,9.892,0.23986735396881337,2.1960671422035594,2.6461654135338346,0,0.35000000000000003
1757394530.138467,-0.045,-0.363,9.871,0.23848100029142785,2.1221747136618347,2.6269674185463656,0,0.35000000000000003
1757394530.16609,-0.045,-0.363,9.871,0.23848100029142785,2.1221747136618347,2.6269674185463656,0,0.35000000000000003
1757394530.1932447,-0.022,-0.491,9.907,0.2383935716415189,2.8401518242474335,2.6256641604010027,0,0.35000000000000003
1757394530.2196815,-0.022,-0.491,9.907,0.2383935716415189,2.8401518242474335,2.6256641604010027,0,0.35000000000000003
1757394530.2461429,0.052,-0.444,9.883,0.23823781186033421,2.5898768970904467,2.6168922305764406,0,0.35000000000000003
1757394530.2737575,0.052,-0.444,9.883,0.23823781186033421,2.5898768970904467,2.6168922305764406,0,0.35000000000000003
1757394530.3008938,0.076,-0.338,9.785,0.23824313736181363,2.0277165518082936,2.5923809523809522,0,0.35000000000000003
1757394530.3285983,0.076,-0.338,9.785,0.23824313736181363,2.0277165518082936,2.5923809523809522,0,0.35000000000000003
1757394530.3563747,-0.009,-0.389,9.642,0.2372069876711055,2.3109243185981754,2.5847117794486216,0,0.35000000000000003
1757394530.38386,-0.009,-0.389,9.642,0.2372069876711055,2.3109243185981754,2.5847117794486216,0,0.35000000000000003
1757394530.411353,0.226,-0.458,9.681,0.23725251315844895,3.019861974269293,2.590426065162907,0,0.35000000000000003
1757394530.438824,0.226,-0.458,9.681,0.23725251315844895,3.019861974269293,2.590426065162907,0,0.35000000000000003
1757394530.4663956,0.104,-0.423,9.675,0.23727143211941887,2.577885586224256,2.586516290726817,0,0.35000000000000003
1757394530.4934711,0.104,-0.423,9.675,0.23727143211941887,2.577885586224256,2.586516290726817,0,0.35000000000000003
1757394530.5193574,0.044,-0.403,9.626,0.23685335125347076,2.4115621548884887,2.5786967418546363,0,0.35000000000000003
1757394530.545533,0.044,-0.403,9.626,0.23685335125347076,2.4115621548884887,2.5786967418546363,0,0.35000000000000003
1757394530.5723884,-0.161,-0.155,9.574,0.23696499741523006,1.3372133462444082,2.5881203007518794,0,0.35000000000000003
1757394530.599889,-0.161,-0.155,9.574,0.23696499741523006,1.3372133462444082,2.5881203007518794,0,0.35000000000000003
1757394530.6279738,0.394,-0.287,9.566,0.23774358035496984,2.917054735917704,2.6090225563909772,0,0.35000000000000003
1757394530.6558323,0.394,-0.287,9.566,0.23774358035496984,2.917054735917704,2.6090225563909772,0,0.35000000000000003
1757394530.683429,0.013,-0.217,9.536,0.23748050972658785,1.3059268266881885,2.620451127819549,0,0.35000000000000003
1757394530.7110648,0.013,-0.217,9.536,0.23748050972658785,1.3059268266881885,2.620451127819549,0,0.35000000000000003
1757394530.7386522,0.192,-0.223,9.609,0.23692579006938017,1.7540829277161698,2.6281704260651626,0,0.35000000000000003
1757394530.765221,0.192,-0.223,9.609,0.23692579006938017,1.7540829277161698,2.6281704260651626,0,0.35000000000000003
1757394530.7925048,0.325,-0.199,9.663,0.23682933200936068,2.2584362515199574,2.6321303258145363,0,0.35000000000000003
1757394530.8190455,0.325,-0.199,9.663,0.23682933200936068,2.2584362515199574,2.6321303258145363,0,0.35000000000000003
1757394530.8460052,0.169,-0.221,9.682,0.23610896848701024,1.645940592101005,2.639899749373434,0,0.35000000000000003
1757394530.8737516,0.169,-0.221,9.682,0.23610896848701024,1.645940592101005,2.639899749373434,0,0.35000000000000003
1757394530.9013338,0.169,-0.221,9.682,0.23610896848701024,1.645940592101005,2.639899749373434,0,0.35000000000000003
1757394530.9291205,0.142,-0.205,9.795,0.23534611214124612,1.4584151580187241,2.6404010025062656,0,0.4
1757394530.956869,-0.038,-0.334,9.996,0.23455285651639377,1.9260695779777286,2.6422556390977445,0,0.4
1757394530.9835844,-0.038,-0.334,9.996,0.23455285651639377,1.9260695779777286,2.6422556390977445,0,0.4
1757394531.0098727,0.152,-0.441,9.937,0.23316925183222595,2.687590701034227,2.639398496240602,0,0.05
1757394531.0377438,0.152,-0.441,9.937,0.23316925183222595,2.687590701034227,2.639398496240602,0,0.05
1757394531.0654538,0.152,-0.441,9.937,0.23316925183222595,2.687590701034227,2.639398496240602,0,0.05
1757394531.0923748,0.152,-0.441,9.937,0.23316925183222595,2.687590701034227,2.639398496240602,0,0.05
1757394531.120229,0.152,-0.441,9.937,0.23316925183222595,2.687590701034227,2.639398496240602,0,0.05
1757394531.148309,0.045,-0.585,9.824,0.2327473361823933,3.417871103159089,2.6333834586466165,0,0.05
1757394531.1758907,0.163,-0.482,9.916,0.23148421652458293,2.9374165665233765,2.6269172932330824,0,0.05
1757394531.203605,0.099,-0.441,9.886,0.23116056108255145,2.6176691961234506,2.6287719298245613,0,0.05
1757394531.2313328,0.328,-0.387,9.849,0.23128437582335734,2.948570291805393,2.6358897243107764,0,0.05
1757394531.258287,0.378,-0.497,9.892,0.23128437582335734,3.6118975009688823,2.6266165413533833,0,0.05
1757394531.2852623,0.378,-0.497,9.892,0.23128437582335734,3.6118975009688823,2.6266165413533833,0,0.05
1757394531.3122683,0.229,-0.368,9.79,0.23145721526882673,2.535008178109433,2.6234085213032583,0,0.05
1757394531.3394566,0.229,-0.368,9.79,0.23145721526882673,2.535008178109433,2.6234085213032583,0,0.05
1757394531.3668306,0.326,-0.385,9.747,0.2313466932981753,2.9628458711594012,2.6262155388471173,0,0.05
1757394531.3947244,0.326,-0.385,9.747,0.2313466932981753,2.9628458711594012,2.6262155388471173,0,0.05
1757394531.4229152,0.382,-0.365,9.691,0.23128354891777322,3.1206304334767494,2.6174937343358393,0,0.05
1757394531.4507747,0.382,-0.365,9.691,0.23128354891777322,3.1206304334767494,2.6174937343358393,0,0.05
1757394531.4777448,0.631,-0.238,9.628,0.23327614537281777,4.006733098444335,2.619047619047619,0,0.4
1757394531.5053275,0.631,-0.238,9.628,0.23327614537281777,4.006733098444335,2.619047619047619,0,0.4
1757394531.5331907,0.376,-0.262,9.677,0.23323944241915862,2.711364237548878,2.6218045112781954,0,0.05
1757394531.560467,0.376,-0.262,9.677,0.23323944241915862,2.711364237548878,2.6218045112781954,0,0.05
1757394531.5874214,0.507,-0.392,9.614,0.2344305814095081,3.8136927804930543,2.620250626566416,0,0.4
1757394531.6141808,0.507,-0.392,9.614,0.2344305814095081,3.8136927804930543,2.620250626566416,0,0.4
1757394531.641802,0.355,-0.214,9.635,0.23509878242985438,2.4634361501410775,2.6114285714285717,0,0.4
1757394531.6692939,0.355,-0.214,9.635,0.23509878242985438,2.4634361501410775,2.6114285714285717,0,0.4
1757394531.69687,0.476,-0.298,9.603,0.23564777741366458,3.346866742915875,2.5986967418546367,0,0.4
1757394531.7245069,0.476,-0.298,9.603,0.23564777741366458,3.346866742915875,2.5986967418546367,0,0.4
1757394531.752303,0.232,-0.419,9.688,0.2359300637900986,2.8302029694770487,2.596741854636592,0,0.4
1757394531.779967,0.232,-0.419,9.688,0.2359300637900986,2.8302029694770487,2.596741854636592,0,0.4
1757394531.8060772,0.399,-0.477,9.633,0.23641762836133856,3.693709789001962,2.604511278195489,0,0.4
1757394531.8328693,0.399,-0.477,9.633,0.23641762836133856,3.693709789001962,2.604511278195489,0,0.4
1757394531.8607984,0.323,-0.396,9.607,0.23664656135257914,3.0448548323362763,2.6056641604010022,0,0.4
1757394531.8885283,0.323,-0.396,9.607,0.23664656135257914,3.0448548323362763,2.6056641604010022,0,0.4
1757394531.9156587,0.351,-0.434,9.669,0.23682186871148533,3.303909103728085,2.6014035087719294,0,0.4
1757394531.9435327,0.351,-0.434,9.669,0.23682186871148533,3.303909103728085,2.6014035087719294,0,0.4
1757394531.9704425,0.331,-0.362,9.62,0.23721525562239879,2.918931716911839,2.6008020050125307,0,0.4
1757394531.9978306,0.331,-0.362,9.62,0.23721525562239879,2.918931716911839,2.6008020050125307,0,0.4
1757394532.0247843,0.373,-0.271,9.47,0.2378210198868048,2.7872816559559785,2.59704260651629,0,0.4
1757394532.0525155,0.373,-0.271,9.47,0.2378210198868048,2.7872816559559785,2.59704260651629,0,0.4
1757394532.0800412,0.146,-0.314,9.539,0.23754403276024427,2.0790284932542624,2.6020050125313277,0,0.4
1757394532.1069455,0.146,-0.314,9.539,0.23754403276024427,2.0790284932542624,2.6020050125313277,0,0.4
1757394532.1346576,0.361,-0.404,9.581,0.2381199907609607,3.236539710642483,2.608671679197995,0,0.4
1757394532.1623857,0.361,-0.404,9.581,0.2381199907609607,3.236539710642483,2.608671679197995,0,0.4
1757394532.1897497,0.375,-0.309,9.563,0.23858961104792473,2.908765131047988,2.605814536340852,0,0.4
1757394532.2163506,0.375,-0.309,9.563,0.23858961104792473,2.908765131047988,2.605814536340852,0,0.4
1757394532.2435756,0.175,-0.26,9.595,0.23828773048564628,1.8708298508661976,2.6144360902255634,0,0.4
1757394532.2707355,0.175,-0.26,9.595,0.23828773048564628,1.8708298508661976,2.6144360902255634,0,0.4
1757394532.2987244,0.261,-0.194,9.769,0.23809091225832202,1.9066313785522346,2.611077694235589,0,0.4
1757394532.3253577,0.261,-0.194,9.769,0.23809091225832202,1.9066313785522346,2.611077694235589,0,0.4
1757394532.3526971,0.318,-0.296,9.673,0.23846620829794735,2.57158959739995,2.6118295739348367,0,0.4
1757394532.3801203,0.318,-0.296,9.673,0.23846620829794735,2.57158959739995,2.6118295739348367,0,0.4
1757394532.4076185,0.194,-0.315,9.727,0.23842343110525022,2.1780823620851923,2.6165413533834587,0,0.4
1757394532.434744,0.194,-0.315,9.727,0.23842343110525022,2.1780823620851923,2.6165413533834587,0,0.4
1757394532.4611435,0.232,-0.282,9.761,0.23852809582940118,2.14249139130273,2.6174436090225566,0,0.4
1757394532.4886353,0.232,-0.282,9.761,0.23852809582940118,2.14249139130273,2.6174436090225566,0,0.4
1757394532.5159013,0.24,-0.382,9.832,0.23868894507287094,2.627145154856609,2.6176942355889725,0,0.4
1757394532.5434077,0.24,-0.382,9.832,0.23868894507287094,2.627145154856609,2.6176942355889725,0,0.4
1757394532.5705671,0.24,-0.324,9.713,0.23885478852223166,2.3771039844636643,2.603859649122807,0,0.4
1757394532.5967994,0.24,-0.324,9.713,0.23885478852223166,2.3771039844636643,2.603859649122807,0,0.4
1757394532.6231325,0.286,-0.418,9.843,0.2382827679459847,2.9455941616454293,2.6020050125313277,0,0.4
1757394532.6502914,0.286,-0.418,9.843,0.2382827679459847,2.9455941616454293,2.6020050125313277,0,0.4
1757394532.6773007,0.074,-0.477,9.922,0.23765327159540642,2.7852472067878273,2.6111278195488725,0,0.4
1757394532.7046294,0.074,-0.477,9.922,0.23765327159540642,2.7852472067878273,2.6111278195488725,0,0.4
1757394532.7321393,0.16,-0.403,9.807,0.23701147124137262,2.5315879941699624,2.610977443609023,0,0.4
1757394532.759661,0.16,-0.403,9.807,0.23701147124137262,2.5315879941699624,2.610977443609023,0,0.4
1757394532.7875435,0.289,-0.61,9.79,0.2369929904026699,3.9441646974267535,2.6123308270676695,0,0.4
1757394532.8149602,0.289,-0.61,9.79,0.2369929904026699,3.9441646974267535,2.6123308270676695,0,0.4
1757394532.8411882,0.294,-0.606,9.811,0.23661729649372634,3.9273483960448745,2.6093233082706764,0,0.4
1757394532.8686116,0.294,-0.606,9.811,0.23661729649372634,3.9273483960448745,2.6093233082706764,0,0.4
1757394532.8957536,0.386,-0.572,9.756,0.23627658580570357,4.045886804256414,2.5984962406015035,0,0.4
1757394532.9232178,0.386,-0.572,9.756,0.23627658580570357,4.045886804256414,2.5984962406015035,0,0.4
1757394532.9502938,0.207,-0.398,9.693,0.23637778554678102,2.649877500746438,2.5969423558897238,0,0.4
1757394532.9774356,0.207,-0.398,9.693,0.23637778554678102,2.649877500746438,2.5969423558897238,0,0.4
1757394533.0056357,0.309,-0.439,9.616,0.23618196374829303,3.1954062404813564,2.598997493734336,0,0.4
1757394533.0333335,0.309,-0.439,9.616,0.23618196374829303,3.1954062404813564,2.598997493734336,0,0.4
1757394533.0606449,0.083,-0.258,9.739,0.2357320936996064,1.5940464167049875,2.60796992481203,0,0.4
1757394533.0871701,0.083,-0.258,9.739,0.2357320936996064,1.5940464167049875,2.60796992481203,0,0.4
1757394533.114868,0.239,-0.189,9.545,0.23538515777338212,1.8284011546716137,2.6144360902255634,0,0.4
