timestamp,ax,ay,az,rms,tilt_now,jerk,tilt_crosses,freq
1757391126.804784,0.277,-0.293,9.736,0.013850000000000001,2.3715093829969622,0.013884711779448621,0,0.25
1757391126.837565,0.278,-0.294,9.733,0.019622245029557655,2.3805470715817463,0.013934837092731831,0,0.05
1757391126.8671212,0.285,-0.302,9.727,0.024250670093834522,2.4444730560517858,0.014285714285714284,0,0.05
1757391126.8964198,0.286,-0.298,9.725,0.028152886175310695,2.4319889988012346,0.01433583959899749,0,0.05
1757391126.922475,0.295,-0.299,9.727,0.03178281768503227,2.472608101744043,0.014786967418546362,0,0.05
1757391126.948345,0.288,-0.302,9.741,0.034892800116929565,2.453086464623434,0.01513784461152882,0,0.05
1757391126.9735744,0.301,-0.301,9.742,0.038000131578719565,2.5019569588408035,0.015789473684210523,0,0.05
1757391126.9985926,0.315,-0.317,9.745,0.04113480886062314,2.6256744416827384,0.016491228070175435,0,0.05
1757391127.0235052,0.328,-0.324,9.746,0.0442835466059348,2.7084033948671604,0.017142857142857144,0,0.05
1757391127.048547,0.325,-0.337,9.745,0.0471709126475204,2.7505612100821457,0.017293233082706767,0,0.05
1757391127.073742,0.334,-0.339,9.751,0.05003983413241895,2.794094342737392,0.017744360902255642,0,0.05
1757391127.0986807,0.333,-0.331,9.732,0.05273715483413947,2.7620972812384825,0.017794486215538845,0,0.05
1757391127.1235304,0.328,-0.326,9.734,0.05522832153886265,2.7200046415895702,0.01804511278195489,0,0.05
1757391127.1484802,0.337,-0.325,9.734,0.057741579472681555,2.753664726653864,0.018496240601503757,0,0.05
1757391127.1733527,0.347,-0.332,9.724,0.0602918941483845,2.8273897648365676,0.018997493734335836,0,0.05
1757391127.1984181,0.347,-0.332,9.724,0.0602918941483845,2.8273897648365676,0.018997493734335836,0,0.05
1757391127.2236443,0.367,-0.341,9.734,0.06302249598357716,2.946179416773456,0.019999999999999997,0,0.05
1757391127.251142,0.367,-0.341,9.734,0.06302249598357716,2.946179416773456,0.019999999999999997,0,0.05
1757391127.2762997,0.386,-0.345,9.723,0.06591149368660977,3.0478728055696376,0.020952380952380955,0,0.05
1757391127.3013024,0.386,-0.345,9.723,0.06591149368660977,3.0478728055696376,0.020952380952380955,0,0.05
1757391127.3261995,0.402,-0.357,9.737,0.06890816352218364,3.160424557961539,0.021754385964912283,0,0.05
1757391127.3512652,0.402,-0.357,9.737,0.06890816352218364,3.160424557961539,0.021754385964912283,0,0.05
1757391127.3762195,0.423,-0.361,9.736,0.07208090940047858,3.2690780875187935,0.022807017543859654,0,0.05
1757391127.4012694,0.423,-0.361,9.736,0.07208090940047858,3.2690780875187935,0.022807017543859654,0,0.05
1757391127.4269502,0.431,-0.364,9.734,0.07523337025549234,3.316917964960626,0.023208020050125316,0,0.05
1757391127.4522657,0.431,-0.364,9.734,0.07523337025549234,3.316917964960626,0.023208020050125316,0,0.05
1757391127.4774463,0.443,-0.371,9.74,0.07842628704713746,3.395131905422848,0.023809523809523815,0,0.05
1757391127.503049,0.443,-0.371,9.74,0.07842628704713746,3.395131905422848,0.023809523809523815,0,0.05
1757391127.5285769,0.443,-0.371,9.74,0.07842628704713746,3.395131905422848,0.023809523809523815,0,0.05
1757391127.554084,0.455,-0.357,9.733,0.08165932279905339,3.4005310182151764,0.02441102756892231,0,0.05
1757391127.5793025,0.455,-0.357,9.733,0.08165932279905339,3.4005310182151764,0.02441102756892231,0,0.05
1757391127.6047814,0.471,-0.362,9.752,0.08498733729209311,3.4858543284939247,0.025213032581453635,0,0.05
1757391127.6301394,0.471,-0.362,9.752,0.08498733729209311,3.4858543284939247,0.025213032581453635,0,0.05
1757391127.655428,0.474,-0.356,9.749,0.0882300260682269,3.479657173439935,0.02536340852130326,0,0.05
1757391127.6807556,0.474,-0.356,9.749,0.0882300260682269,3.479657173439935,0.02536340852130326,0,0.05
1757391127.7057018,0.456,-0.362,9.738,0.09112835727697499,3.421552553303416,0.026265664160401003,0,0.05
1757391127.7307124,0.456,-0.362,9.738,0.09112835727697499,3.421552553303416,0.026265664160401003,0,0.05
1757391127.7561026,0.452,-0.355,9.75,0.09388896367518389,3.3735650300056683,0.026466165413533832,0,0.05
1757391127.7810657,0.452,-0.355,9.75,0.09388896367518389,3.3735650300056683,0.026466165413533832,0,0.05
1757391127.806719,0.457,-0.347,9.754,0.09662949860161751,3.3667262351504648,0.026716791979949875,0,0.05
1757391127.8322778,0.457,-0.347,9.754,0.09662949860161751,3.3667262351504648,0.026716791979949875,0,0.05
1757391127.8576972,0.462,-0.343,9.755,0.09935225211337688,3.3757278876577907,0.02696741854636591,0,0.05
1757391127.8828537,0.462,-0.343,9.755,0.09935225211337688,3.3757278876577907,0.02696741854636591,0,0.05
1757391127.908356,0.457,-0.34,9.762,0.10194602738704436,3.3393727987796638,0.027218045112781954,0,0.05
1757391127.9339483,0.457,-0.34,9.762,0.10194602738704436,3.3393727987796638,0.027218045112781954,0,0.05
1757391127.9592648,0.457,-0.34,9.762,0.10194602738704436,3.3393727987796638,0.027218045112781954,0,0.05
1757391127.9847305,0.453,-0.323,9.749,0.10443186774160462,3.266244858537183,0.02741854636591478,0,0.05
1757391128.009914,0.453,-0.323,9.749,0.10443186774160462,3.266244858537183,0.02741854636591478,0,0.05
1757391128.0356123,0.443,-0.326,9.76,0.10675503501006404,3.22547981112204,0.02791979949874687,0,0.05
1757391128.0604928,0.443,-0.326,9.76,0.10675503501006404,3.22547981112204,0.02791979949874687,0,0.05
1757391128.0855322,0.427,-0.323,9.757,0.10886900385325476,3.1408921254787905,0.028721804511278197,0,0.05
1757391128.1105354,0.427,-0.323,9.757,0.10886900385325476,3.1408921254787905,0.028721804511278197,0,0.05
1757391128.1360328,0.421,-0.336,9.752,0.11088535746436497,3.1614726574664864,0.02902255639097745,0,0.05
1757391128.1609643,0.421,-0.336,9.752,0.11088535746436497,3.1614726574664864,0.02902255639097745,0,0.05
1757391128.1858878,0.408,-0.33,9.749,0.11274627488303106,3.0810393682975783,0.02967418546365915,0,0.05
1757391128.211234,0.408,-0.33,9.749,0.11274627488303106,3.0810393682975783,0.02967418546365915,0,0.05
1757391128.2365153,0.402,-0.324,9.742,0.11452393854561588,3.033766544811105,0.029974937343358397,0,0.05
1757391128.2616243,0.402,-0.324,9.742,0.11452393854561588,3.033766544811105,0.029974937343358397,0,0.05
1757391128.2868962,0.386,-0.32,9.748,0.11613880703709678,2.9444469855788546,0.030776942355889726,0,0.05
1757391128.312174,0.386,-0.32,9.748,0.11613880703709678,2.9444469855788546,0.030776942355889726,0,0.05
1757391128.3374135,0.386,-0.32,9.748,0.11613880703709678,2.9444469855788546,0.030776942355889726,0,0.05
1757391128.3624291,0.37,-0.318,9.735,0.11760302929771835,2.869021853575902,0.031578947368421054,0,0.05
1757391128.3877656,0.37,-0.318,9.735,0.11760302929771835,2.869021853575902,0.031578947368421054,0,0.05
1757391128.4129717,0.367,-0.323,9.727,0.11902602656562135,2.8773567485122267,0.031729323308270684,0,0.05
1757391128.4383307,0.367,-0.323,9.727,0.11902602656562135,2.8773567485122267,0.031729323308270684,0,0.05
1757391128.4633174,0.359,-0.314,9.736,0.1203719132522201,2.8045537402920093,0.03213032581453635,0,0.05
1757391128.488275,0.359,-0.314,9.736,0.1203719132522201,2.8045537402920093,0.03213032581453635,0,0.05
1757391128.5137,0.361,-0.316,9.744,0.12171770618936262,2.818809547270332,0.03223057644110276,0,0.05
1757391128.5387642,0.361,-0.316,9.744,0.12171770618936262,2.818809547270332,0.03223057644110276,0,0.05
1757391128.563734,0.34,-0.305,9.75,0.1228991456438978,2.682154501478499,0.03328320802005013,0,0.05
1757391128.5885315,0.34,-0.305,9.75,0.1228991456438978,2.682154501478499,0.03328320802005013,0,0.05
1757391128.6136384,0.332,-0.3,9.744,0.12401516036356201,2.629289565933346,0.033684210526315796,0,0.05
1757391128.6387649,0.332,-0.3,9.744,0.12401516036356201,2.629289565933346,0.033684210526315796,0,0.05
1757391128.6638064,0.333,-0.292,9.746,0.12512786460257364,2.601926446159871,0.033734335839599006,0,0.05
1757391128.6887982,0.333,-0.292,9.746,0.12512786460257364,2.601926446159871,0.033734335839599006,0,0.05
1757391128.7135854,0.333,-0.292,9.746,0.12512786460257364,2.601926446159871,0.033734335839599006,0,0.05
1757391128.7384543,0.31,-0.289,9.76,0.12608422780030815,2.486443636513539,0.03488721804511279,0,0.05
1757391128.7636337,0.31,-0.289,9.76,0.12608422780030815,2.486443636513539,0.03488721804511279,0,0.05
1757391128.788633,0.301,-0.293,9.75,0.12697926996167525,2.4669500669025375,0.035338345864661655,0,0.05
1757391128.8139064,0.301,-0.293,9.75,0.12697926996167525,2.4669500669025375,0.035338345864661655,0,0.05
1757391128.8388038,0.288,-0.297,9.764,0.12779317274408677,2.42620464645817,0.03598997493734336,0,0.05
1757391128.8637106,0.288,-0.297,9.764,0.12779317274408677,2.42620464645817,0.03598997493734336,0,0.05
1757391128.8886156,0.288,-0.297,9.764,0.12779317274408677,2.42620464645817,0.03598997493734336,0,0.05
1757391128.9136088,0.279,-0.297,9.757,0.12855231425376987,2.3915168955545933,0.03644110275689223,0,0.05
1757391128.9388402,0.276,-0.296,9.75,0.12929090261886178,2.3769230213610437,0.036591478696741855,0,0.05
1757391128.963813,0.276,-0.296,9.75,0.12929090261886178,2.3769230213610437,0.036591478696741855,0,0.05
1757391128.988775,0.28,-0.295,9.753,0.13004667431349407,2.387994976118597,0.03679197994987469,0,0.05
1757391129.0136771,0.28,-0.295,9.753,0.13004667431349407,2.387994976118597,0.03679197994987469,0,0.05
1757391129.0384955,0.28,-0.295,9.753,0.13004667431349407,2.387994976118597,0.03679197994987469,0,0.05
1757391129.0635247,0.285,-0.286,9.763,0.13082507404928154,2.3681745461712795,0.03704260651629073,0,0.05
1757391129.088494,0.285,-0.286,9.763,0.13082507404928154,2.3681745461712795,0.03704260651629073,0,0.05
1757391129.1133544,0.283,-0.288,9.781,0.1315880788673503,2.363908236858816,0.037142857142857144,0,0.05
1757391129.1381402,0.283,-0.288,9.781,0.1315880788673503,2.363908236858816,0.037142857142857144,0,0.05
1757391129.16292,0.284,-0.296,9.78,0.13235204002961196,2.4017910296971223,0.03719298245614035,0,0.05
1757391129.1875813,0.284,-0.296,9.78,0.13235204002961196,2.4017910296971223,0.03719298245614035,0,0.05
1757391129.2124367,0.289,-0.3,9.768,0.13313851809299967,2.4419116013325937,0.03744360902255639,0,0.05
1757391129.2372143,0.289,-0.3,9.768,0.13313851809299967,2.4419116013325937,0.03744360902255639,0,0.05
1757391129.2620897,0.295,-0.31,9.769,0.13395307947188076,2.508238249110974,0.037744360902255636,0,0.05
1757391129.2868671,0.295,-0.31,9.769,0.13395307947188076,2.508238249110974,0.037744360902255636,0,0.05
1757391129.3116677,0.295,-0.31,9.769,0.13395307947188076,2.508238249110974,0.037744360902255636,0,0.05
1757391129.336462,0.298,-0.305,9.768,0.13477921761161846,2.499613764609179,0.03789473684210526,0,0.05
1757391129.3612616,0.298,-0.305,9.768,0.13477921761161846,2.499613764609179,0.03789473684210526,0,0.05
1757391129.385916,0.289,-0.311,9.77,0.13555161378604091,2.488186527093065,0.03834586466165412,0,0.05
1757391129.4107533,0.289,-0.311,9.77,0.13555161378604091,2.488186527093065,0.03834586466165412,0,0.05
1757391129.4354932,0.293,-0.305,9.768,0.13634097879947907,2.479244839355349,0.03854636591478697,0,0.05
1757391129.4602683,0.293,-0.305,9.768,0.13634097879947907,2.479244839355349,0.03854636591478697,0,0.05
1757391129.48504,0.292,-0.308,9.759,0.13712046710830592,2.4902007059888094,0.03859649122807017,0,0.05
1757391129.509957,0.292,-0.308,9.759,0.13712046710830592,2.4902007059888094,0.03859649122807017,0,0.05
1757391129.534755,0.309,-0.314,9.759,0.1379881335477801,2.5846968093696785,0.039448621553884705,0,0.05
1757391129.5596244,0.309,-0.314,9.759,0.1379881335477801,2.5846968093696785,0.039448621553884705,0,0.05
1757391129.5843928,0.328,-0.304,9.76,0.1389592926003871,2.6235185836430897,0.04040100250626566,0,0.05
1757391129.609083,0.328,-0.304,9.76,0.1389592926003871,2.6235185836430897,0.04040100250626566,0,0.05
1757391129.6338568,0.328,-0.304,9.76,0.1389592926003871,2.6235185836430897,0.04040100250626566,0,0.05
1757391129.6586668,0.349,-0.316,9.768,0.14005066047684317,2.75944498610602,0.04145363408521302,0,0.05
1757391129.683512,0.349,-0.316,9.768,0.14005066047684317,2.75944498610602,0.04145363408521302,0,0.05
1757391129.7082791,0.346,-0.33,9.755,0.14111512144345129,2.8060877166079017,0.04160401002506264,0,0.05
1757391129.7330937,0.346,-0.33,9.755,0.14111512144345129,2.8060877166079017,0.04160401002506264,0,0.05
1757391129.758031,0.357,-0.328,9.739,0.1422395866135725,2.8497997690853434,0.042155388471177925,0,0.05
1757391129.7830968,0.357,-0.328,9.739,0.1422395866135725,2.8497997690853434,0.042155388471177925,0,0.05
1757391129.8082557,0.367,-0.326,9.737,0.14341834784991772,2.8860703879354905,0.04265664160401002,0,0.05
1757391129.8333616,0.367,-0.326,9.737,0.14341834784991772,2.8860703879354905,0.04265664160401002,0,0.05
1757391129.8594403,0.373,-0.326,9.721,0.1446258794268854,2.917278356417345,0.04295739348370926,0,0.05
1757391129.8862379,0.373,-0.326,9.721,0.1446258794268854,2.917278356417345,0.04295739348370926,0,0.05
1757391129.9130683,0.39,-0.331,9.722,0.14593455725084448,3.0118700375329936,0.043809523809523805,0,0.05
1757391129.9399066,0.39,-0.331,9.722,0.14593455725084448,3.0118700375329936,0.043809523809523805,0,0.05
1757391129.9665558,0.402,-0.332,9.746,0.1473122703646916,3.0621717326413638,0.04441102756892228,0,0.05
1757391129.9931195,0.402,-0.332,9.746,0.1473122703646916,3.0621717326413638,0.04441102756892228,0,0.05
1757391130.0197732,0.429,-0.444,9.903,0.1488657364876149,3.567446505445746,0.04576441102756892,0,0.05
1757391130.046787,0.429,-0.444,9.903,0.1488657364876149,3.567446505445746,0.04576441102756892,0,0.05
1757391130.0734556,1.014,-0.361,9.692,0.15726251142595937,6.337011423395499,0.0750877192982456,0,0.05
1757391130.1007013,1.014,-0.361,9.692,0.15726251142595937,6.337011423395499,0.0750877192982456,0,0.05
1757391130.1274042,0.856,-0.687,9.581,0.16298262944252678,6.535262024807512,0.08300751879699247,0,0.05
1757391130.1543005,0.856,-0.687,9.581,0.16298262944252678,6.535262024807512,0.08300751879699247,0,0.05
1757391130.1810422,0.856,-0.687,9.581,0.16298262944252678,6.535262024807512,0.08300751879699247,0,0.05
1757391130.2077136,0.767,-0.735,9.622,0.16743374809159592,6.300215940350109,0.08746867167919799,0,0.05
1757391130.234696,0.666,-0.504,9.663,0.1707130633548587,4.940002333892026,0.092531328320802,0,0.05
1757391130.2615976,0.666,-0.504,9.663,0.1707130633548587,4.940002333892026,0.092531328320802,0,0.05
1757391130.2884116,0.671,-0.526,9.528,0.1739785978216861,5.113380801003144,0.09278195488721805,0,0.05
1757391130.3153427,0.671,-0.526,9.528,0.1739785978216861,5.113380801003144,0.09278195488721805,0,0.05
1757391130.3419027,0.507,-0.396,9.426,0.1758157416160453,3.9043755371494924,0.10100250626566418,0,0.05
1757391130.3690257,0.507,-0.396,9.426,0.1758157416160453,3.9043755371494924,0.10100250626566418,0,0.05
1757391130.3956397,0.638,-0.537,9.463,0.17868627535432038,5.036104673947136,0.10756892230576441,0,0.05
1757391130.4227786,0.638,-0.537,9.463,0.17868627535432038,5.036104673947136,0.10756892230576441,0,0.05
1757391130.449556,0.522,-0.426,9.477,0.1805823773240346,4.066590421109234,0.11338345864661654,0,0.05
1757391130.4764378,0.522,-0.426,9.477,0.1805823773240346,4.066590421109234,0.11338345864661654,0,0.05
1757391130.5031843,0.478,-0.454,9.525,0.18215708879974998,3.959227725682436,0.1155889724310777,0,0.05
1757391130.5304885,0.478,-0.454,9.525,0.18215708879974998,3.959227725682436,0.1155889724310777,0,0.05
1757391130.5572262,0.45,-0.26,9.648,0.1835414258416884,3.0833874136423347,0.11699248120300754,0,0.05
1757391130.5843062,0.45,-0.26,9.648,0.1835414258416884,3.0833874136423347,0.11699248120300754,0,0.05
1757391130.6110673,0.555,-0.224,9.462,0.18562736193783502,3.6193025892031705,0.12225563909774438,0,0.05
1757391130.638039,0.555,-0.224,9.462,0.18562736193783502,3.6193025892031705,0.12225563909774438,0,0.05
1757391130.6647882,0.297,-0.386,9.685,0.18622040704498527,2.878851330846936,0.13518796992481205,0,0.05
1757391130.6915843,0.297,-0.386,9.685,0.18622040704498527,2.878851330846936,0.13518796992481205,0,0.05
1757391130.7182827,0.324,-0.479,9.723,0.18692372776081692,3.4037308260539074,0.13654135338345866,0,0.05
1757391130.7450824,0.324,-0.479,9.723,0.18692372776081692,3.4037308260539074,0.13654135338345866,0,0.05
1757391130.7717972,0.323,-0.41,9.582,0.18762010153499012,3.1179140917677244,0.1365914786967419,0,0.05
1757391130.798404,0.323,-0.41,9.582,0.18762010153499012,3.1179140917677244,0.1365914786967419,0,0.05
1757391130.8250725,0.459,-0.41,9.498,0.18901853083758746,3.707471546943499,0.14340852130325815,0,0.05
1757391130.8518045,0.459,-0.41,9.498,0.18901853083758746,3.707471546943499,0.14340852130325815,0,0.05
1757391130.8784912,0.459,-0.41,9.498,0.18901853083758746,3.707471546943499,0.14340852130325815,0,0.05
1757391130.9053898,0.527,-0.48,9.565,0.19084634526236022,4.262089418531768,0.14681704260651632,0,0.05
1757391130.9324093,0.601,-0.444,9.555,0.19319764491318211,4.471540485674685,0.1505263157894737,0,0.05
1757391130.959267,0.601,-0.444,9.555,0.19319764491318211,4.471540485674685,0.1505263157894737,0,0.05
1757391130.9860744,0.52,-0.282,9.57,0.19493929824435094,3.5370839009076214,0.15458646616541352,0,0.05
1757391131.0129328,0.52,-0.282,9.57,0.19493929824435094,3.5370839009076214,0.15458646616541352,0,0.05
1757391131.0397856,0.303,-0.251,9.685,0.19552711448799115,2.326396617370955,0.16546365914786967,0,0.05
1757391131.067147,0.303,-0.251,9.685,0.19552711448799115,2.326396617370955,0.16546365914786967,0,0.05
1757391131.0940676,0.303,-0.251,9.685,0.19552711448799115,2.326396617370955,0.16546365914786967,0,0.05
1757391131.1210287,0.355,-0.2,9.57,0.19633113609409997,2.4380085003778866,0.1680701754385965,0,0.05
1757391131.147922,0.352,-0.08,9.584,0.1971184288695504,2.156996607063834,0.16822055137844613,0,0.05
1757391131.1748767,0.352,-0.08,9.584,0.1971184288695504,2.156996607063834,0.16822055137844613,0,0.05
1757391131.2017915,0.352,-0.08,9.584,0.1971184288695504,2.156996607063834,0.16822055137844613,0,0.05
1757391131.22859,0.285,-0.183,9.783,0.19763283507555116,1.9828294762303404,0.17157894736842108,0,0.05
1757391131.2555196,0.285,-0.183,9.783,0.19763283507555116,1.9828294762303404,0.17157894736842108,0,0.05
1757391131.282195,0.35,-0.246,9.64,0.19840611759721524,2.5410035427684425,0.1748370927318296,0,0.05
1757391131.3088288,0.35,-0.246,9.64,0.19840611759721524,2.5410035427684425,0.1748370927318296,0,0.05
1757391131.335606,0.304,-0.243,9.65,0.19898750588918893,2.3094904328890875,0.17714285714285716,0,0.05
1757391131.3627687,0.304,-0.243,9.65,0.19898750588918893,2.3094904328890875,0.17714285714285716,0,0.05
1757391131.3896825,0.282,-0.232,9.828,0.1994864343758743,2.1278989501310606,0.17824561403508773,0,0.05
1757391131.4167426,0.282,-0.232,9.828,0.1994864343758743,2.1278989501310606,0.17824561403508773,0,0.05
1757391131.444097,0.206,-0.349,9.842,0.1997521651947733,2.357922361759527,0.18205513784461153,0,0.05
1757391131.47084,0.206,-0.349,9.842,0.1997521651947733,2.357922361759527,0.18205513784461153,0,0.05
1757391131.4979408,0.261,-0.402,9.795,0.2001779957937435,2.8014059986216857,0.18481203007518796,0,0.05
1757391131.5251236,0.261,-0.402,9.795,0.2001779957937435,2.8014059986216857,0.18481203007518796,0,0.05
1757391131.552022,0.312,-0.287,9.842,0.20078493469381611,2.4663837655909706,0.18736842105263155,0,0.05
1757391131.5791302,0.312,-0.287,9.842,0.20078493469381611,2.4663837655909706,0.18736842105263155,0,0.05
1757391131.6063535,0.14,-0.278,9.821,0.20090691874597053,1.8152966323343591,0.1959899749373433,0,0.05
1757391131.634071,0.14,-0.278,9.821,0.20090691874597053,1.8152966323343591,0.1959899749373433,0,0.05
1757391131.6616876,0.137,-0.2,9.652,0.20102366154261542,1.4387593941714039,0.19614035087719292,0,0.05
1757391131.6888928,0.246,-0.14,9.758,0.20139960898671078,1.6614974849082635,0.20160401002506265,0,0.05
1757391131.715935,0.246,-0.14,9.758,0.20139960898671078,1.6614974849082635,0.20160401002506265,0,0.05
1757391131.7429907,0.246,-0.14,9.758,0.20139960898671078,1.6614974849082635,0.20160401002506265,0,0.05
1757391131.7698529,0.411,-0.411,9.685,0.20244531360345194,3.434466078960365,0.20987468671679196,0,0.05
1757391131.7969885,0.141,-0.427,9.628,0.20256803178191765,2.6740675696375136,0.22340852130325814,0,0.05
1757391131.8239112,0.141,-0.427,9.628,0.20256803178191765,2.6740675696375136,0.22340852130325814,0,0.05
1757391131.8509662,0.301,-0.371,9.682,0.2031263399955801,2.8249010004688486,0.23142857142857143,0,0.05
1757391131.8786657,0.301,-0.371,9.682,0.2031263399955801,2.8249010004688486,0.23142857142857143,0,0.05
1757391131.9055965,0.394,-0.199,9.554,0.20407939631427766,2.645235813447743,0.2360902255639098,0,0.05
1757391131.9327097,0.394,-0.199,9.554,0.20407939631427766,2.645235813447743,0.2360902255639098,0,0.05
1757391131.9597094,0.245,-0.183,9.52,0.20444672288887394,1.839817294527882,0.24355889724310778,0,0.05
1757391131.9867942,0.245,-0.183,9.52,0.20444672288887394,1.839817294527882,0.24355889724310778,0,0.05
1757391132.0139244,0.38,-0.312,9.536,0.20532769540420018,2.9515479237483864,0.2503258145363409,0,0.05
1757391132.0414352,0.38,-0.312,9.536,0.20532769540420018,2.9515479237483864,0.2503258145363409,0,0.05
1757391132.0682447,0.409,-0.263,9.582,0.20634356059736877,2.905117672687675,0.2517794486215539,0,0.05
1757391132.0951374,0.409,-0.263,9.582,0.20634356059736877,2.905117672687675,0.2517794486215539,0,0.05
1757391132.122689,0.349,-0.373,9.612,0.20708009923698606,3.0420232645719287,0.2547869674185464,0,0.05
1757391132.1496098,0.349,-0.373,9.612,0.20708009923698606,3.0420232645719287,0.2547869674185464,0,0.05
1757391132.1766202,0.277,-0.313,9.68,0.20754274258571415,2.472416089008325,0.25839598997493735,0,0.05
1757391132.2037222,0.277,-0.313,9.68,0.20754274258571415,2.472416089008325,0.25839598997493735,0,0.05
1757391132.230713,0.396,-0.103,9.498,0.20848508339926866,2.4667899300689102,0.2643609022556391,0,0.05
1757391132.2575274,0.396,-0.103,9.498,0.20848508339926866,2.4667899300689102,0.2643609022556391,0,0.05
1757391132.2844853,0.541,-0.436,9.396,0.21023256764830706,4.229247948060841,0.2716290726817043,0,0.05
1757391132.312056,0.541,-0.436,9.396,0.21023256764830706,4.229247948060841,0.2716290726817043,0,0.05
1757391132.3389158,0.315,-0.428,9.466,0.21082171377730521,3.2132148447564286,0.28295739348370924,0,0.05
1757391132.3660238,0.315,-0.428,9.466,0.21082171377730521,3.2132148447564286,0.28295739348370924,0,0.05
1757391132.393638,0.618,-0.922,9.649,0.21307417722474023,6.562092602699369,0.2981453634085213,0,0.05
1757391132.4211037,0.618,-0.922,9.649,0.21307417722474023,6.562092602699369,0.2981453634085213,0,0.05
1757391132.4479957,0.38,-0.898,9.644,0.2139196227558379,5.77347807830004,0.3100751879699248,0,0.05
1757391132.4754643,0.38,-0.898,9.644,0.2139196227558379,5.77347807830004,0.3100751879699248,0,0.05
1757391132.5024385,0.423,-0.82,9.807,0.21496261884337006,5.374754716466224,0.31223057644110275,0,0.05
1757391132.5294645,0.423,-0.82,9.807,0.21496261884337006,5.374754716466224,0.31223057644110275,0,0.05
1757391132.5562418,0.48,-0.522,9.77,0.21629823739457518,4.151461688276547,0.31508771929824564,0,0.05
1757391132.5838885,0.48,-0.522,9.77,0.21629823739457518,4.151461688276547,0.31508771929824564,0,0.05
1757391132.61106,0.604,-0.49,9.689,0.21839635413623554,4.589453582165624,0.32130325814536337,0,0.05
1757391132.6382687,0.604,-0.49,9.689,0.21839635413623554,4.589453582165624,0.32130325814536337,0,0.05
1757391132.6658587,0.38,-0.361,9.826,0.21922127519928353,3.053376788749337,0.332531328320802,0,0.05
1757391132.6931338,0.38,-0.361,9.826,0.21922127519928353,3.053376788749337,0.332531328320802,0,0.05
1757391132.7199519,0.493,-0.204,9.91,0.220602787833699,3.0817466092881176,0.33819548872180455,0,0.05
1757391132.7469187,0.493,-0.204,9.91,0.220602787833699,3.0817466092881176,0.33819548872180455,0,0.05
1757391132.7737293,0.614,-0.259,9.817,0.2227287139099941,3.883356411369795,0.3442606516290727,0,0.05
1757391132.800677,0.614,-0.259,9.817,0.2227287139099941,3.883356411369795,0.3442606516290727,0,0.05
1757391132.8274877,0.362,-0.32,9.832,0.223462949949203,2.8133443558467897,0.35689223057644104,0,0.05
1757391132.8546822,0.362,-0.32,9.832,0.223462949949203,2.8133443558467897,0.35689223057644104,0,0.05
1757391132.8827202,0.429,-0.173,9.83,0.22449007216355915,2.694171920081808,0.36025062656641604,0,0.05
1757391132.9097357,0.429,-0.173,9.83,0.22449007216355915,2.694171920081808,0.36025062656641604,0,0.05
1757391132.9368324,0.466,-0.248,9.885,0.22569599575535232,3.0568275723182663,0.36210526315789476,0,0.05
1757391132.9639504,0.466,-0.248,9.885,0.22569599575535232,3.0568275723182663,0.36210526315789476,0,0.05
1757391132.9908705,0.388,-0.347,9.67,0.22652823775414843,3.0812305344184288,0.36601503759398496,0,0.05
1757391133.0180411,0.388,-0.347,9.67,0.22652823775414843,3.0812305344184288,0.36601503759398496,0,0.05
1757391133.0448828,0.358,-0.311,9.792,0.22723435589716623,2.772632339643826,0.3675187969924812,0,0.05
1757391133.0719087,0.358,-0.311,9.792,0.22723435589716623,2.772632339643826,0.3675187969924812,0,0.05
1757391133.0988345,0.756,-0.436,9.694,0.2303568807307479,5.144261382136157,0.38746867167919796,0,0.05
1757391133.1259394,0.756,-0.436,9.694,0.2303568807307479,5.144261382136157,0.38746867167919796,0,0.05
1757391133.153337,0.642,-0.639,9.596,0.23258267884775943,5.392408414888508,0.3931829573934837,0,0.05
1757391133.1802514,0.642,-0.639,9.596,0.23258267884775943,5.392408414888508,0.3931829573934837,0,0.05
1757391133.207055,0.465,-0.568,9.627,0.2337418768642025,4.360392981849788,0.4020551378446115,0,0.05
1757391133.2343533,0.465,-0.568,9.627,0.2337418768642025,4.360392981849788,0.4020551378446115,0,0.05
1757391133.2612007,0.713,-0.454,9.568,0.23644489315694683,5.048611992067596,0.4144862155388472,0,0.05
1757391133.2886832,0.713,-0.454,9.568,0.23644489315694683,5.048611992067596,0.4144862155388472,0,0.05
1757391133.315744,0.537,-0.414,9.614,0.23796451416125053,4.034297481423205,0.4233082706766918,0,0.05
1757391133.3427992,0.537,-0.414,9.614,0.23796451416125053,4.034297481423205,0.4233082706766918,0,0.05
1757391133.3698375,0.428,-0.275,9.581,0.23892482081190308,3.0394417627782326,0.4287719298245614,0,0.05
1757391133.3968213,0.428,-0.275,9.581,0.23892482081190308,3.0394417627782326,0.4287719298245614,0,0.05
1757391133.423776,0.352,-0.207,9.731,0.23957218118971993,2.402963929083426,0.4325814536340853,0,0.05
1757391133.4506829,0.352,-0.207,9.731,0.23957218118971993,2.402963929083426,0.4325814536340853,0,0.05
1757391133.4776013,0.541,-0.17,9.57,0.24109444726081933,3.391160508292141,0.4420551378446116,0,0.05
1757391133.505006,0.541,-0.17,9.57,0.24109444726081933,3.391160508292141,0.4420551378446116,0,0.05
1757391133.5319045,0.272,-0.425,9.679,0.24147772671615078,2.9842557762426747,0.4555388471177945,0,0.05
1757391133.5593562,0.272,-0.425,9.679,0.24147772671615078,2.9842557762426747,0.4555388471177945,0,0.05
1757391133.586254,0.132,-0.398,9.757,0.24156790453203836,2.460838913177356,0.46255639097744367,0,0.05
1757391133.6131215,0.132,-0.398,9.757,0.24156790453203836,2.460838913177356,0.46255639097744367,0,0.05
1757391133.6399865,0.536,-0.167,9.679,0.24304997942810033,3.319621572492768,0.48280701754385974,0,0.05
1757391133.6680481,0.536,-0.167,9.679,0.24304997942810033,3.319621572492768,0.48280701754385974,0,0.05
1757391133.6949968,0.358,-0.192,9.729,0.243708232318894,2.3910080630096693,0.49172932330827074,0,0.05
1757391133.7224445,0.358,-0.192,9.729,0.243708232318894,2.3910080630096693,0.49172932330827074,0,0.05
1757391133.7493644,0.518,-0.487,9.844,0.24508062448916684,4.13099956087295,0.499749373433584,0,0.05
1757391133.776788,0.518,-0.487,9.844,0.24508062448916684,4.13099956087295,0.499749373433584,0,0.05
1757391133.8036034,0.268,-0.256,9.956,0.24544667954568056,2.131902777774669,0.512280701754386,0,0.05
1757391133.8307424,0.268,-0.256,9.956,0.24544667954568056,2.131902777774669,0.512280701754386,0,0.05
1757391133.8576233,0.49,-0.286,9.798,0.24666641948185813,3.3140441258903737,0.5234085213032581,0,0.05
1757391133.8847122,0.49,-0.286,9.798,0.24666641948185813,3.3140441258903737,0.5234085213032581,0,0.05
1757391133.91154,0.324,-0.24,9.824,0.24719782058100756,2.3502757100850467,0.5317293233082707,0,0.05
1757391133.9385972,0.324,-0.24,9.824,0.24719782058100756,2.3502757100850467,0.5317293233082707,0,0.05
1757391133.9655054,0.341,-0.304,9.82,0.24778511860077476,2.6635217289110074,0.5325814536340853,0,0.05
1757391133.9923882,0.341,-0.304,9.82,0.24778511860077476,2.6635217289110074,0.5325814536340853,0,0.05
1757391134.019215,0.341,-0.304,9.82,0.24778511860077476,2.6635217289110074,0.5325814536340853,0,0.05
1757391134.0461118,0.289,-0.212,9.858,0.2482060988372365,2.0822600665393916,0.535187969924812,0,0.05
1757391134.0732741,0.362,-0.192,9.832,0.24886517936424937,2.386520649401435,0.5388471177944862,0,0.05
1757391134.1000068,0.362,-0.192,9.832,0.24886517936424937,2.386520649401435,0.5388471177944862,0,0.05
1757391134.1268878,0.189,-0.161,10.024,0.24904453417009575,1.4188325703088904,0.5475187969924812,0,0.05
1757391134.154098,0.189,-0.161,10.024,0.24904453417009575,1.4188325703088904,0.5475187969924812,0,0.05
1757391134.1811237,0.329,-0.161,9.908,0.24958722423233126,2.117159952978074,0.5545363408521303,0,0.05
1757391134.2079957,0.329,-0.161,9.908,0.24958722423233126,2.117159952978074,0.5545363408521303,0,0.05
1757391134.2348688,0.266,-0.131,9.933,0.2499413381175671,1.7098171984147197,0.5576942355889725,0,0.05
1757391134.2619858,0.266,-0.131,9.933,0.2499413381175671,1.7098171984147197,0.5576942355889725,0,0.05
1757391134.2889738,0.35,-0.072,9.941,0.2505532328667902,2.058608970463648,0.5619047619047619,0,0.05
1757391134.3158715,0.35,-0.072,9.941,0.2505532328667902,2.058608970463648,0.5619047619047619,0,0.05
1757391134.3425734,0.324,-0.118,9.917,0.25107640769295714,1.9913991594299874,0.5632080200501254,0,0.05
1757391134.3693712,0.324,-0.118,9.917,0.25107640769295714,1.9913991594299874,0.5632080200501254,0,0.05
1757391134.396396,0.311,-0.276,9.92,0.25155747852131133,2.4002171538848875,0.5638596491228071,0,0.05
1757391134.423445,0.311,-0.276,9.92,0.25155747852131133,2.4002171538848875,0.5638596491228071,0,0.05
1757391134.4504871,0.326,-0.251,9.924,0.2520850154213852,2.3740300808252113,0.5646115288220552,0,0.05
1757391134.4773986,0.326,-0.251,9.924,0.2520850154213852,2.3740300808252113,0.5646115288220552,0,0.05
1757391134.5042598,0.407,-0.274,10.045,0.25290507606610035,2.7963290583379017,0.5686716791979951,0,0.05
1757391134.5312803,0.407,-0.274,10.045,0.25290507606610035,2.7963290583379017,0.5686716791979951,0,0.05
1757391134.5581384,0.306,-0.244,9.924,0.253367455487085,2.258398473064651,0.573734335839599,0,0.05
1757391134.5850174,0.306,-0.244,9.924,0.253367455487085,2.258398473064651,0.573734335839599,0,0.05
1757391134.6117942,0.372,-0.377,9.875,0.25404926195523575,3.070054695669067,0.5770426065162908,0,0.05
1757391134.639769,0.372,-0.377,9.875,0.25404926195523575,3.070054695669067,0.5770426065162908,0,0.05
1757391134.666712,0.519,-0.305,9.749,0.2553711612535762,3.533435833224137,0.5844110275689223,0,0.05
1757391134.6936932,0.519,-0.305,9.749,0.2553711612535762,3.533435833224137,0.5844110275689223,0,0.05
1757391134.720526,0.519,-0.305,9.749,0.2553711612535762,3.533435833224137,0.5844110275689223,0,0.05
1757391134.747446,0.396,-0.306,9.74,0.25613759973889033,2.941332912782494,0.5905764411027569,0,0.05
1757391134.7744732,0.379,-0.236,9.652,0.25683763840216256,2.6484380049424705,0.5914285714285715,0,0.05
1757391134.8013592,0.379,-0.236,9.652,0.25683763840216256,2.6484380049424705,0.5914285714285715,0,0.05
1757391134.8284352,0.576,-0.217,9.56,0.2584473108778654,3.6839009731129653,0.6013032581453635,0,0.05
1757391134.8557363,0.576,-0.217,9.56,0.2584473108778654,3.6839009731129653,0.6013032581453635,0,0.05
1757391134.8828278,0.515,-0.351,9.542,0.2597269239027791,3.7369813129365355,0.6043609022556391,0,0.05
1757391134.9096556,0.515,-0.351,9.542,0.2597269239027791,3.7369813129365355,0.6043609022556391,0,0.05
1757391134.936669,0.46,-0.292,9.605,0.2607433124741649,3.246675252531327,0.6071177944862155,0,0.05
1757391134.9638026,0.46,-0.292,9.605,0.2607433124741649,3.246675252531327,0.6071177944862155,0,0.05
1757391134.990908,0.505,-0.206,9.61,0.26196304605802706,3.2482439002514965,0.6093734335839599,0,0.05
1757391135.0178132,0.505,-0.206,9.61,0.26196304605802706,3.2482439002514965,0.6093734335839599,0,0.05
1757391135.0446665,0.61,-0.454,9.603,0.26373260606151827,4.527469352962657,0.6146365914786968,0,0.05
1757391135.0715554,0.61,-0.454,9.603,0.26373260606151827,4.527469352962657,0.6146365914786968,0,0.05
1757391135.0974913,0.416,-0.506,9.819,0.2645515592469642,3.8166956856437877,0.624360902255639,0,0.05
1757391135.124797,0.416,-0.506,9.819,0.2645515592469642,3.8166956856437877,0.624360902255639,0,0.05
1757391135.1520023,0.511,-0.366,9.728,0.26578248625520834,3.6968912215411573,0.6291228070175439,0,0.05
1757391135.1793935,0.511,-0.366,9.728,0.26578248625520834,3.6968912215411573,0.6291228070175439,0,0.05
1757391135.2062702,0.556,-0.278,9.81,0.26723242692457816,3.6257942260958758,0.6313784461152883,0,0.05
1757391135.2333822,0.556,-0.278,9.81,0.26723242692457816,3.6257942260958758,0.6313784461152883,0,0.05
1757391135.2602494,0.504,-0.325,9.88,0.2684179762981608,3.4735037994942024,0.6339849624060151,0,0.05
1757391135.287202,0.504,-0.325,9.88,0.2684179762981608,3.4735037994942024,0.6339849624060151,0,0.05
1757391135.3140578,0.437,-0.144,9.73,0.2693058345079066,2.7073970026888543,0.63734335839599,0,0.05
1757391135.3413901,0.437,-0.144,9.73,0.2693058345079066,2.7073970026888543,0.63734335839599,0,0.05
1757391135.368497,0.532,-0.181,9.885,0.2706163197222222,3.2536775963930173,0.6421052631578948,0,0.05
1757391135.3955398,0.532,-0.181,9.885,0.2706163197222222,3.2536775963930173,0.6421052631578948,0,0.05
1757391135.4225647,0.47,-0.216,9.812,0.2716347593736855,3.0176621256178136,0.6452130325814537,0,0.05
1757391135.4497926,0.47,-0.216,9.812,0.2716347593736855,3.0176621256178136,0.6452130325814537,0,0.05
1757391135.4767215,0.52,-0.203,9.869,0.27287624026287083,3.2373672217726925,0.6477192982456141,0,0.05
1757391135.503556,0.52,-0.203,9.869,0.27287624026287083,3.2373672217726925,0.6477192982456141,0,0.05
1757391135.5285945,0.523,-0.294,9.962,0.27412636684565755,3.4465292652473427,0.6478696741854637,0,0.05
1757391135.5556479,0.523,-0.294,9.962,0.27412636684565755,3.4465292652473427,0.6478696741854637,0,0.05
1757391135.58298,0.367,-0.31,9.975,0.27473985422577485,2.7572861520355465,0.6556892230576441,0,0.05
1757391135.6104863,0.367,-0.31,9.975,0.27473985422577485,2.7572861520355465,0.6556892230576441,0,0.05
1757391135.6375294,0.37,-0.19,9.883,0.27536201172275016,2.409909186454264,0.6558395989974938,0,0.05
1757391135.664606,0.37,-0.19,9.883,0.27536201172275016,2.409909186454264,0.6558395989974938,0,0.05
1757391135.6915262,0.506,-0.243,9.918,0.27652183910136285,3.2392862628183243,0.6626566416040102,0,0.05
1757391135.7184873,0.506,-0.243,9.918,0.27652183910136285,3.2392862628183243,0.6626566416040102,0,0.05
1757391135.7455652,0.511,-0.262,9.775,0.27769971191918796,3.362089561231174,0.6629072681704261,0,0.05
1757391135.7725117,0.511,-0.262,9.775,0.27769971191918796,3.362089561231174,0.6629072681704261,0,0.05
1757391135.7993927,0.348,-0.183,9.712,0.27824429913297416,2.318311414655427,0.6710776942355888,0,0.05
1757391135.8265874,0.348,-0.183,9.712,0.27824429913297416,2.318311414655427,0.6710776942355888,0,0.05
1757391135.8535767,0.423,-0.159,9.77,0.27904697185241056,2.648238842243569,0.6748370927318296,0,0.05
1757391135.8806,0.423,-0.159,9.77,0.27904697185241056,2.648238842243569,0.6748370927318296,0,0.05
1757391135.9075055,0.514,-0.191,9.712,0.28022794739283235,3.231493052161866,0.6793984962406014,0,0.05
1757391135.9345958,0.514,-0.191,9.712,0.28022794739283235,3.231493052161866,0.6793984962406014,0,0.05
1757391135.9617076,0.357,-0.336,9.706,0.28079587781874576,2.891551731191942,0.6872681704260653,0,0.05
1757391135.9888783,0.357,-0.336,9.706,0.28079587781874576,2.891551731191942,0.6872681704260653,0,0.05
1757391136.015857,0.432,-0.253,9.625,0.2816254338656223,2.977486680215082,0.6910275689223055,0,0.05
1757391136.0428588,0.432,-0.253,9.625,0.2816254338656223,2.977486680215082,0.6910275689223055,0,0.05
1757391136.0698204,0.521,-0.398,9.685,0.2828276639581072,3.8727267951052387,0.6954887218045113,0,0.05
1757391136.0969272,0.521,-0.398,9.685,0.2828276639581072,3.8727267951052387,0.6954887218045113,0,0.05
1757391136.1238647,0.333,-0.448,9.594,0.28331733092064804,3.3298710804129033,0.7049122807017543,0,0.05
1757391136.1508284,0.333,-0.448,9.594,0.28331733092064804,3.3298710804129033,0.7049122807017543,0,0.05
1757391136.177724,0.351,-0.47,9.621,0.2838603750085595,3.4890572339722175,0.705814536340852,0,0.05
1757391136.2047913,0.351,-0.47,9.621,0.2838603750085595,3.4890572339722175,0.705814536340852,0,0.05
1757391136.2316566,0.409,-0.562,9.674,0.2845960558405545,4.109610335657349,0.708721804511278,0,0.05
1757391136.25849,0.409,-0.562,9.674,0.2845960558405545,4.109610335657349,0.708721804511278,0,0.05
1757391136.2853656,0.381,-0.659,9.684,0.28523291798107736,4.494493512272948,0.7101253132832079,0,0.05
1757391136.3128033,0.381,-0.659,9.684,0.28523291798107736,4.494493512272948,0.7101253132832079,0,0.05
1757391136.3397079,0.195,-0.559,9.662,0.2853995094599849,3.506393711117282,0.7194486215538847,0,0.05
1757391136.366712,0.195,-0.559,9.662,0.2853995094599849,3.506393711117282,0.7194486215538847,0,0.05
1757391136.3935893,0.426,-0.507,9.72,0.28619323891384996,3.8974716283388746,0.7310275689223058,0,0.05
1757391136.4207268,0.426,-0.507,9.72,0.28619323891384996,3.8974716283388746,0.7310275689223058,0,0.05
1757391136.4476438,0.337,-0.449,9.616,0.28668884265000616,3.3412418951007004,0.7354887218045112,0,0.05
1757391136.4748368,0.337,-0.449,9.616,0.28668884265000616,3.3412418951007004,0.7354887218045112,0,0.05
1757391136.501847,0.264,-0.435,9.614,0.2869925652347113,3.029682474528532,0.7391478696741853,0,0.05
1757391136.5288532,0.264,-0.435,9.614,0.2869925652347113,3.029682474528532,0.7391478696741853,0,0.05
1757391136.5557957,0.267,-0.381,9.77,0.28730289765333034,2.7263330958496366,0.7392982456140351,0,0.05
1757391136.5835178,0.267,-0.381,9.77,0.28730289765333034,2.7263330958496366,0.7392982456140351,0,0.05
1757391136.6105325,0.407,-0.415,9.701,0.28802270309821065,3.4289770853568298,0.7463157894736843,0,0.05
1757391136.6376576,0.407,-0.415,9.701,0.28802270309821065,3.4289770853568298,0.7463157894736843,0,0.05
1757391136.6649163,0.141,-0.374,9.735,0.2881089724392491,2.3511090245850728,0.7596491228070176,0,0.05
1757391136.6921098,0.141,-0.374,9.735,0.2881089724392491,2.3511090245850728,0.7596491228070176,0,0.05
1757391136.7190585,0.269,-0.236,9.85,0.2884227496228409,2.0806407602250254,0.7660651629072682,0,0.05
1757391136.7462616,0.269,-0.236,9.85,0.2884227496228409,2.0806407602250254,0.7660651629072682,0,0.05
1757391136.773044,0.368,-0.187,9.751,0.28900906992687964,2.424041909321903,0.7710275689223057,0,0.05
1757391136.800056,0.368,-0.187,9.751,0.28900906992687964,2.424041909321903,0.7710275689223057,0,0.05
1757391136.8271217,0.247,-0.147,9.781,0.2892728210530675,1.68326208577184,0.777092731829574,0,0.05
1757391136.8543756,0.247,-0.147,9.781,0.2892728210530675,1.68326208577184,0.777092731829574,0,0.05
1757391136.8812885,0.403,-0.131,9.788,0.28997377036552807,2.4789881241910696,0.7849122807017545,0,0.05
1757391136.9081364,0.403,-0.131,9.788,0.28997377036552807,2.4789881241910696,0.7849122807017545,0,0.05
1757391136.9349482,0.409,-0.21,9.818,0.29069397998582636,2.6811148888645757,0.7852130325814537,0,0.05
1757391136.9624221,0.409,-0.21,9.818,0.29069397998582636,2.6811148888645757,0.7852130325814537,0,0.05
1757391136.9894452,0.289,-0.23,9.901,0.29105290326674293,2.1364013752616837,0.7912280701754386,0,0.05
1757391137.0163462,0.289,-0.23,9.901,0.29105290326674293,2.1364013752616837,0.7912280701754386,0,0.05
1757391137.0439477,0.226,-0.168,10.005,0.291272179413002,1.6122318209136715,0.7943859649122806,0,0.05
1757391137.0714796,0.226,-0.168,10.005,0.291272179413002,1.6122318209136715,0.7943859649122806,0,0.05
1757391137.0985668,0.26,-0.165,10.114,0.2915621417468324,1.7439216390005594,0.7960902255639097,0,0.05
1757391137.1262798,0.26,-0.165,10.114,0.2915621417468324,1.7439216390005594,0.7960902255639097,0,0.05
1757391137.153361,0.335,-0.261,9.98,0.2920428821252112,2.436595448838403,0.7998496240601504,0,0.05
1757391137.1803405,0.335,-0.261,9.98,0.2920428821252112,2.436595448838403,0.7998496240601504,0,0.05
1757391137.2076654,0.337,-0.296,9.993,0.2925285755272466,2.570000126416055,0.7999498746867169,0,0.05
1757391137.2349215,0.337,-0.296,9.993,0.2925285755272466,2.570000126416055,0.7999498746867169,0,0.05
1757391137.2618756,0.426,-0.346,10.08,0.29330301311101464,3.116414670371854,0.8044110275689224,0,0.05
1757391137.2889812,0.426,-0.346,10.08,0.29330301311101464,3.116414670371854,0.8044110275689224,0,0.05
1757391137.3160522,0.46,-0.327,9.89,0.2942034287699584,3.2661043902623064,0.8061152882205513,0,0.05
1757391137.343522,0.46,-0.327,9.89,0.2942034287699584,3.2661043902623064,0.8061152882205513,0,0.05
1757391137.3704312,0.365,-0.378,9.929,0.29476892644917646,3.0293708970236035,0.8108771929824562,0,0.05
1757391137.3974674,0.365,-0.378,9.929,0.29476892644917646,3.0293708970236035,0.8108771929824562,0,0.05
1757391137.4245102,0.465,-0.35,10.059,0.29568443060127464,3.3113686456796647,0.815889724310777,0,0.05
1757391137.4518464,0.465,-0.35,10.059,0.29568443060127464,3.3113686456796647,0.815889724310777,0,0.05
1757391137.4788208,0.459,-0.356,10.089,0.2965737429375703,3.295177374202158,0.8161904761904762,0,0.05
1757391137.505884,0.459,-0.356,10.089,0.2965737429375703,3.295177374202158,0.8161904761904762,0,0.05
1757391137.533017,0.343,-0.406,9.947,0.2970691964845901,3.0585487871903387,0.8220050125313284,0,0.05
1757391137.5599372,0.343,-0.406,9.947,0.2970691964845901,3.0585487871903387,0.8220050125313284,0,0.05
1757391137.587207,0.46,-0.538,10.05,0.29795823113315734,4.028820390394463,0.8278696741854638,0,0.05
1757391137.614659,0.46,-0.538,10.05,0.29795823113315734,4.028820390394463,0.8278696741854638,0,0.05
1757391137.6416852,0.53,-0.564,9.939,0.2991343469078735,4.452627751529374,0.8313784461152884,0,0.05
1757391137.6687944,0.53,-0.564,9.939,0.2991343469078735,4.452627751529374,0.8313784461152884,0,0.05
1757391137.6958578,0.45,-0.472,9.866,0.29997934512229335,3.781723206096181,0.8353884711779448,0,0.05
1757391137.7231116,0.45,-0.472,9.866,0.29997934512229335,3.781723206096181,0.8353884711779448,0,0.05
1757391137.7501125,0.574,-0.466,9.849,0.3013491289186016,4.29303297802954,0.8416040100250627,0,0.05
1757391137.7770572,0.574,-0.466,9.849,0.3013491289186016,4.29303297802954,0.8416040100250627,0,0.05
1757391137.8040202,0.529,-0.495,9.805,0.302507685852773,4.225817858047194,0.843859649122807,0,0.05
1757391137.831462,0.529,-0.495,9.805,0.302507685852773,4.225817858047194,0.843859649122807,0,0.05
1757391137.8584561,0.529,-0.495,9.805,0.302507685852773,4.225817858047194,0.843859649122807,0,0.05
1757391137.8857262,0.635,-0.442,9.661,0.3041692990753669,4.578667005524637,0.8491729323308272,0,0.05
1757391137.9129004,0.629,-0.489,9.738,0.30579088442921254,4.677266305293257,0.8494736842105265,0,0.05
1757391137.9403987,0.629,-0.489,9.738,0.30579088442921254,4.677266305293257,0.8494736842105265,0,0.05
1757391137.9677627,0.623,-0.408,9.733,0.30737336823479033,4.37539972188315,0.8497744360902255,0,0.05
1757391137.9949708,0.623,-0.408,9.733,0.30737336823479033,4.37539972188315,0.8497744360902255,0,0.05
1757391138.0219069,0.567,-0.465,9.717,0.30867800375148213,4.31562506002849,0.8525814536340852,0,0.05
1757391138.04899,0.567,-0.465,9.717,0.30867800375148213,4.31562506002849,0.8525814536340852,0,0.05
1757391138.0766494,0.502,-0.451,9.784,0.3096968194864132,3.945643151866359,0.8558395989974937,0,0.05
1757391138.103986,0.502,-0.451,9.784,0.3096968194864132,3.945643151866359,0.8558395989974937,0,0.05
1757391138.1311817,0.632,-0.346,9.722,0.3113048024043317,4.238537418506917,0.8623558897243108,0,0.05
1757391138.15819,0.632,-0.346,9.722,0.3113048024043317,4.238537418506917,0.8623558897243108,0,0.05
1757391138.1852708,0.52,-0.497,9.828,0.3123886681683572,4.186015142786004,0.8679699248120302,0,0.05
1757391138.2124522,0.52,-0.497,9.828,0.3123886681683572,4.186015142786004,0.8679699248120302,0,0.05
1757391138.2394347,0.529,-0.469,9.835,0.3135064313534891,4.1115058650475165,0.868421052631579,0,0.05
1757391138.2664616,0.529,-0.469,9.835,0.3135064313534891,4.1115058650475165,0.868421052631579,0,0.05
1757391138.2934358,0.473,-0.31,9.795,0.3143972089570771,3.304419869099984,0.8712280701754386,0,0.05
1757391138.3204734,0.473,-0.31,9.795,0.3143972089570771,3.304419869099984,0.8712280701754386,0,0.05
1757391138.3474376,0.61,-0.44,9.78,0.3158731628359712,4.397672266070502,0.8780952380952382,0,0.05
1757391138.3749502,0.61,-0.44,9.78,0.3158731628359712,4.397672266070502,0.8780952380952382,0,0.05
1757391138.4019415,0.488,-0.43,9.812,0.316814164771716,3.7924770284681375,0.8842105263157897,0,0.05
1757391138.4291248,0.488,-0.43,9.812,0.316814164771716,3.7924770284681375,0.8842105263157897,0,0.05
1757391138.4565616,0.385,-0.191,9.779,0.3173984522646574,2.516455819800426,0.8893734335839599,0,0.05
1757391138.483882,0.385,-0.191,9.779,0.3173984522646574,2.516455819800426,0.8893734335839599,0,0.05
1757391138.5109434,0.528,-0.105,9.781,0.31849448582353823,3.1503393877585317,0.8965413533834588,0,0.05
1757391138.5381103,0.528,-0.105,9.781,0.31849448582353823,3.1503393877585317,0.8965413533834588,0,0.05
1757391138.5658512,0.349,-0.063,9.822,0.31897216179472465,2.0678670348113095,0.905513784461153,0,0.05
1757391138.5934312,0.349,-0.063,9.822,0.31897216179472465,2.0678670348113095,0.905513784461153,0,0.05
1757391138.6205094,0.306,-0.076,9.836,0.3193388952194831,1.8360091085076822,0.9076691729323311,0,0.05
1757391138.647873,0.306,-0.076,9.836,0.3193388952194831,1.8360091085076822,0.9076691729323311,0,0.05
1757391138.6749866,0.56,-0.041,9.793,0.3205640809573025,3.2815614352291136,0.9204010025062658,0,0.05
1757391138.7023244,0.56,-0.041,9.793,0.3205640809573025,3.2815614352291136,0.9204010025062658,0,0.05
1757391138.7293923,0.507,-0.225,9.651,0.321564849602689,3.2894114450853764,0.9230576441102759,0,0.05
1757391138.7565732,0.507,-0.225,9.651,0.321564849602689,3.2894114450853764,0.9230576441102759,0,0.05
1757391138.7836108,0.371,-0.295,9.601,0.3220994489284327,2.8263268203667984,0.9298746867167921,0,0.05
1757391138.8108945,0.371,-0.295,9.601,0.3220994489284327,2.8263268203667984,0.9298746867167921,0,0.05
1757391138.8385813,0.47,-0.208,9.611,0.3229555774406134,3.061099060938027,0.9348370927318296,0,0.05
1757391138.866215,0.47,-0.208,9.611,0.3229555774406134,3.061099060938027,0.9348370927318296,0,0.05
1757391138.893912,0.581,-0.356,9.505,0.32425947557473167,4.100399131141673,0.9404010025062657,0,0.05
1757391138.9212,0.581,-0.356,9.505,0.32425947557473167,4.100399131141673,0.9404010025062657,0,0.05
1757391138.9482388,0.48,-0.383,9.528,0.3251464400850792,3.6875895750790644,0.9454636591478697,0,0.05
1757391138.97575,0.48,-0.383,9.528,0.3251464400850792,3.6875895750790644,0.9454636591478697,0,0.05
1757391139.002825,0.442,-0.322,9.611,0.3258966362207502,3.2565405689899993,0.9473684210526317,0,0.05
1757391139.029719,0.442,-0.322,9.611,0.3258966362207502,3.2565405689899993,0.9473684210526317,0,0.05
1757391139.0567093,0.467,-0.4,9.644,0.32673206148157546,3.648169356464435,0.9486215538847118,0,0.05
1757391139.083877,0.467,-0.4,9.644,0.32673206148157546,3.648169356464435,0.9486215538847118,0,0.05
1757391139.1108284,0.263,-0.335,9.68,0.32699657872827964,2.5192932639639074,0.9588471177944863,0,0.05
1757391139.1382217,0.263,-0.335,9.68,0.32699657872827964,2.5192932639639074,0.9588471177944863,0,0.05
1757391139.1659815,0.31,-0.358,9.727,0.3273637311920794,2.787280751587458,0.9612030075187971,0,0.05
1757391139.193214,0.31,-0.358,9.727,0.3273637311920794,2.787280751587458,0.9612030075187971,0,0.05
1757391139.2207663,0.375,-0.266,9.623,0.3279002516010014,2.735363171547112,0.9644611528822055,0,0.05
1757391139.2481823,0.375,-0.266,9.623,0.3279002516010014,2.735363171547112,0.9644611528822055,0,0.05
1757391139.2752583,0.332,-0.203,9.665,0.32832017147900006,2.3056666603070273,0.9666165413533836,0,0.05
1757391139.3026485,0.332,-0.203,9.665,0.32832017147900006,2.3056666603070273,0.9666165413533836,0,0.05
1757391139.3298552,0.425,-0.052,9.847,0.32900713898029627,2.4897789792741607,0.9712781954887219,0,0.05
1757391139.3571436,0.425,-0.052,9.847,0.32900713898029627,2.4897789792741607,0.9712781954887219,0,0.05
1757391139.3843148,0.339,-0.13,9.868,0.32944347011285563,2.107123242062487,0.9755889724310778,0,0.05
1757391139.4122891,0.207,-0.237,9.88,0.32960601101921666,1.8242148255428394,0.9822055137844611,0,0.05
1757391139.4399486,0.207,-0.237,9.88,0.32960601101921666,1.8242148255428394,0.9822055137844611,0,0.05
1757391139.4673011,0.618,-0.195,9.772,0.331051253584698,3.79404101622236,1.0028070175438597,0,0.05
1757391139.4947443,0.618,-0.195,9.772,0.331051253584698,3.79404101622236,1.0028070175438597,0,0.05
1757391139.5224338,0.379,-0.34,10.059,0.3315931769503106,2.8976716992171,1.0147869674185466,0,0.05
1757391139.5500753,0.379,-0.34,10.059,0.3315931769503106,2.8976716992171,1.0147869674185466,0,0.05
1757391139.5777419,0.255,-0.249,10.006,0.33183820982520984,2.0399751520593736,1.0210025062656642,0,0.05
1757391139.6051304,0.255,-0.249,10.006,0.33183820982520984,2.0399751520593736,1.0210025062656642,0,0.05
1757391139.6322472,0.32,-0.188,10.055,0.33222371604086304,2.1138773710654712,1.0242606516290726,0,0.05
1757391139.6597648,0.32,-0.188,10.055,0.33222371604086304,2.1138773710654712,1.0242606516290726,0,0.05
1757391139.6869044,0.397,-0.11,9.923,0.3328161955193888,2.3772932533863367,1.0281203007518798,0,0.05
1757391139.7147424,0.397,-0.11,9.923,0.3328161955193888,2.3772932533863367,1.0281203007518798,0,0.05
1757391139.741966,0.309,-0.417,9.965,0.33317461262827336,2.9814512069063954,1.032531328320802,0,0.05
1757391139.7694023,0.309,-0.417,9.965,0.33317461262827336,2.9814512069063954,1.032531328320802,0,0.05
1757391139.7971861,0.308,-0.282,9.885,0.3335303322038342,2.419056969229524,1.0325814536340852,0,0.05
1757391139.8243792,0.308,-0.282,9.885,0.3335303322038342,2.419056969229524,1.0325814536340852,0,0.05
1757391139.851834,0.395,-0.309,10.033,0.33411456867368117,2.8615720496793267,1.0369423558897242,0,0.05
1757391139.879058,0.395,-0.309,10.033,0.33411456867368117,2.8615720496793267,1.0369423558897242,0,0.05
1757391139.90645,0.387,-0.342,9.983,0.33467442014590837,2.9615081553578064,1.0373433583959901,0,0.05
1757391139.9337196,0.387,-0.342,9.983,0.33467442014590837,2.9615081553578064,1.0373433583959901,0,0.05
1757391139.9611413,0.427,-0.441,9.828,0.3353547226445454,3.5740028815572153,1.0393483709273184,0,0.05
1757391139.98865,0.427,-0.441,9.828,0.3353547226445454,3.5740028815572153,1.0393483709273184,0,0.05
1757391140.0157804,0.293,-0.516,9.935,0.33567456337947327,3.4180250231598217,1.0460651629072684,0,0.05
1757391140.0433156,0.293,-0.516,9.935,0.33567456337947327,3.4180250231598217,1.0460651629072684,0,0.05
1757391140.0703607,0.503,-0.567,9.778,0.3366154111148211,4.432505185976125,1.056591478696742,0,0.05
1757391140.0983384,0.503,-0.567,9.778,0.3366154111148211,4.432505185976125,1.056591478696742,0,0.05
1757391140.1255522,0.375,-0.697,9.831,0.3371372087147902,4.602851028369066,1.0630075187969927,0,0.05
1757391140.1528182,0.375,-0.697,9.831,0.3371372087147902,4.602851028369066,1.0630075187969927,0,0.05
1757391140.180182,0.311,-0.528,9.813,0.3374956296013328,3.5732642365099108,1.0662155388471177,0,0.05
1757391140.2081654,0.311,-0.528,9.813,0.3374956296013328,3.5732642365099108,1.0662155388471177,0,0.05
1757391140.2363448,0.35,-0.556,9.916,0.3379490346191271,3.7906235906307293,1.068170426065163,0,0.05
1757391140.2637749,0.35,-0.556,9.916,0.3379490346191271,3.7906235906307293,1.068170426065163,0,0.05
1757391140.2913167,0.505,-0.541,9.827,0.3388910038640743,4.306816699597553,1.0759398496240602,0,0.05
1757391140.3189366,0.505,-0.541,9.827,0.3388910038640743,4.306816699597553,1.0759398496240602,0,0.05
1757391140.346446,0.417,-0.5,9.835,0.33953178790799543,3.787399680381963,1.0803508771929824,0,0.05
1757391140.3746047,0.417,-0.5,9.835,0.33953178790799543,3.787399680381963,1.0803508771929824,0,0.05
1757391140.4020092,0.613,-0.317,9.74,0.3409123897719178,4.052841687561768,1.0901754385964912,0,0.05
1757391140.429302,0.613,-0.317,9.74,0.3409123897719178,4.052841687561768,1.0901754385964912,0,0.05
1757391140.456316,0.588,-0.31,9.858,0.34217775716723614,3.8575485262496922,1.0914285714285714,0,0.05
1757391140.4835248,0.588,-0.31,9.858,0.34217775716723614,3.8575485262496922,1.0914285714285714,0,0.05
1757391140.5107296,0.496,-0.228,9.743,0.343075294213967,3.20689116211542,1.0960401002506266,0,0.05
1757391140.537947,0.496,-0.228,9.743,0.343075294213967,3.20689116211542,1.0960401002506266,0,0.05
1757391140.564925,0.584,-0.194,9.622,0.34431569453047006,3.65939474530032,1.1004511278195488,0,0.05
1757391140.592222,0.584,-0.194,9.622,0.34431569453047006,3.65939474530032,1.1004511278195488,0,0.05
1757391140.6194499,0.572,-0.284,9.618,0.3455014580287614,3.7987940211566262,1.1010526315789473,0,0.05
1757391140.6466749,0.572,-0.284,9.618,0.3455014580287614,3.7987940211566262,1.1010526315789473,0,0.05
1757391140.6737025,0.573,-0.274,9.608,0.3466872942580965,3.782063861633063,1.1011027568922305,0,0.05
1757391140.700812,0.573,-0.274,9.608,0.3466872942580965,3.782063861633063,1.1011027568922305,0,0.05
1757391140.728196,0.514,-0.228,9.613,0.3476385623028608,3.3476211858113314,1.1040601503759397,0,0.05
1757391140.7558458,0.514,-0.228,9.613,0.3476385623028608,3.3476211858113314,1.1040601503759397,0,0.05
1757391140.7840648,0.542,-0.232,9.623,0.3486932462781578,3.505920240672758,1.1054636591478697,0,0.05
1757391140.8114033,0.542,-0.232,9.623,0.3486932462781578,3.505920240672758,1.1054636591478697,0,0.05
1757391140.8385696,0.456,-0.132,9.694,0.3494378628597651,2.8035688819212394,1.1097744360902255,0,0.05
1757391140.865758,0.456,-0.132,9.694,0.3494378628597651,2.8035688819212394,1.1097744360902255,0,0.05
1757391140.892907,0.549,-0.162,9.642,0.35051436846440404,3.3974092483279805,1.1144360902255641,0,0.05
1757391140.9201014,0.549,-0.162,9.642,0.35051436846440404,3.3974092483279805,1.1144360902255641,0,0.05
1757391140.947282,0.516,-0.169,9.642,0.35146260469643137,3.2230966118747393,1.1160902255639098,0,0.05
1757391140.9751892,0.516,-0.169,9.642,0.35146260469643137,3.2230966118747393,1.1160902255639098,0,0.05
1757391141.0025914,0.558,-0.292,9.774,0.3525682522576303,3.686735862723426,1.1181954887218046,0,0.05
1757391141.0300186,0.558,-0.292,9.774,0.3525682522576303,3.686735862723426,1.1181954887218046,0,0.05
1757391141.0584333,0.531,-0.305,9.853,0.3535665071807566,3.5563413854170083,1.1195488721804512,0,0.05
1757391141.0857832,0.531,-0.305,9.853,0.3535665071807566,3.5563413854170083,1.1195488721804512,0,0.05
1757391141.112811,0.535,-0.319,9.92,0.3545769838836131,3.59293365256616,1.119749373433584,0,0.05
1757391141.140378,0.384,-0.29,10.001,0.3550964340851651,2.7546879905113633,1.1273182957393486,0,0.05
1757391141.1679907,0.384,-0.29,10.001,0.3550964340851651,2.7546879905113633,1.1273182957393486,0,0.05
1757391141.1952577,0.482,-0.291,10.02,0.3559133145865717,3.216114555509791,1.1322305764411027,0,0.05
1757391141.222862,0.482,-0.291,10.02,0.3559133145865717,3.216114555509791,1.1322305764411027,0,0.05
1757391141.2506883,0.439,-0.178,9.839,0.3565895259258185,2.7564663488269145,1.1343859649122807,0,0.05
1757391141.2781682,0.439,-0.178,9.839,0.3565895259258185,2.7564663488269145,1.1343859649122807,0,0.05
1757391141.3053598,0.411,-0.243,9.839,0.35718117601575816,2.7782412776791885,1.1357894736842107,0,0.05
1757391141.3328335,0.411,-0.243,9.839,0.35718117601575816,2.7782412776791885,1.1357894736842107,0,0.05
1757391141.3601973,0.453,-0.186,9.837,0.3578986099442131,2.8499071397946185,1.1378947368421053,0,0.05
1757391141.3873882,0.453,-0.186,9.837,0.3578986099442131,2.8499071397946185,1.1378947368421053,0,0.05
1757391141.4146264,0.425,-0.106,9.765,0.35852890748167016,2.568341172610193,1.1392982456140353,0,0.05
1757391141.4418006,0.425,-0.106,9.765,0.35852890748167016,2.568341172610193,1.1392982456140353,0,0.05
1757391141.469302,0.41,-0.147,9.753,0.359114504719595,2.5570540398520865,1.1400501253132833,0,0.05
1757391141.4964242,0.41,-0.147,9.753,0.359114504719595,2.5570540398520865,1.1400501253132833,0,0.05
1757391141.523493,0.389,-0.185,9.746,0.3596408347226438,2.530693059534939,1.1411027568922305,0,0.05
1757391141.5502524,0.389,-0.185,9.746,0.3596408347226438,2.530693059534939,1.1411027568922305,0,0.05
1757391141.577634,0.247,-0.065,9.691,0.3598528206086483,1.5096995291956699,1.1482205513784463,0,0.05
1757391141.605138,0.247,-0.065,9.691,0.3598528206086483,1.5096995291956699,1.1482205513784463,0,0.05
1757391141.632621,0.355,-0.045,9.62,0.3602903204361727,2.13028233684389,1.1536340852130327,0,0.05
1757391141.6599631,0.355,-0.045,9.62,0.3602903204361727,2.13028233684389,1.1536340852130327,0,0.05
1757391141.6871111,0.355,-0.045,9.62,0.3602903204361727,2.13028233684389,1.1536340852130327,0,0.05
1757391141.7142196,0.346,-0.029,9.696,0.36070542690677665,2.0508821506874875,1.1540852130325816,0,0.05
1757391141.741279,0.313,0.041,9.635,0.3610447721543687,1.8765245140704576,1.1557393483709273,0,0.05
1757391141.7686954,0.313,0.041,9.635,0.3610447721543687,1.8765245140704576,1.1557393483709273,0,0.05
1757391141.795785,0.484,0.01,9.579,0.3618548984054244,2.8931514204371767,1.1643107769423557,0,0.05
1757391141.8230257,0.484,0.01,9.579,0.3618548984054244,2.8931514204371767,1.1643107769423557,0,0.05
1757391141.8501434,0.332,-0.071,9.757,0.36223545864534024,1.9928741249955493,1.1719298245614034,0,0.05
1757391141.8783042,0.332,-0.071,9.757,0.36223545864534024,1.9928741249955493,1.1719298245614034,0,0.05
1757391141.9054804,0.321,-0.104,9.815,0.3625908575791728,1.9689794675569179,1.1724812030075187,0,0.05
1757391141.9329093,0.321,-0.104,9.815,0.3625908575791728,1.9689794675569179,1.1724812030075187,0,0.05
1757391141.9605296,0.343,-0.017,9.659,0.3629962155450109,2.036265697442176,1.1735839598997493,0,0.05
1757391141.987656,0.343,-0.017,9.659,0.3629962155450109,2.036265697442176,1.1735839598997493,0,0.05
1757391142.0147295,0.301,-0.185,9.709,0.3633080717517848,2.0840544882026935,1.1756892230576441,0,0.05
1757391142.0420568,0.301,-0.185,9.709,0.3633080717517848,2.0840544882026935,1.1756892230576441,0,0.05
1757391142.0692227,0.328,-0.155,9.792,0.363678037555198,2.1217559887995185,1.1770426065162904,0,0.05
1757391142.0964894,0.328,-0.155,9.792,0.363678037555198,2.1217559887995185,1.1770426065162904,0,0.05
1757391142.1235406,0.336,-0.123,9.896,0.36406586629344967,2.0707191222069565,1.1774436090225562,0,0.05
1757391142.1517544,0.336,-0.123,9.896,0.36406586629344967,2.0707191222069565,1.1774436090225562,0,0.05
1757391142.1790245,0.234,-0.161,9.953,0.36425381947208185,1.6346532512720877,1.1825563909774435,0,0.05
1757391142.206445,0.234,-0.161,9.953,0.36425381947208185,1.6346532512720877,1.1825563909774435,0,0.05
1757391142.2338142,0.36,-0.189,9.906,0.3646982931136366,2.3504153145701445,1.1888721804511277,0,0.05
1757391142.2612133,0.36,-0.189,9.906,0.3646982931136366,2.3504153145701445,1.1888721804511277,0,0.05
1757391142.2883415,0.328,-0.188,9.974,0.3650668500425641,2.1707212943430747,1.1904761904761902,0,0.05
1757391142.3155112,0.328,-0.188,9.974,0.3650668500425641,2.1707212943430747,1.1904761904761902,0,0.05
1757391142.3425481,0.323,-0.282,9.959,0.3654239011066463,2.4653246909459106,1.1907268170426064,0,0.05
1757391142.3696942,0.323,-0.282,9.959,0.3654239011066463,2.4653246909459106,1.1907268170426064,0,0.05
1757391142.3969166,0.423,-0.173,9.871,0.3660354491029523,2.650800346034617,1.1957393483709273,0,0.05
1757391142.4244137,0.423,-0.173,9.871,0.3660354491029523,2.650800346034617,1.1957393483709273,0,0.05
1757391142.4515102,0.487,-0.156,9.778,0.366844479991181,2.9937609145659376,1.1989473684210525,0,0.05
1757391142.4785368,0.487,-0.156,9.778,0.366844479991181,2.9937609145659376,1.1989473684210525,0,0.05
1757391142.5056784,0.374,-0.192,9.767,0.36732078963761366,2.4646818943868505,1.2046115288220551,0,0.05
1757391142.5327966,0.374,-0.192,9.767,0.36732078963761366,2.4646818943868505,1.2046115288220551,0,0.05
1757391142.5599086,0.235,-0.223,9.817,0.36750867336703774,1.8901042536043562,1.2115789473684209,0,0.05
1757391142.5868518,0.235,-0.223,9.817,0.36750867336703774,1.8901042536043562,1.2115789473684209,0,0.05
1757391142.613858,0.436,-0.31,9.651,0.3681546753743595,3.172764737713646,1.2216541353383457,0,0.05
1757391142.6413453,0.436,-0.31,9.651,0.3681546753743595,3.172764737713646,1.2216541353383457,0,0.05
1757391142.6685271,0.353,-0.233,9.617,0.3685775189834562,2.5182913475759854,1.2258145363408521,0,0.05
1757391142.6959152,0.353,-0.233,9.617,0.3685775189834562,2.5182913475759854,1.2258145363408521,0,0.05
1757391142.7229655,0.402,-0.327,9.555,0.36912517863185657,3.104313122919977,1.2282706766917293,0,0.05
1757391142.7500691,0.402,-0.327,9.555,0.36912517863185657,3.104313122919977,1.2282706766917293,0,0.05
1757391142.7772183,0.442,-0.34,9.653,0.36978616456000624,3.306229279870367,1.2302756892230577,0,0.05
1757391142.804394,0.442,-0.34,9.653,0.36978616456000624,3.306229279870367,1.2302756892230577,0,0.05
1757391142.831487,0.427,-0.407,9.751,0.3704019843359374,3.4619469021227576,1.2310275689223058,0,0.05
1757391142.8586094,0.427,-0.407,9.751,0.3704019843359374,3.4619469021227576,1.2310275689223058,0,0.05
1757391142.8859603,0.504,-0.375,9.673,0.3712582254981026,3.715806402839459,1.2348872180451127,0,0.05
1757391142.9137619,0.504,-0.375,9.673,0.3712582254981026,3.715806402839459,1.2348872180451127,0,0.05
1757391142.9409575,0.445,-0.279,9.641,0.37192436395052153,3.11831897757985,1.2378446115288222,0,0.05
1757391142.9684315,0.445,-0.279,9.641,0.37192436395052153,3.11831897757985,1.2378446115288222,0,0.05
1757391142.9958322,0.574,-0.257,9.656,0.37303005575958625,3.726484902635178,1.244310776942356,0,0.05
1757391143.0229642,0.574,-0.257,9.656,0.37303005575958625,3.726484902635178,1.244310776942356,0,0.05
1757391143.050197,0.412,-0.268,9.709,0.37359842411337874,2.897992531889937,1.2524310776942356,0,0.05
1757391143.0774567,0.412,-0.268,9.709,0.37359842411337874,2.897992531889937,1.2524310776942356,0,0.05
1757391143.1045861,0.494,-0.277,9.686,0.374414038866066,3.3463968054560094,1.2565413533834586,0,0.05
1757391143.132111,0.494,-0.277,9.686,0.374414038866066,3.3463968054560094,1.2565413533834586,0,0.05
1757391143.159533,0.458,-0.295,9.877,0.3751136927652735,3.1570513424005173,1.2583458646616543,0,0.05
1757391143.187117,0.458,-0.295,9.877,0.3751136927652735,3.1570513424005173,1.2583458646616543,0,0.05
1757391143.2142825,0.508,-0.442,9.828,0.37597266190509115,3.919525098815732,1.2608521303258147,0,0.05
1757391143.241462,0.508,-0.442,9.828,0.37597266190509115,3.919525098815732,1.2608521303258147,0,0.05
1757391143.2686446,0.446,-0.442,9.858,0.3766334192553816,3.6446000918367973,1.2639598997493735,0,0.05
1757391143.295833,0.446,-0.442,9.858,0.3766334192553816,3.6446000918367973,1.2639598997493735,0,0.05
1757391143.3229582,0.403,-0.433,10.026,0.37717204960070944,3.3764670437358624,1.2661152882205515,0,0.05
1757391143.3503559,0.403,-0.433,10.026,0.37717204960070944,3.3764670437358624,1.2661152882205515,0,0.05
1757391143.3777633,0.466,-0.284,9.9,0.37789104911336546,3.155144339603014,1.2692731829573936,0,0.05
1757391143.4051082,0.466,-0.284,9.9,0.37789104911336546,3.155144339603014,1.2692731829573936,0,0.05
1757391143.432555,0.406,-0.257,9.904,0.37843590606600747,2.7775984166285532,1.272280701754386,0,0.05
1757391143.4599686,0.406,-0.257,9.904,0.37843590606600747,2.7775984166285532,1.272280701754386,0,0.05
1757391143.4871483,0.332,-0.265,9.973,0.37879980860607626,2.438998967218273,1.2759899749373433,0,0.05
1757391143.5145664,0.332,-0.265,9.973,0.37879980860607626,2.438998967218273,1.2759899749373433,0,0.05
1757391143.5421925,0.463,-0.213,10.047,0.37950654473934964,2.9039015688446868,1.2825563909774436,0,0.05
1757391143.5695982,0.511,-0.234,9.86,0.3803656398782624,3.262383591832544,1.2849624060150378,0,0.05
1757391143.5971103,0.511,-0.234,9.86,0.3803656398782624,3.262383591832544,1.2849624060150378,0,0.05
1757391143.6242516,0.442,-0.418,9.921,0.3810071259176132,3.508942452678812,1.2884210526315791,0,0.05
1757391143.6520698,0.442,-0.418,9.921,0.3810071259176132,3.508942452678812,1.2884210526315791,0,0.05
1757391143.6793725,0.448,-0.278,10.016,0.38166502328612717,3.0132882474891,1.2887218045112783,0,0.05
1757391143.7066104,0.448,-0.278,10.016,0.38166502328612717,3.0132882474891,1.2887218045112783,0,0.05
1757391143.734109,0.501,-0.214,9.981,0.3824861990974315,3.1242630388953336,1.2913784461152882,0,0.05
1757391143.7614226,0.501,-0.214,9.981,0.3824861990974315,3.1242630388953336,1.2913784461152882,0,0.05
1757391143.788738,0.418,-0.235,9.981,0.3830567875654992,2.750619511699597,1.2955388471177947,0,0.05
1757391143.8163073,0.418,-0.235,9.981,0.3830567875654992,2.750619511699597,1.2955388471177947,0,0.05
1757391143.8437932,0.478,-0.328,10.025,0.3838016577608805,3.309546192328423,1.2985463659147867,0,0.05
1757391143.8709624,0.478,-0.328,10.025,0.3838016577608805,3.309546192328423,1.2985463659147867,0,0.05
1757391143.898114,0.424,-0.278,9.985,0.38438672258547124,2.9068256233248135,1.3012531328320802,0,0.05
1757391143.9253097,0.424,-0.278,9.985,0.38438672258547124,2.9068256233248135,1.3012531328320802,0,0.05
1757391143.9527888,0.427,-0.206,9.956,0.3849791877491561,2.7263031531740296,1.3014035087719298,0,0.05
1757391143.980116,0.427,-0.206,9.956,0.3849791877491561,2.7263031531740296,1.3014035087719298,0,0.05
1757391144.007599,0.264,-0.146,9.963,0.3852054192246003,1.7343995416831801,1.3095739348370927,0,0.05
1757391144.035356,0.264,-0.146,9.963,0.3852054192246003,1.7343995416831801,1.3095739348370927,0,0.05
1757391144.0628529,0.344,-0.086,9.807,0.38558923091808467,2.0707145060379086,1.3135839598997494,0,0.05
1757391144.090631,0.344,-0.086,9.807,0.38558923091808467,2.0707145060379086,1.3135839598997494,0,0.05
1757391144.1180658,0.354,-0.182,9.885,0.385995265515006,2.3059177225952143,1.3140852130325815,0,0.05
1757391144.1458194,0.354,-0.182,9.885,0.385995265515006,2.3059177225952143,1.3140852130325815,0,0.05
1757391144.1735168,0.268,-0.297,9.885,0.3862277890054003,2.317468324733289,1.3183959899749373,0,0.05
1757391144.201331,0.268,-0.297,9.885,0.3862277890054003,2.317468324733289,1.3183959899749373,0,0.05
1757391144.2290184,0.146,-0.149,9.76,0.3862967706310784,1.2244362207771,1.3245112781954889,0,0.05
1757391144.2568014,0.146,-0.149,9.76,0.3862967706310784,1.2244362207771,1.3245112781954889,0,0.05
1757391144.2844124,0.276,-0.193,9.703,0.38654318646174585,1.987909827166108,1.3310275689223057,0,0.05
1757391144.3120193,0.276,-0.193,9.703,0.38654318646174585,1.987909827166108,1.3310275689223057,0,0.05
1757391144.3393886,0.276,-0.193,9.703,0.38654318646174585,1.987909827166108,1.3310275689223057,0,0.05
1757391144.3669279,0.287,-0.257,9.666,0.3868094589070955,2.2823872115096773,1.331578947368421,0,0.05
1757391144.394427,0.267,-0.276,9.649,0.3870397653988541,2.279059531663357,1.3325814536340854,0,0.05
1757391144.4220097,0.267,-0.276,9.649,0.3870397653988541,2.279059531663357,1.3325814536340854,0,0.05
1757391144.4495013,0.213,-0.264,9.726,0.3871862633152163,1.9974871290172873,1.3352882205513783,0,0.05
1757391144.477326,0.213,-0.264,9.726,0.3871862633152163,1.9974871290172873,1.3352882205513783,0,0.05
1757391144.504802,0.345,-0.142,9.678,0.38757033555214204,2.2076208263540096,1.3419047619047617,0,0.05
1757391144.5328248,0.345,-0.142,9.678,0.38757033555214204,2.2076208263540096,1.3419047619047617,0,0.05
1757391144.5603857,0.228,-0.19,9.701,0.3877379591940928,1.7523433333841318,1.3477694235588973,0,0.05
1757391144.5886219,0.228,-0.19,9.701,0.3877379591940928,1.7523433333841318,1.3477694235588973,0,0.05
1757391144.6159286,0.283,-0.292,9.782,0.38799606634603917,2.380406016580028,1.3505263157894738,0,0.05
1757391144.643308,0.283,-0.292,9.782,0.38799606634603917,2.380406016580028,1.3505263157894738,0,0.05
1757391144.6707551,0.199,-0.358,9.977,0.3881236272117429,2.350874975474754,1.3547368421052635,0,0.05
1757391144.6982837,0.199,-0.358,9.977,0.3881236272117429,2.350874975474754,1.3547368421052635,0,0.05
1757391144.7258515,0.305,-0.189,9.752,0.3884231101518034,2.107171812638766,1.3600501253132835,0,0.05
1757391144.7541337,0.305,-0.189,9.752,0.3884231101518034,2.107171812638766,1.3600501253132835,0,0.05
1757391144.7826514,0.311,-0.248,9.764,0.38873424726926237,2.3328796021557383,1.3603508771929824,0,0.05
1757391144.8105187,0.311,-0.248,9.764,0.38873424726926237,2.3328796021557383,1.3603508771929824,0,0.05
1757391144.8384664,0.281,-0.3,9.81,0.3889880685830865,2.3993460604929315,1.3618546365914788,0,0.05
1757391144.8666093,0.281,-0.3,9.81,0.3889880685830865,2.3993460604929315,1.3618546365914788,0,0.05
1757391144.894033,0.283,-0.093,9.664,0.3892453467929964,1.7655622578627632,1.3619548872180454,0,0.05
1757391144.921193,0.477,-0.094,9.64,0.3899753357585579,2.887150218226642,1.3716791979949874,0,0.05
1757391144.9489121,0.477,-0.094,9.64,0.3899753357585579,2.887150218226642,1.3716791979949874,0,0.05
1757391144.9765992,0.353,-0.248,9.69,0.3903745445082197,2.5491800770262145,1.3778947368421053,0,0.05
1757391145.0044408,0.353,-0.248,9.69,0.3903745445082197,2.5491800770262145,1.3778947368421053,0,0.05
1757391145.03271,0.282,-0.277,9.683,0.39062910157846664,2.337684000365035,1.3814536340852128,0,0.05
1757391145.060639,0.282,-0.277,9.683,0.39062910157846664,2.337684000365035,1.3814536340852128,0,0.05
1757391145.0886042,0.385,-0.279,9.53,0.3911031289826253,2.856192042301819,1.3866165413533835,0,0.05
1757391145.1151922,0.385,-0.279,9.53,0.3911031289826253,2.856192042301819,1.3866165413533835,0,0.05
1757391145.1427412,0.326,-0.304,9.622,0.39144264905602716,2.6523881530142397,1.3895739348370926,0,0.05
1757391145.1710851,0.326,-0.304,9.622,0.39144264905602716,2.6523881530142397,1.3895739348370926,0,0.05
1757391145.1984637,0.416,-0.31,9.552,0.39199488198189525,3.108879194955799,1.3940852130325814,0,0.05
1757391145.2259567,0.416,-0.31,9.552,0.39199488198189525,3.108879194955799,1.3940852130325814,0,0.05
1757391145.2534273,0.322,-0.256,9.639,0.39232537198096173,2.4437289927332717,1.398796992481203,0,0.05
1757391145.2809439,0.322,-0.256,9.639,0.39232537198096173,2.4437289927332717,1.398796992481203,0,0.05
1757391145.3084736,0.388,-0.322,9.724,0.39280473202343175,2.9682508727531833,1.402105263157895,0,0.05
1757391145.3357265,0.388,-0.322,9.724,0.39280473202343175,2.9682508727531833,1.402105263157895,0,0.05
1757391145.363086,0.155,-0.244,9.802,0.39288117796606137,1.689210968074173,1.4137844611528823,0,0.05
1757391145.3905091,0.155,-0.244,9.802,0.39288117796606137,1.689210968074173,1.4137844611528823,0,0.05
1757391145.4178364,0.39,-0.285,9.726,0.3933648052380894,2.843232098968302,1.425563909774436,0,0.05
1757391145.4453316,0.39,-0.285,9.726,0.3933648052380894,2.843232098968302,1.425563909774436,0,0.05
1757391145.4728327,0.333,-0.348,9.682,0.3937170208411112,2.8479811495106713,1.428421052631579,0,0.05
1757391145.5005348,0.333,-0.348,9.682,0.3937170208411112,2.8479811495106713,1.428421052631579,0,0.05
1757391145.5281467,0.373,-0.475,9.773,0.39415848969672085,3.536248921312765,1.4304260651629073,0,0.05
1757391145.5555384,0.373,-0.475,9.773,0.39415848969672085,3.536248921312765,1.4304260651629073,0,0.05
1757391145.5836952,0.431,-0.408,9.899,0.3947471564178772,3.4310089407115116,1.4333333333333333,0,0.05
1757391145.6111176,0.431,-0.408,9.899,0.3947471564178772,3.4310089407115116,1.4333333333333333,0,0.05
1757391145.6388278,0.468,-0.46,9.841,0.39544010608434754,3.814960572615659,1.435187969924812,0,0.05
1757391145.667091,0.468,-0.46,9.841,0.39544010608434754,3.814960572615659,1.435187969924812,0,0.05
1757391145.6943886,0.506,-0.516,9.771,0.396248618294121,4.230096023053986,1.4370927318295739,0,0.05
1757391145.7216196,0.506,-0.516,9.771,0.396248618294121,4.230096023053986,1.4370927318295739,0,0.05
1757391145.7487764,0.453,-0.601,9.974,0.39689543963114515,4.315156074045064,1.439749373433584,0,0.05
1757391145.775867,0.453,-0.601,9.974,0.39689543963114515,4.315156074045064,1.439749373433584,0,0.05
1757391145.8031073,0.504,-0.529,9.822,0.39769464416811046,4.254377129905976,1.4423057644110275,0,0.05
1757391145.8302567,0.504,-0.529,9.822,0.39769464416811046,4.254377129905976,1.4423057644110275,0,0.05
1757391145.8574762,0.491,-0.552,9.785,0.3984516689637527,4.317669783832137,1.4429573934837092,0,0.05
1757391145.8848352,0.491,-0.552,9.785,0.3984516689637527,4.317669783832137,1.4429573934837092,0,0.05
1757391145.9122326,0.577,-0.449,9.763,0.3994947496526081,4.2826789124237825,1.447268170426065,0,0.05
1757391145.9396362,0.577,-0.449,9.763,0.3994947496526081,4.2826789124237825,1.447268170426065,0,0.05
1757391145.967062,0.493,-0.375,9.869,0.40025451590206945,3.591380095340499,1.451478696741855,0,0.05
1757391145.9949832,0.493,-0.375,9.869,0.40025451590206945,3.591380095340499,1.451478696741855,0,0.05
1757391146.0225372,0.41,-0.62,9.919,0.4007791505305634,4.2855830214333945,1.4556390977443607,0,0.05
1757391146.0498958,0.41,-0.62,9.919,0.4007791505305634,4.2855830214333945,1.4556390977443607,0,0.05
1757391146.0772016,0.506,-0.257,9.637,0.40157691355455183,3.370270218734559,1.4604511278195489,0,0.4
1757391146.1050308,0.506,-0.257,9.637,0.40157691355455183,3.370270218734559,1.4604511278195489,0,0.4
1757391146.1325226,0.51,-0.305,9.703,0.4023857198012872,3.50460228321499,1.4606516290726816,0,0.4
1757391146.1598237,0.51,-0.305,9.703,0.4023857198012872,3.50460228321499,1.4606516290726816,0,0.4
1757391146.1871173,0.327,-0.541,9.658,0.4027177547613216,3.744851176568804,1.4698245614035088,0,0.4
1757391146.2147765,0.35,-0.533,9.64,0.40309780450902977,3.7843494108698104,1.4709774436090228,0,0.4
1757391146.242202,0.35,-0.533,9.64,0.40309780450902977,3.7843494108698104,1.4709774436090228,0,0.4
1757391146.26965,0.35,-0.533,9.64,0.40309780450902977,3.7843494108698104,1.4709774436090228,0,0.4
1757391146.296988,0.46,-0.421,9.649,0.4037534396138317,3.6976247903234936,1.4764912280701754,0,0.4
1757391146.325201,0.279,-0.408,9.819,0.4039943594903276,2.8817421951810718,1.4855639097744362,0,0.4
1757391146.3530936,0.279,-0.408,9.819,0.4039943594903276,2.8817421951810718,1.4855639097744362,0,0.4
1757391146.3805664,0.487,-0.432,9.643,0.40472751944981455,3.8621477545015956,1.4959899749373433,0,0.4
1757391146.40819,0.487,-0.432,9.643,0.40472751944981455,3.8621477545015956,1.4959899749373433,0,0.4
1757391146.4355073,0.317,-0.346,9.699,0.4050377605853558,2.7699423593526116,1.5045112781954888,0,0.4
1757391146.4630408,0.317,-0.346,9.699,0.4050377605853558,2.7699423593526116,1.5045112781954888,0,0.4
1757391146.4907715,0.234,-0.263,9.823,0.4052067095940047,2.0524478557420474,1.508671679197995,0,0.4
1757391146.5208805,0.234,-0.263,9.823,0.4052067095940047,2.0524478557420474,1.508671679197995,0,0.4
1757391146.5469663,0.461,-0.363,9.827,0.4058617744996441,3.417028195772613,1.5200501253132832,0,0.4
1757391146.5747113,0.461,-0.363,9.827,0.4058617744996441,3.417028195772613,1.5200501253132832,0,0.4
1757391146.6023064,0.245,-0.354,9.879,0.4060466013895449,2.495288140392662,1.530877192982456,0,0.4
1757391146.6304405,0.245,-0.354,9.879,0.4060466013895449,2.495288140392662,1.530877192982456,0,0.4
1757391146.657903,0.327,-0.29,9.902,0.40637564518558444,2.527362606397986,1.5349874686716793,0,0.4
1757391146.6857433,0.327,-0.29,9.902,0.40637564518558444,2.527362606397986,1.5349874686716793,0,0.4
1757391146.7131422,0.141,-0.149,9.931,0.4064367939790885,1.1833578021771813,1.5443107769423559,0,0.4
1757391146.7409441,0.141,-0.149,9.931,0.4064367939790885,1.1833578021771813,1.5443107769423559,0,0.4
1757391146.7683606,0.338,-0.293,9.919,0.4067880006834027,2.582120672302091,1.5541854636591477,0,0.4
1757391146.7962265,0.338,-0.293,9.919,0.4067880006834027,2.582120672302091,1.5541854636591477,0,0.4
1757391146.8237736,0.338,-0.293,9.919,0.4067880006834027,2.582120672302091,1.5541854636591477,0,0.4
1757391146.8512805,0.343,-0.258,9.859,0.40714935834408483,2.492733042473778,1.554436090225564,0,0.4
1757391146.8791454,0.245,-0.24,9.819,0.40733360099554766,2.00045445757505,1.5593483709273182,0,0.4
1757391146.9074483,0.245,-0.24,9.819,0.40733360099554766,2.00045445757505,1.5593483709273182,0,0.4
1757391146.9357624,0.371,-0.447,9.904,0.4077557663602074,3.3567533635018876,1.5656641604010024,0,0.4
1757391146.9633667,0.371,-0.447,9.904,0.4077557663602074,3.3567533635018876,1.5656641604010024,0,0.4
1757391146.9905546,0.325,-0.557,9.8,0.4080794377324102,3.764885317053204,1.5679699248120298,0,0.4
1757391147.0159702,0.325,-0.557,9.8,0.4080794377324102,3.764885317053204,1.5679699248120298,0,0.4
1757391147.0438225,0.274,-0.496,9.706,0.4083093404515748,3.3412148328921414,1.5705263157894735,0,0.4
1757391147.070007,0.274,-0.496,9.706,0.4083093404515748,3.3412148328921414,1.5705263157894735,0,0.4
1757391147.0962403,0.365,-0.396,9.828,0.40871699255108046,3.1365559838925954,1.5750877192982458,0,0.4
1757391147.123652,0.365,-0.396,9.828,0.40871699255108046,3.1365559838925954,1.5750877192982458,0,0.4
1757391147.150844,0.377,-0.404,9.676,0.4091514420113902,3.26851674654933,1.5756892230576443,0,0.4
1757391147.178608,0.377,-0.404,9.676,0.4091514420113902,3.26851674654933,1.5756892230576443,0,0.4
1757391147.2058558,0.291,-0.405,9.625,0.4094100694902362,2.966038859601672,1.5800000000000003,0,0.4
1757391147.2332175,0.291,-0.405,9.625,0.4094100694902362,2.966038859601672,1.5800000000000003,0,0.4
1757391147.2606893,0.395,-0.342,9.689,0.40988616407485623,3.0867098703054494,1.5852130325814537,0,0.4
1757391147.2882748,0.395,-0.342,9.689,0.40988616407485623,3.0867098703054494,1.5852130325814537,0,0.4
1757391147.3156407,0.33,-0.299,9.712,0.4102181340457781,2.6252601098616855,1.5884711779448621,0,0.4
1757391147.3433657,0.33,-0.299,9.712,0.4102181340457781,2.6252601098616855,1.5884711779448621,0,0.4
1757391147.3706038,0.285,-0.459,9.706,0.41046556493815656,3.186074248163715,1.5907268170426065,0,0.4
1757391147.3984635,0.285,-0.459,9.706,0.41046556493815656,3.186074248163715,1.5907268170426065,0,0.4
1757391147.4260771,0.3,-0.126,9.689,0.4107395525147292,1.9234426876864106,1.5914786967418546,0,0.4
1757391147.45334,0.3,-0.126,9.689,0.4107395525147292,1.9234426876864106,1.5914786967418546,0,0.4
1757391147.4818828,0.404,-0.243,9.794,0.4112359663259039,2.755896921670252,1.5966917293233083,0,0.4
1757391147.5100274,0.404,-0.243,9.794,0.4112359663259039,2.755896921670252,1.5966917293233083,0,0.4
1757391147.5374842,0.307,-0.34,9.717,0.41152234750982836,2.699121600316333,1.6015538847117794,0,0.4
1757391147.565139,0.307,-0.34,9.717,0.41152234750982836,2.699121600316333,1.6015538847117794,0,0.4
1757391147.593357,0.282,-0.356,9.739,0.41176383097596125,2.6699385068600012,1.6028070175438596,0,0.4
1757391147.620711,0.425,-0.349,9.779,0.4123117934282259,3.2187004201345255,1.6099749373433587,0,0.4
1757391147.64831,0.425,-0.349,9.779,0.4123117934282259,3.2187004201345255,1.6099749373433587,0,0.4
1757391147.6756942,0.332,-0.448,9.787,0.4126458227099846,3.260871617335465,1.6146365914786969,0,0.4
1757391147.702899,0.332,-0.448,9.787,0.4126458227099846,3.260871617335465,1.6146365914786969,0,0.4
1757391147.73049,0.318,-0.426,9.789,0.41295203716654555,3.1084507828258734,1.6153383458646615,0,0.4
1757391147.7585952,0.318,-0.426,9.789,0.41295203716654555,3.1084507828258734,1.6153383458646615,0,0.4
1757391147.7862153,0.405,-0.442,9.788,0.4134482404122673,3.504845615075059,1.6196992481203007,0,0.4
1757391147.8142283,0.405,-0.442,9.788,0.4134482404122673,3.504845615075059,1.6196992481203007,0,0.4
1757391147.8418267,0.39,-0.426,9.737,0.4139078369637376,3.394581936763726,1.620451127819549,0,0.4
1757391147.86935,0.39,-0.426,9.737,0.4139078369637376,3.394581936763726,1.620451127819549,0,0.4
1757391147.8967795,0.296,-0.422,9.766,0.41417235240899414,3.0213350037178013,1.6251629072681706,0,0.4
1757391147.924492,0.296,-0.422,9.766,0.41417235240899414,3.0213350037178013,1.6251629072681706,0,0.4
1757391147.9519582,0.462,-0.437,9.782,0.4148160405529178,3.7196049113523295,1.6195989974937344,0,0.4
1757391147.9796937,0.462,-0.437,9.782,0.4148160405529178,3.7196049113523295,1.6195989974937344,0,0.4
1757391148.0078278,0.321,-0.371,9.726,0.4148953211353437,2.8876346709284806,1.6266165413533835,0,0.4
1757391148.0363295,0.321,-0.371,9.726,0.4148953211353437,2.8876346709284806,1.6266165413533835,0,0.4
1757391148.0644383,0.312,-0.337,9.693,0.4149557536653758,2.71263546163345,1.6267167919799497,0,0.4
1757391148.0919087,0.312,-0.337,9.693,0.4149557536653758,2.71263546163345,1.6267167919799497,0,0.4
1757391148.1201694,0.364,-0.404,9.73,0.415110172123016,3.1988413588453133,1.6292731829573932,0,0.4
1757391148.1481748,0.364,-0.404,9.73,0.415110172123016,3.1988413588453133,1.6292731829573932,0,0.4
1757391148.1759627,0.371,-0.15,9.641,0.4152783012631409,2.376854457488988,1.629172932330827,0,0.4
1757391148.204076,0.371,-0.15,9.641,0.4152783012631409,2.376854457488988,1.629172932330827,0,0.4
1757391148.2319956,0.501,-0.119,9.575,0.41577158091913885,3.0783735765644487,1.6353383458646618,0,0.4
1757391148.2598917,0.501,-0.119,9.575,0.41577158091913885,3.0783735765644487,1.6353383458646618,0,0.4
1757391148.287288,0.388,-0.178,9.628,0.4159747678645906,2.5386905489299174,1.6403508771929824,0,0.4
1757391148.3145382,0.388,-0.178,9.628,0.4159747678645906,2.5386905489299174,1.6403508771929824,0,0.4
1757391148.342451,0.457,-0.179,9.631,0.4163299502798231,2.91732692322859,1.6431077694235587,0,0.4
1757391148.370497,0.457,-0.179,9.631,0.4163299502798231,2.91732692322859,1.6431077694235587,0,0.4
1757391148.3986523,0.382,-0.227,9.517,0.41647013698463425,2.673247298639472,1.6462155388471178,0,0.4
1757391148.4267437,0.382,-0.227,9.517,0.41647013698463425,2.673247298639472,1.6462155388471178,0,0.4
1757391148.4542332,0.432,-0.082,9.58,0.41670730135192013,2.6279812552026898,1.6485714285714286,0,0.4
1757391148.482039,0.432,-0.082,9.58,0.41670730135192013,2.6279812552026898,1.6485714285714286,0,0.4
1757391148.5097504,0.424,-0.078,9.557,0.4169296733263297,2.5828530058456054,1.6485213032581454,0,0.4
1757391148.5375128,0.414,-0.202,9.543,0.4171090414987429,2.7635887824617247,1.6489724310776943,0,0.4
1757391148.5653877,0.414,-0.202,9.543,0.4171090414987429,2.7635887824617247,1.6489724310776943,0,0.4
1757391148.593177,0.462,-0.19,9.45,0.4174162670524473,3.025940282471764,1.651127819548872,0,0.4
1757391148.621334,0.462,-0.19,9.45,0.4174162670524473,3.025940282471764,1.651127819548872,0,0.4
1757391148.648924,0.473,-0.214,9.62,0.4177639315450773,3.0890576099629787,1.6512280701754385,0,0.4
1757391148.67655,0.473,-0.214,9.62,0.4177639315450773,3.0890576099629787,1.6512280701754385,0,0.4
1757391148.704057,0.468,-0.219,9.654,0.41807934653603734,3.063688325373284,1.6509774436090225,0,0.4
1757391148.731589,0.468,-0.219,9.654,0.41807934653603734,3.063688325373284,1.6509774436090225,0,0.4
1757391148.7594004,0.404,-0.33,9.765,0.4182073140202118,3.057840421948769,1.6531829573934838,0,0.4
1757391148.786975,0.404,-0.33,9.765,0.4182073140202118,3.057840421948769,1.6531829573934838,0,0.4
1757391148.8147097,0.404,-0.33,9.765,0.4182073140202118,3.057840421948769,1.6531829573934838,0,0.4
1757391148.8424485,0.397,-0.283,9.808,0.4182758151029055,2.845755699073261,1.6525814536340853,0,0.4
1757391148.8702955,0.448,-0.222,9.83,0.4184303137919144,2.9117534227236472,1.6543358395989973,0,0.4
1757391148.8982182,0.448,-0.222,9.83,0.4184303137919144,2.9117534227236472,1.6543358395989973,0,0.4
1757391148.925835,0.379,-0.185,9.737,0.4183766484879385,2.480119272706419,1.6567418546365913,0,0.4
1757391148.9536824,0.379,-0.185,9.737,0.4183766484879385,2.480119272706419,1.6567418546365913,0,0.4
1757391148.9814024,0.463,-0.141,9.834,0.41848252054297325,2.817616870468704,1.6605513784461152,0,0.4
1757391149.0092947,0.463,-0.141,9.834,0.41848252054297325,2.817616870468704,1.6605513784461152,0,0.4
1757391149.036982,0.455,0.02,9.747,0.41854603092133125,2.6752627659898525,1.6603508771929825,0,0.4
1757391149.0652654,0.455,0.02,9.747,0.41854603092133125,2.6752627659898525,1.6603508771929825,0,0.4
1757391149.0929193,0.513,-0.038,9.801,0.418745841770399,3.0044122676465475,1.6626566416040096,0,0.4
1757391149.120691,0.513,-0.038,9.801,0.418745841770399,3.0044122676465475,1.6626566416040096,0,0.4
1757391149.1483617,0.342,-0.094,9.913,0.41847691393910846,2.0491446887796645,1.6704260651629073,0,0.4
1757391149.1762128,0.342,-0.094,9.913,0.41847691393910846,2.0491446887796645,1.6704260651629073,0,0.4
1757391149.2038586,0.43,-0.005,9.718,0.41836655578571286,2.5337299384026504,1.6746867167919801,0,0.4
1757391149.2315507,0.43,-0.005,9.718,0.41836655578571286,2.5337299384026504,1.6746867167919801,0,0.4
1757391149.2591877,0.48,-0.104,9.812,0.41838365766363295,2.8655357849870366,1.6762907268170424,0,0.4
1757391149.2870717,0.48,-0.104,9.812,0.41838365766363295,2.8655357849870366,1.6762907268170424,0,0.4
1757391149.3150315,0.447,-0.079,9.713,0.4183593760154062,2.6757139073196665,1.6777443609022555,0,0.4
1757391149.3429961,0.447,-0.079,9.713,0.4183593760154062,2.6757139073196665,1.6777443609022555,0,0.4
1757391149.3705301,0.494,-0.153,9.751,0.4184780729022729,3.0358759444623726,1.6798496240601504,0,0.4
1757391149.397884,0.494,-0.153,9.751,0.4184780729022729,3.0358759444623726,1.6798496240601504,0,0.4
1757391149.4250927,0.417,-0.278,9.716,0.4183736338489795,2.9528192842480574,1.683458646616541,0,0.4
1757391149.4534712,0.417,-0.278,9.716,0.4183736338489795,2.9528192842480574,1.683458646616541,0,0.4
1757391149.4812906,0.266,-0.28,9.593,0.41794709892521087,2.305441361552785,1.6907769423558894,0,0.4
1757391149.508967,0.319,-0.214,9.552,0.41762669634495353,2.3028957235632888,1.6932330827067668,0,0.4
1757391149.5365527,0.319,-0.214,9.552,0.41762669634495353,2.3028957235632888,1.6932330827067668,0,0.4
1757391149.5643198,0.319,-0.214,9.552,0.41762669634495353,2.3028957235632888,1.6932330827067668,0,0.4
1757391149.5918722,0.416,-0.175,9.44,0.4175304479915208,2.7371294997840683,1.6975939849624058,0,0.4
1757391149.6197999,0.288,-0.206,9.516,0.41719109829908885,2.13099294958874,1.7032080200501252,0,0.4
1757391149.6475594,0.288,-0.206,9.516,0.41719109829908885,2.13099294958874,1.7032080200501252,0,0.4
1757391149.675378,0.334,-0.258,9.61,0.4169789922765894,2.514644590491619,1.7052130325814534,0,0.4
1757391149.70385,0.334,-0.258,9.61,0.4169789922765894,2.514644590491619,1.7052130325814534,0,0.4
1757391149.7318487,0.27,-0.152,9.557,0.41666608633292923,1.8569218082674204,1.7077694235588972,0,0.4
1757391149.7594318,0.27,-0.152,9.557,0.41666608633292923,1.8569218082674204,1.7077694235588972,0,0.4
1757391149.787925,0.233,-0.247,9.732,0.4163294248548858,1.9982751226216828,1.7093233082706767,0,0.4
1757391149.8155093,0.233,-0.247,9.732,0.4163294248548858,1.9982751226216828,1.7093233082706767,0,0.4
1757391149.843653,0.156,-0.198,9.738,0.4159170830826741,1.4827894788357996,1.7123809523809523,0,0.4
1757391149.8711078,0.156,-0.198,9.738,0.4159170830826741,1.4827894788357996,1.7123809523809523,0,0.4
1757391149.8988352,0.21,-0.323,9.69,0.41560170836992477,2.276824476217425,1.7142857142857142,0,0.4
1757391149.9263382,0.21,-0.323,9.69,0.41560170836992477,2.276824476217425,1.7142857142857142,0,0.4
1757391149.9536083,0.332,-0.321,9.773,0.41552146755613,2.7054007007832186,1.720250626566416,0,0.4
1757391149.9811938,0.332,-0.321,9.773,0.41552146755613,2.7054007007832186,1.720250626566416,0,0.4
1757391150.0086544,0.332,-0.321,9.773,0.41552146755613,2.7054007007832186,1.720250626566416,0,0.4
1757391150.036146,0.284,-0.249,9.689,0.41535888999755377,2.2323915862417674,1.7222556390977446,0,0.4
1757391150.063806,0.269,-0.284,9.711,0.41518876128816395,2.306714200677695,1.7229072681704263,0,0.4
1757391150.0913334,0.269,-0.284,9.711,0.41518876128816395,2.306714200677695,1.7229072681704263,0,0.4
1757391150.1188238,0.311,-0.482,9.793,0.41508759015417457,3.3522667628722838,1.7239598997493735,0,0.4
1757391150.1464298,0.311,-0.482,9.793,0.41508759015417457,3.3522667628722838,1.7239598997493735,0,0.4
1757391150.1739247,0.356,-0.452,9.718,0.41512112389036526,3.3882800414472345,1.7258145363408521,0,0.4
1757391150.20165,0.356,-0.452,9.718,0.41512112389036526,3.3882800414472345,1.7258145363408521,0,0.4
1757391150.2293,0.41,-0.455,9.722,0.4152953617607593,3.604802334379565,1.728471177944862,0,0.4
1757391150.2573037,0.41,-0.455,9.722,0.4152953617607593,3.604802334379565,1.728471177944862,0,0.4
1757391150.2861075,0.322,-0.335,9.755,0.4152736748217975,2.727109627626385,1.7317293233082707,0,0.4
1757391150.311486,0.322,-0.335,9.755,0.4152736748217975,2.727109627626385,1.7317293233082707,0,0.4
1757391150.3391068,0.42,-0.341,9.727,0.41551531259389224,3.1834187114465067,1.7361904761904763,0,0.4
1757391150.3662102,0.42,-0.341,9.727,0.41551531259389224,3.1834187114465067,1.7361904761904763,0,0.4
1757391150.3934608,0.401,-0.307,9.659,0.41572644250757007,2.993007778057272,1.7364912280701759,0,0.4
1757391150.4214454,0.401,-0.307,9.659,0.41572644250757007,2.993007778057272,1.7364912280701759,0,0.4
1757391150.4496615,0.304,-0.34,9.732,0.4157549217988886,2.6831889527460002,1.7409022556390978,0,0.4
1757391150.4774618,0.304,-0.34,9.732,0.4157549217988886,2.6831889527460002,1.7409022556390978,0,0.4
1757391150.5055234,0.369,-0.316,9.791,0.4159302285239677,2.8406072585713202,1.7440100250626567,0,0.4
1757391150.5336435,0.369,-0.316,9.791,0.4159302285239677,2.8406072585713202,1.7440100250626567,0,0.4
1757391150.5612416,0.387,-0.331,9.816,0.41615133965902357,2.9697869291419794,1.7447117794486218,0,0.4
1757391150.5886765,0.387,-0.331,9.816,0.41615133965902357,2.9697869291419794,1.7447117794486218,0,0.4
1757391150.6162636,0.34,-0.346,9.849,0.4162630628580922,2.8197162809461793,1.7468170426065164,0,0.4
1757391150.6438026,0.34,-0.346,9.849,0.4162630628580922,2.8197162809461793,1.7468170426065164,0,0.4
1757391150.67113,0.373,-0.375,9.892,0.41643690698592023,3.0606474867575018,1.7483709273182957,0,0.4
1757391150.698471,0.324,-0.298,9.793,0.41651160247945074,2.5737662381162196,1.7507769423558899,0,0.4
1757391150.7263877,0.324,-0.298,9.793,0.41651160247945074,2.5737662381162196,1.7507769423558899,0,0.4
1757391150.7538097,0.324,-0.298,9.793,0.41651160247945074,2.5737662381162196,1.7507769423558899,0,0.4
1757391150.7818732,0.476,-0.377,9.741,0.416949295478479,3.5669500801774072,1.7581453634085213,0,0.4
1757391150.80957,0.471,-0.418,9.791,0.4173637681926883,3.6800607343707195,1.7580952380952382,0,0.4
1757391150.837101,0.471,-0.418,9.791,0.4173637681926883,3.6800607343707195,1.7580952380952382,0,0.4
1757391150.8650424,0.471,-0.418,9.791,0.4173637681926883,3.6800607343707195,1.7580952380952382,0,0.4
1757391150.8929138,0.289,-0.495,9.8,0.4173532736184059,3.3473424965998357,1.7670676691729321,0,0.4
1757391150.9206333,0.48,-0.386,9.792,0.41777714753203055,3.5993639957466494,1.7761904761904763,0,0.4
1757391150.948444,0.48,-0.386,9.792,0.41777714753203055,3.5993639957466494,1.7761904761904763,0,0.4
1757391150.9759097,0.523,-0.484,9.807,0.41834527008202216,4.15588787737268,1.7781453634085214,0,0.4
1757391151.003261,0.523,-0.484,9.807,0.41834527008202216,4.15588787737268,1.7781453634085214,0,0.4
1757391151.0306032,0.41,-0.576,9.682,0.4185909608436379,4.176557976403766,1.7837593984962408,0,0.4
1757391151.0582688,0.41,-0.576,9.682,0.4185909608436379,4.176557976403766,1.7837593984962408,0,0.4
1757391151.0863202,0.48,-0.535,9.597,0.4190241430991775,4.283164874963215,1.7864160401002505,0,0.4
1757391151.1140988,0.48,-0.535,9.597,0.4190241430991775,4.283164874963215,1.7864160401002505,0,0.4
1757391151.1414704,0.426,-0.336,9.752,0.4192805981678618,3.1844152262212506,1.788170426065163,0,0.4
1757391151.1693254,0.426,-0.336,9.752,0.4192805981678618,3.1844152262212506,1.788170426065163,0,0.4
1757391151.1970599,0.465,-0.347,9.717,0.41960436425280423,3.4170716638768615,1.7890726817042608,0,0.4
1757391151.2243268,0.465,-0.347,9.717,0.41960436425280423,3.4170716638768615,1.7890726817042608,0,0.4
1757391151.251612,0.337,-0.357,9.744,0.41957984043564345,2.884317176539475,1.7953383458646617,0,0.4
1757391151.2792244,0.337,-0.357,9.744,0.41957984043564345,2.884317176539475,1.7953383458646617,0,0.4
1757391151.3068151,0.558,-0.439,9.722,0.4201504046172037,4.176847443822523,1.8058646616541352,0,0.4
1757391151.3343034,0.558,-0.439,9.722,0.4201504046172037,4.176847443822523,1.8058646616541352,0,0.4
1757391151.3617628,0.478,-0.504,9.694,0.42045088892758925,4.098516059695419,1.80937343358396,0,0.4
1757391151.3895857,0.478,-0.504,9.694,0.42045088892758925,4.098516059695419,1.80937343358396,0,0.4
1757391151.417371,0.402,-0.47,9.598,0.4205308995781404,3.686887354864476,1.8128822055137843,0,0.4
1757391151.4456832,0.402,-0.47,9.598,0.4205308995781404,3.686887354864476,1.8128822055137843,0,0.4
1757391151.4737,0.61,-0.635,9.616,0.4212228210816693,5.231914393715457,1.8224561403508774,0,0.4
1757391151.5025318,0.61,-0.635,9.616,0.4212228210816693,5.231914393715457,1.8224561403508774,0,0.4
1757391151.5300086,0.496,-0.678,9.541,0.4215014294163188,5.031764220261486,1.8275689223057645,0,0.4
1757391151.5575619,0.496,-0.678,9.541,0.4215014294163188,5.031764220261486,1.8275689223057645,0,0.4
1757391151.5849113,0.46,-0.532,9.532,0.42164967093548167,4.219781506774945,1.8280200501253132,0,0.4
1757391151.612256,0.46,-0.532,9.532,0.42164967093548167,4.219781506774945,1.8280200501253132,0,0.4
1757391151.6395602,0.549,-0.409,9.566,0.42199744667473993,4.093469753692724,1.8031578947368423,0,0.4
1757391151.6669185,0.549,-0.409,9.566,0.42199744667473993,4.093469753692724,1.8031578947368423,0,0.4
1757391151.6942184,0.578,-0.408,9.521,0.4199363820866203,4.249770489383836,1.7966917293233082,0,0.4
1757391151.721477,0.578,-0.408,9.521,0.4199363820866203,4.249770489383836,1.7966917293233082,0,0.4
1757391151.7487583,0.436,-0.434,9.635,0.4183180189759939,3.6533156292989255,1.7993483709273184,0,0.4
1757391151.7762456,0.436,-0.434,9.635,0.4183180189759939,3.6533156292989255,1.7993483709273184,0,0.4
1757391151.8036041,0.416,-0.346,9.758,0.4170753918657873,3.1738183490050944,1.7952882205513783,0,0.4
1757391151.8309343,0.456,-0.173,9.835,0.41636862573926003,2.8389511716427718,1.797042606516291,0,0.4
1757391151.858388,0.456,-0.173,9.835,0.41636862573926003,2.8389511716427718,1.797042606516291,0,0.4
1757391151.8859575,0.612,-0.231,9.716,0.4161413101339496,3.8517127701877962,1.796641604010025,0,0.4
1757391151.9134548,0.612,-0.231,9.716,0.4161413101339496,3.8517127701877962,1.796641604010025,0,0.4
1757391151.9408169,0.612,-0.231,9.716,0.4161413101339496,3.8517127701877962,1.796641604010025,0,0.4
1757391151.9681304,0.23,-0.16,9.741,0.4155276374683157,1.6475332818024353,1.8092230576441102,0,0.4
1757391151.99551,0.23,-0.16,9.741,0.4155276374683157,1.6475332818024353,1.8092230576441102,0,0.4
1757391152.0230365,0.367,-0.158,9.793,0.41470752344272704,2.3364398133195032,1.8102756892230576,0,0.4
1757391152.0505419,0.52,-0.207,9.77,0.41470124185972723,3.2786760855174215,1.8157393483709274,0,0.4
1757391152.0779972,0.52,-0.207,9.77,0.41470124185972723,3.2786760855174215,1.8157393483709274,0,0.4
1757391152.1054595,0.336,-0.219,9.707,0.41435268793625557,2.365977626934686,1.8235588972431078,0,0.4
1757391152.1328678,0.336,-0.219,9.707,0.41435268793625557,2.365977626934686,1.8235588972431078,0,0.4
1757391152.1602218,0.336,-0.219,9.707,0.41435268793625557,2.365977626934686,1.8235588972431078,0,0.4
1757391152.1874278,0.489,-0.255,9.726,0.4144631497491665,3.2453729732760213,1.8259649122807016,0,0.4
1757391152.2146022,0.459,-0.344,9.94,0.4141694610905058,3.3026613413447774,1.8145363408521302,0,0.4
1757391152.2419138,0.459,-0.344,9.94,0.4141694610905058,3.3026613413447774,1.8145363408521302,0,0.4
1757391152.2692258,0.397,-0.318,9.797,0.414378863481235,2.972115306429888,1.8162907268170427,0,0.4
1757391152.2965446,0.397,-0.318,9.797,0.414378863481235,2.972115306429888,1.8162907268170427,0,0.4
1757391152.3242877,0.37,-0.224,9.694,0.4144751530550414,2.554704750337324,1.817593984962406,0,0.4
1757391152.3515894,0.37,-0.224,9.694,0.4144751530550414,2.554704750337324,1.817593984962406,0,0.4
1757391152.378919,0.65,-0.184,9.599,0.41543360480346314,4.025622663700079,1.8248120300751878,0,0.4
1757391152.4063833,0.65,-0.184,9.599,0.41543360480346314,4.025622663700079,1.8248120300751878,0,0.4
1757391152.4339833,0.36,-0.267,9.693,0.41518956814929736,2.647483453620407,1.83593984962406,0,0.4
1757391152.461661,0.36,-0.267,9.693,0.41518956814929736,2.647483453620407,1.83593984962406,0,0.4
1757391152.489289,0.451,-0.218,9.675,0.41496573051277374,2.963848562637124,1.8367919799498746,0,0.4
1757391152.5165973,0.451,-0.218,9.675,0.41496573051277374,2.963848562637124,1.8367919799498746,0,0.4
1757391152.5439782,0.433,-0.217,9.843,0.4144421280468481,2.8170116832306076,1.8336340852130324,0,0.4
1757391152.5713713,0.433,-0.217,9.843,0.4144421280468481,2.8170116832306076,1.8336340852130324,0,0.4
1757391152.5989408,0.437,-0.224,9.804,0.41420248671392595,2.867448747663172,1.822957393483709,0,0.4
1757391152.6268954,0.437,-0.224,9.804,0.41420248671392595,2.867448747663172,1.822957393483709,0,0.4
1757391152.6545188,0.424,-0.157,9.61,0.41446787269944096,2.6936806855381494,1.821002506265664,0,0.4
1757391152.6822486,0.424,-0.157,9.61,0.41446787269944096,2.6936806855381494,1.821002506265664,0,0.4
1757391152.709603,0.434,-0.156,9.688,0.41465581510452737,2.7254382520861453,1.8213533834586466,0,0.4
1757391152.7371173,0.434,-0.156,9.688,0.41465581510452737,2.7254382520861453,1.8213533834586466,0,0.4
1757391152.7644238,0.439,-0.148,9.55,0.4148632154096094,2.7772763100148876,1.8182456140350878,0,0.4
1757391152.7916503,0.439,-0.148,9.55,0.4148632154096094,2.7772763100148876,1.8182456140350878,0,0.4
1757391152.8192637,0.381,-0.128,9.456,0.41505581251200424,2.433888012004346,1.817894736842105,0,0.4
1757391152.8471115,0.381,-0.128,9.456,0.41505581251200424,2.433888012004346,1.817894736842105,0,0.4
1757391152.8751285,0.41,-0.158,9.521,0.41519312072817394,2.6423033971464776,1.8170426065162908,0,0.4
1757391152.9026122,0.41,-0.158,9.521,0.41519312072817394,2.6423033971464776,1.8170426065162908,0,0.4
1757391152.9308093,0.156,-0.191,9.639,0.4149881052512228,1.465576241017505,1.828671679197995,0,0.4
1757391152.9583876,0.156,-0.191,9.639,0.4149881052512228,1.465576241017505,1.828671679197995,0,0.4
1757391152.985816,0.125,-0.126,9.587,0.4147955882118324,1.0606020610286089,1.8264160401002507,0,0.4
1757391153.0134482,0.125,-0.126,9.587,0.4147955882118324,1.0606020610286089,1.8264160401002507,0,0.4
1757391153.0408828,0.376,-0.243,9.567,0.4150936400380039,2.6792059681713254,1.8362406015037596,0,0.4
1757391153.068189,0.376,-0.243,9.567,0.4150936400380039,2.6792059681713254,1.8362406015037596,0,0.4
1757391153.095694,0.369,-0.355,9.517,0.4152984830215492,3.079702605237322,1.8340350877192981,0,0.4
1757391153.12299,0.369,-0.355,9.517,0.4152984830215492,3.079702605237322,1.8340350877192981,0,0.4
1757391153.1507077,0.128,-0.319,9.537,0.4150547313307006,2.0640993014273232,1.8374937343358397,0,0.4
1757391153.1788383,0.128,-0.319,9.537,0.4150547313307006,2.0640993014273232,1.8374937343358397,0,0.4
1757391153.2065606,0.404,-0.408,9.614,0.4154870274749863,3.4178205593175344,1.8511779448621557,0,0.4
1757391153.2345417,0.338,-0.443,9.7,0.4157741664654023,3.287757437472863,1.8490225563909775,0,0.4
1757391153.2617962,0.338,-0.443,9.7,0.4157741664654023,3.287757437472863,1.8490225563909775,0,0.4
1757391153.289248,0.338,-0.443,9.7,0.4157741664654023,3.287757437472863,1.8490225563909775,0,0.4
1757391153.3165696,0.253,-0.382,9.709,0.41578466782698953,2.701882125604292,1.8450125313283208,0,0.4
1757391153.344502,0.328,-0.435,9.805,0.41560022557741716,3.1802936968509936,1.8352380952380951,0,0.4
1757391153.372125,0.328,-0.435,9.805,0.41560022557741716,3.1802936968509936,1.8352380952380951,0,0.4
1757391153.3998325,0.345,-0.411,9.745,0.4158983138941537,3.151794869658989,1.8280701754385962,0,0.4
1757391153.4273374,0.345,-0.411,9.745,0.4158983138941537,3.151794869658989,1.8280701754385962,0,0.4
1757391153.4553342,0.345,-0.411,9.745,0.4158983138941537,3.151794869658989,1.8280701754385962,0,0.4
1757391153.4838278,0.334,-0.312,9.738,0.4159612902662939,2.687221593936527,1.8239598997493733,0,0.4
1757391153.5112548,0.256,-0.141,9.882,0.41569164653622764,1.6940388401712585,1.8204010025062654,0,0.4
1757391153.5386362,0.256,-0.141,9.882,0.41569164653622764,1.6940388401712585,1.8204010025062654,0,0.4
1757391153.5660367,0.349,-0.179,9.873,0.4158773677419823,2.2750064620667083,1.818295739348371,0,0.4
1757391153.5934796,0.349,-0.179,9.873,0.4158773677419823,2.2750064620667083,1.818295739348371,0,0.4
1757391153.6208346,0.164,-0.386,9.972,0.41552403660919546,2.408283113669227,1.8261152882205511,0,0.4
1757391153.648087,0.164,-0.386,9.972,0.41552403660919546,2.408283113669227,1.8261152882205511,0,0.4
1757391153.6755679,0.196,-0.332,9.994,0.4151361975304009,2.2092040847314096,1.8247117794486214,0,0.4
1757391153.7033036,0.196,-0.332,9.994,0.4151361975304009,2.2092040847314096,1.8247117794486214,0,0.4
1757391153.730937,0.399,-0.33,9.9,0.41524879590433494,2.9939264500127543,1.831278195488722,0,0.4
1757391153.758569,0.399,-0.33,9.9,0.41524879590433494,2.9939264500127543,1.831278195488722,0,0.4
1757391153.7865632,0.318,-0.374,9.871,0.41532222430301025,2.8471629484490455,1.82937343358396,0,0.4
1757391153.814547,0.318,-0.374,9.871,0.41532222430301025,2.8471629484490455,1.82937343358396,0,0.4
1757391153.8426168,0.274,-0.277,9.865,0.41507613759405637,2.2617412418060843,1.8243107769423559,0,0.4
1757391153.8704584,0.274,-0.277,9.865,0.41507613759405637,2.2617412418060843,1.8243107769423559,0,0.4
1757391153.8984451,0.41,-0.293,9.965,0.4147007927409833,2.895001390735381,1.8197994987468669,0,0.4
1757391153.9264154,0.41,-0.293,9.965,0.4147007927409833,2.895001390735381,1.8197994987468669,0,0.4
1757391153.9541445,0.358,-0.384,9.934,0.41478801212185484,3.025171562254236,1.8072180451127817,0,0.4
1757391153.98207,0.358,-0.384,9.934,0.41478801212185484,3.025171562254236,1.8072180451127817,0,0.4
1757391154.0100741,0.463,-0.438,9.847,0.4142827627357914,3.7033114001963843,1.8005513784461156,0,0.4
1757391154.0375724,0.463,-0.438,9.847,0.4142827627357914,3.7033114001963843,1.8005513784461156,0,0.4
1757391154.0650678,0.39,-0.405,9.909,0.4143059950085203,3.247557073619891,1.8020551378446115,0,0.4
1757391154.093461,0.39,-0.405,9.909,0.4143059950085203,3.247557073619891,1.8020551378446115,0,0.4
1757391154.1215258,0.498,-0.352,9.813,0.41451434836444445,3.5561528562231732,1.804611528822055,0,0.4
1757391154.149061,0.498,-0.352,9.813,0.41451434836444445,3.5561528562231732,1.804611528822055,0,0.4
1757391154.1766512,0.41,-0.344,9.752,0.4143264353139925,3.14128464275247,1.8028070175438595,0,0.4
1757391154.2042186,0.41,-0.344,9.752,0.4143264353139925,3.14128464275247,1.8028070175438595,0,0.4
1757391154.231657,0.513,-0.345,9.723,0.4140196583496972,3.6381453445312975,1.7967418546365914,0,0.4
1757391154.259184,0.513,-0.345,9.723,0.4140196583496972,3.6381453445312975,1.7967418546365914,0,0.4
1757391154.2870197,0.467,-0.256,9.892,0.41424207898280924,3.0817095309151594,1.7933834586466164,0,0.4
1757391154.3145008,0.467,-0.256,9.892,0.41424207898280924,3.0817095309151594,1.7933834586466164,0,0.4
1757391154.3419597,0.342,-0.221,9.864,0.4138614351446629,2.3638606464036807,1.7935839598997494,0,0.4
1757391154.3694293,0.237,-0.056,9.882,0.4128912931995539,1.4116776722446862,1.7862155388471177,0,0.4
1757391154.3968494,0.237,-0.056,9.882,0.4128912931995539,1.4116776722446862,1.7862155388471177,0,0.4
1757391154.424234,0.511,-0.101,9.859,0.4132849047569969,3.024326428900661,1.7965914786967416,0,0.4
1757391154.4519227,0.511,-0.101,9.859,0.4132849047569969,3.024326428900661,1.7965914786967416,0,0.4
1757391154.479576,0.511,-0.101,9.859,0.4132849047569969,3.024326428900661,1.7965914786967416,0,0.4
1757391154.5072553,0.462,-0.106,9.735,0.41337382597353695,2.7875715900249856,1.7971929824561401,0,0.4
1757391154.5349567,0.277,-0.053,9.763,0.4129489708184293,1.6546491432225656,1.8025563909774434,0,0.4
1757391154.5623982,0.277,-0.053,9.763,0.4129489708184293,1.6546491432225656,1.8025563909774434,0,0.4
1757391154.589798,0.463,-0.147,9.803,0.4131421244559794,2.8369016789585233,1.8103759398496237,0,0.4
1757391154.6171641,0.463,-0.147,9.803,0.4131421244559794,2.8369016789585233,1.8103759398496237,0,0.4
1757391154.6448255,0.397,-0.141,9.796,0.4132312034442704,2.462596505784532,1.7937343358395987,0,0.4
1757391154.6724815,0.397,-0.141,9.796,0.4132312034442704,2.462596505784532,1.7937343358395987,0,0.4
1757391154.6999598,0.325,-0.007,9.638,0.41181943858929243,1.9317689387757369,1.791629072681704,0,0.4
1757391154.7276297,0.325,-0.007,9.638,0.41181943858929243,1.9317689387757369,1.791629072681704,0,0.4
1757391154.7554207,0.402,-0.055,9.611,0.411058207557032,2.417405004473285,1.7866165413533832,0,0.4
1757391154.7829309,0.402,-0.055,9.611,0.411058207557032,2.417405004473285,1.7866165413533832,0,0.4
1757391154.8104756,0.562,-0.102,9.526,0.4113610306045044,3.431360364297906,1.782205513784461,0,0.4
1757391154.8378727,0.562,-0.102,9.526,0.4113610306045044,3.431360364297906,1.782205513784461,0,0.4
1757391154.865404,0.353,-0.087,9.548,0.41019324409356134,2.1806202923106226,1.783859649122807,0,0.4
1757391154.892814,0.353,-0.087,9.548,0.41019324409356134,2.1806202923106226,1.783859649122807,0,0.4
1757391154.920297,0.383,-0.088,9.559,0.40976126891154563,2.354158693643684,1.7798997493734334,0,0.4
1757391154.9476547,0.383,-0.088,9.559,0.40976126891154563,2.354158693643684,1.7798997493734334,0,0.4
1757391154.9751048,0.445,-0.308,9.592,0.4098065397233187,3.229273211792494,1.7791979949874683,0,0.4
1757391155.0029175,0.445,-0.308,9.592,0.4098065397233187,3.229273211792494,1.7791979949874683,0,0.4
1757391155.0305798,0.353,-0.318,9.465,0.4098086901225986,2.8736585940467276,1.7743358395989977,0,0.4
1757391155.0579116,0.353,-0.318,9.465,0.4098086901225986,2.8736585940467276,1.7743358395989977,0,0.4
1757391155.0853634,0.341,-0.227,9.587,0.40927028049932973,2.4467225323490656,1.761453634085213,0,0.4
1757391155.1128745,0.341,-0.227,9.587,0.40927028049932973,2.4467225323490656,1.761453634085213,0,0.4
1757391155.14029,0.384,-0.125,9.66,0.4094946184017563,2.393835951984244,1.756591478696742,0,0.4
1757391155.167852,0.384,-0.125,9.66,0.4094946184017563,2.393835951984244,1.756591478696742,0,0.4
1757391155.19524,0.383,-0.181,9.589,0.40988901546638207,2.5295237232549086,1.7363909774436088,0,0.4
1757391155.222729,0.383,-0.181,9.589,0.40988901546638207,2.5295237232549086,1.7363909774436088,0,0.4
1757391155.2507303,0.369,-0.185,9.727,0.40942785383996533,2.4299658748289295,1.728170426065163,0,0.4
1757391155.278362,0.369,-0.185,9.727,0.40942785383996533,2.4299658748289295,1.728170426065163,0,0.4
1757391155.305881,0.356,-0.191,9.832,0.4094234940742898,2.352985290514947,1.7208020050125314,0,0.4
1757391155.3332534,0.356,-0.191,9.832,0.4094234940742898,2.352985290514947,1.7208020050125314,0,0.4
1757391155.3605125,0.395,-0.339,9.841,0.4090804933017462,3.0277516622115717,1.7102255639097743,0,0.4
1757391155.388009,0.395,-0.339,9.841,0.4090804933017462,3.0277516622115717,1.7102255639097743,0,0.4
1757391155.4163904,0.366,-0.273,9.868,0.4092703018788439,2.6492396380497505,1.7005513784461153,0,0.4
1757391155.4437985,0.366,-0.273,9.868,0.4092703018788439,2.6492396380497505,1.7005513784461153,0,0.4
1757391155.4716017,0.372,-0.228,9.901,0.4089595212242894,2.5232463702706034,1.6925313283208019,0,0.4
1757391155.499085,0.372,-0.228,9.901,0.4089595212242894,2.5232463702706034,1.6925313283208019,0,0.4
1757391155.5268743,0.418,-0.244,9.744,0.4091726530451418,2.843659733019197,1.6939849624060153,0,0.4
1757391155.5553036,0.418,-0.244,9.744,0.4091726530451418,2.843659733019197,1.6939849624060153,0,0.4
1757391155.582852,0.397,-0.275,9.645,0.4092988883444469,2.8665120474869936,1.6924310776942355,0,0.4
1757391155.6103704,0.397,-0.275,9.645,0.4092988883444469,2.8665120474869936,1.6924310776942355,0,0.4
1757391155.6381967,0.445,-0.275,9.648,0.40964843463633543,3.103544825211877,1.6911779448621553,0,0.4
1757391155.6658027,0.517,-0.332,9.618,0.41006396147430463,3.6552246856317576,1.6861152882205515,0,0.4
1757391155.6932595,0.517,-0.332,9.618,0.41006396147430463,3.6552246856317576,1.6861152882205515,0,0.4
1757391155.720844,0.517,-0.332,9.618,0.41006396147430463,3.6552246856317576,1.6861152882205515,0,0.4
1757391155.7485552,0.374,-0.286,9.705,0.41038133485820233,2.7774237898420835,1.686265664160401,0,0.4
1757391155.7763684,0.374,-0.286,9.705,0.41038133485820233,2.7774237898420835,1.686265664160401,0,0.4
1757391155.8040137,0.624,-0.096,9.543,0.41123676574450396,3.7850322687811477,1.6956390977443607,0,0.4
1757391155.8318906,0.536,-0.186,9.665,0.411894437325876,3.35952408937359,1.6958395989974935,0,0.4
1757391155.8597639,0.536,-0.186,9.665,0.411894437325876,3.35952408937359,1.6958395989974935,0,0.4
1757391155.8873022,0.347,-0.258,9.612,0.4118880915977057,2.575761283256002,1.7040100250626569,0,0.4
1757391155.9148676,0.347,-0.258,9.612,0.4118880915977057,2.575761283256002,1.7040100250626569,0,0.4
1757391155.9423187,0.51,-0.178,9.483,0.4123585939446394,3.2601573702795283,1.7115288220551381,0,0.4
1757391155.970353,0.51,-0.178,9.483,0.4123585939446394,3.2601573702795283,1.7115288220551381,0,0.4
1757391155.997888,0.43,-0.163,9.653,0.41262580808766675,2.727441642448277,1.7147869674185465,0,0.4
1757391156.0256717,0.43,-0.163,9.653,0.41262580808766675,2.727441642448277,1.7147869674185465,0,0.4
1757391156.0536647,0.319,-0.127,9.765,0.41261213021432125,2.013770563143317,1.7162907268170424,0,0.4
1757391156.0812387,0.319,-0.127,9.765,0.41261213021432125,2.013770563143317,1.7162907268170424,0,0.4
1757391156.1088672,0.204,-0.084,9.654,0.41223620352899626,1.3091196755853196,1.7169924812030073,0,0.4
1757391156.1368797,0.204,-0.084,9.654,0.41223620352899626,1.3091196755853196,1.7169924812030073,0,0.4
1757391156.1644576,0.452,-0.211,9.591,0.4125716392337215,2.9772452984596947,1.7261152882205513,0,0.4
1757391156.1917763,0.452,-0.211,9.591,0.4125716392337215,2.9772452984596947,1.7261152882205513,0,0.4
1757391156.2199516,0.477,-0.175,9.623,0.41284164034166904,3.0223759914130355,1.72,0,0.4
1757391156.2479374,0.477,-0.175,9.623,0.41284164034166904,3.0223759914130355,1.72,0,0.4
1757391156.2755349,0.178,-0.094,9.614,0.4121213747186622,1.1994710804447157,1.7288220551378446,0,0.4
1757391156.3030488,0.178,-0.094,9.614,0.4121213747186622,1.1994710804447157,1.7288220551378446,0,0.4
1757391156.330601,0.218,-0.118,9.661,0.41178974914390476,1.4698030563385356,1.7299749373433584,0,0.4
1757391156.3583424,0.218,-0.118,9.661,0.41178974914390476,1.4698030563385356,1.7299749373433584,0,0.4
1757391156.386295,0.372,-0.26,9.659,0.41177379105523454,2.6902206173546057,1.7278195488721806,0,0.4
1757391156.4141293,0.372,-0.26,9.659,0.41177379105523454,2.6902206173546057,1.7278195488721806,0,0.4
1757391156.4414833,0.128,-0.147,9.494,0.4108152565326658,1.1761540017232248,1.7369924812030078,0,0.4
1757391156.4694347,0.128,-0.147,9.494,0.4108152565326658,1.1761540017232248,1.7369924812030078,0,0.4
1757391156.4969237,0.186,-0.013,9.5,0.41011291432970015,1.1243833056077739,1.7371428571428569,0,0.4
1757391156.5245233,0.186,-0.013,9.5,0.41011291432970015,1.1243833056077739,1.7371428571428569,0,0.4
1757391156.552698,0.385,-0.045,9.549,0.40991970555219714,2.3245217239747356,1.7448621553884713,0,0.4
1757391156.5799842,0.385,-0.045,9.549,0.40991970555219714,2.3245217239747356,1.7448621553884713,0,0.4
1757391156.60748,0.314,-0.215,9.508,0.4094424165862643,2.2920151444568417,1.743157894736842,0,0.4
1757391156.6349792,0.314,-0.215,9.508,0.4094424165862643,2.2920151444568417,1.743157894736842,0,0.4
1757391156.6624246,0.293,-0.189,9.586,0.40856757702979807,2.0830850669424334,1.734486215538847,0,0.4
1757391156.6897964,0.293,-0.189,9.586,0.40856757702979807,2.0830850669424334,1.734486215538847,0,0.4
1757391156.7174187,0.459,-0.345,9.659,0.4086826733542786,3.402068698968139,1.738045112781955,0,0.4
1757391156.7450778,0.459,-0.345,9.659,0.4086826733542786,3.402068698968139,1.738045112781955,0,0.4
1757391156.7724283,0.463,-0.385,9.779,0.4085396522982806,3.523631557010397,1.7359899749373433,0,0.4
1757391156.799825,0.463,-0.385,9.779,0.4085396522982806,3.523631557010397,1.7359899749373433,0,0.4
1757391156.827207,0.468,-0.378,9.711,0.4082638454480142,3.54489298207707,1.7336340852130327,0,0.4
1757391156.854719,0.468,-0.378,9.711,0.4082638454480142,3.54489298207707,1.7336340852130327,0,0.4
1757391156.8824477,0.445,-0.366,9.774,0.40809237924764047,3.37368549851641,1.7314285714285715,0,0.4
1757391156.9100337,0.562,-0.326,9.847,0.4084746962787291,3.7749189067809183,1.732531328320802,0,0.4
1757391156.9375348,0.562,-0.326,9.847,0.4084746962787291,3.7749189067809183,1.732531328320802,0,0.4
1757391156.96492,0.562,-0.326,9.847,0.4084746962787291,3.7749189067809183,1.732531328320802,0,0.4
1757391156.9924324,0.492,-0.125,9.766,0.4083493326797535,2.9755220695847724,1.7329323308270674,0,0.4
1757391157.0199556,0.547,-0.206,9.77,0.40858897439847786,3.4237201820496947,1.7331829573934836,0,0.4
1757391157.047714,0.547,-0.206,9.77,0.40858897439847786,3.4237201820496947,1.7331829573934836,0,0.4
1757391157.0757818,0.294,-0.204,9.818,0.4080257834990333,2.087375527993905,1.745714285714286,0,0.4
1757391157.1031153,0.294,-0.204,9.818,0.4080257834990333,2.087375527993905,1.745714285714286,0,0.4
1757391157.1305056,0.406,-0.171,9.653,0.40769266304411217,2.613040347748067,1.7435087719298246,0,0.4
1757391157.1578326,0.406,-0.171,9.653,0.40769266304411217,2.613040347748067,1.7435087719298246,0,0.4
1757391157.1851008,0.274,0.037,9.697,0.4075098465068053,1.633210379557781,1.7499749373433584,0,0.4
1757391157.2124975,0.274,0.037,9.697,0.4075098465068053,1.633210379557781,1.7499749373433584,0,0.4
1757391157.239916,0.491,-0.129,9.812,0.4078292872023783,2.9617865962604895,1.7540350877192983,0,0.4
1757391157.2673414,0.491,-0.129,9.812,0.4078292872023783,2.9617865962604895,1.7540350877192983,0,0.4
1757391157.2952058,0.311,-0.117,9.586,0.407340692786763,1.985251643979929,1.7628070175438595,0,0.4
1757391157.3236625,0.311,-0.117,9.586,0.407340692786763,1.985251643979929,1.7628070175438595,0,0.4
1757391157.3514957,0.427,-0.151,9.662,0.4070988332088413,2.6838138871239683,1.7604511278195487,0,0.4
1757391157.3790774,0.427,-0.151,9.662,0.4070988332088413,2.6838138871239683,1.7604511278195487,0,0.4
1757391157.4068546,0.489,-0.226,9.786,0.4074610441502353,3.15083584490368,1.759799498746867,0,0.4
1757391157.4344902,0.489,-0.226,9.786,0.4074610441502353,3.15083584490368,1.759799498746867,0,0.4
1757391157.4617121,0.442,-0.274,9.828,0.4075114599615574,3.028922169119717,1.757593984962406,0,0.4
1757391157.4891505,0.442,-0.274,9.828,0.4075114599615574,3.028922169119717,1.757593984962406,0,0.4
1757391157.5165188,0.395,-0.333,9.721,0.4071795212188354,3.0422084624460517,1.752080200501253,0,0.4
1757391157.54389,0.395,-0.333,9.721,0.4071795212188354,3.0422084624460517,1.752080200501253,0,0.4
1757391157.5712569,0.432,-0.367,9.825,0.40736114198583057,3.3019694403144064,1.7501754385964912,0,0.4
1757391157.5991437,0.432,-0.367,9.825,0.40736114198583057,3.3019694403144064,1.7501754385964912,0,0.4
1757391157.627673,0.516,-0.348,9.692,0.4076054219462739,3.6742669734531064,1.7499248120300752,0,0.4
1757391157.6554163,0.516,-0.348,9.692,0.4076054219462739,3.6742669734531064,1.7499248120300752,0,0.4
1757391157.6828177,0.493,-0.263,9.586,0.4075183431454344,3.3359768937367944,1.7416541353383461,0,0.4
1757391157.710414,0.493,-0.263,9.586,0.4075183431454344,3.3359768937367944,1.7416541353383461,0,0.4
1757391157.7378716,0.517,-0.312,9.74,0.4079977941116839,3.5476124265598177,1.741954887218045,0,0.4
1757391157.7652097,0.517,-0.312,9.74,0.4079977941116839,3.5476124265598177,1.741954887218045,0,0.4
1757391157.7925923,0.619,-0.255,9.618,0.4087934686366699,3.9816867833697955,1.7441604010025062,0,0.4
1757391157.8202257,0.619,-0.255,9.618,0.4087934686366699,3.9816867833697955,1.7441604010025062,0,0.4
1757391157.8481083,0.333,-0.139,9.571,0.40862099799202684,2.1591451407514928,1.757092731829574,0,0.4
1757391157.8757288,0.333,-0.139,9.571,0.40862099799202684,2.1591451407514928,1.757092731829574,0,0.4
1757391157.9040203,0.455,-0.104,9.617,0.4088102004598222,2.7785115033505083,1.7538847117794485,0,0.4
1757391157.9316707,0.455,-0.104,9.617,0.4088102004598222,2.7785115033505083,1.7538847117794485,0,0.4
1757391157.9592018,0.594,-0.416,9.665,0.4097716528751104,4.290975558551264,1.7492731829573935,0,0.4
1757391157.986726,0.594,-0.416,9.665,0.4097716528751104,4.290975558551264,1.7492731829573935,0,0.4
1757391158.0144138,0.349,-0.479,9.781,0.4095895750626473,3.467463819811154,1.7570927318295737,0,0.4
1757391158.0421724,0.419,-0.39,9.736,0.4097787207750056,3.3647653306442833,1.7569423558897244,0,0.4
1757391158.0698864,0.419,-0.39,9.736,0.4097787207750056,3.3647653306442833,1.7569423558897244,0,0.4
1757391158.097725,0.568,-0.485,9.877,0.4105495341612264,4.324442672448202,1.7642606516290729,0,0.4
1757391158.1255126,0.568,-0.485,9.877,0.4105495341612264,4.324442672448202,1.7642606516290729,0,0.4
1757391158.1530762,0.619,-0.703,9.924,0.4114979951348487,5.391909164638628,1.7597994987468675,0,0.4
1757391158.1808171,0.619,-0.703,9.924,0.4114979951348487,5.391909164638628,1.7597994987468675,0,0.4
1757391158.2083542,0.237,-0.287,10.023,0.4111652952280871,2.126717688143988,1.7656140350877194,0,0.4
1757391158.235911,0.237,-0.287,10.023,0.4111652952280871,2.126717688143988,1.7656140350877194,0,0.4
1757391158.263472,0.648,-0.166,9.88,0.41237962789158245,3.873294471885769,1.779799498746867,0,0.4
1757391158.2910984,0.648,-0.166,9.88,0.41237962789158245,3.873294471885769,1.779799498746867,0,0.4
1757391158.3186462,0.386,-0.245,9.916,0.412611857561074,2.639815781411009,1.7879699248120302,0,0.4
1757391158.346202,0.386,-0.245,9.916,0.412611857561074,2.639815781411009,1.7879699248120302,0,0.4
1757391158.3737519,0.429,-0.195,9.84,0.4127591155868032,2.7418070293332737,1.78406015037594,0,0.4
1757391158.4015083,0.429,-0.195,9.84,0.4127591155868032,2.7418070293332737,1.78406015037594,0,0.4
1757391158.4293706,0.429,-0.195,9.84,0.4127591155868032,2.7418070293332737,1.78406015037594,0,0.4
1757391158.4574735,0.425,-0.246,9.77,0.41312120194925844,2.877387021328648,1.776441102756892,0,0.4
1757391158.485086,0.29,-0.167,9.828,0.41288419078477684,1.95019216500137,1.782907268170426,0,0.4
1757391158.5128298,0.29,-0.167,9.828,0.41288419078477684,1.95019216500137,1.782907268170426,0,0.4
1757391158.5408301,0.244,-0.074,9.751,0.4125578656382642,1.4978602171646307,1.7791979949874686,0,0.4
1757391158.568464,0.244,-0.074,9.751,0.4125578656382642,1.4978602171646307,1.7791979949874686,0,0.4
1757391158.5963728,0.38,0.03,9.849,0.4127422803639094,2.2163921343063135,1.7828571428571427,0,0.4
1757391158.6243236,0.38,0.03,9.849,0.4127422803639094,2.2163921343063135,1.7828571428571427,0,0.4
1757391158.6521306,0.397,0.077,9.859,0.41306479213314706,2.348852355370205,1.7820050125313283,0,0.4
1757391158.6797817,0.397,0.077,9.859,0.41306479213314706,2.348852355370205,1.7820050125313283,0,0.4
1757391158.7074015,0.186,-0.008,9.87,0.41296490468319463,1.0806082053441772,1.7888220551378446,0,0.4
