timestamp,ax,ay,az,rms,tilt_now,jerk,tilt_crosses,freq
1757391504.4397266,0.492,-0.381,9.741,0.0246,3.655199234830865,0.024661654135338346,0,0.8500000000000001
1757391504.4689448,0.495,-0.373,9.739,0.0348958808457388,3.6414608587630535,0.02481203007518797,0,0.05
1757391504.495326,0.489,-0.372,9.738,0.042608977927192766,3.610263587758359,0.02511278195488722,0,0.05
1757391504.5221722,0.476,-0.369,9.746,0.04880537880193125,3.536227711659367,0.02576441102756892,0,0.05
1757391504.5485182,0.47,-0.376,9.747,0.05416839484422628,3.5336239588834326,0.026065162907268166,0,0.05
1757391504.5765364,0.463,-0.37,9.736,0.05890787298825175,3.483584691981345,0.02641604010025062,0,0.05
1757391504.6017632,0.455,-0.364,9.736,0.06314823829688362,3.424977062180738,0.026817042606516284,0,0.05
1757391504.627453,0.436,-0.36,9.73,0.06680523931549082,3.325755043796452,0.02776942355889724,0,0.05
1757391504.6527483,0.437,-0.356,9.727,0.07028771229738524,3.3164262438845156,0.027819548872180445,0,0.05
1757391504.677913,0.435,-0.357,9.74,0.07357598113515035,3.30664325778599,0.02791979949874686,0,0.05
1757391504.7033553,0.429,-0.349,9.742,0.07663894245094983,3.2490560736813148,0.028220551378446118,0,0.05
1757391504.72876,0.416,-0.346,9.729,0.0794113814260903,3.1832593733694914,0.028872180451127823,0,0.05
1757391504.7538896,0.409,-0.35,9.725,0.08200225606652539,3.1682905518702293,0.02922305764411028,0,0.05
1757391504.7788298,0.41,-0.345,9.741,0.08452585403295255,3.148597259997692,0.02927318295739349,0,0.05
1757391504.8038177,0.41,-0.343,9.722,0.086976261129115,3.147185110463214,0.02927318295739349,0,0.05
1757391504.8287897,0.401,-0.339,9.736,0.08925733863386248,3.0871463524259823,0.029724310776942358,0,0.05
1757391504.853586,0.383,-0.341,9.73,0.091288526113636,3.0169024638094677,0.0306265664160401,0,0.05
1757391504.8785753,0.383,-0.341,9.73,0.091288526113636,3.0169024638094677,0.0306265664160401,0,0.05
1757391504.9033282,0.383,-0.341,9.73,0.091288526113636,3.0169024638094677,0.0306265664160401,0,0.05
1757391504.928025,0.377,-0.337,9.751,0.09321436316362408,2.968576790035159,0.03092731829573935,0,0.05
1757391504.9528983,0.377,-0.337,9.751,0.09321436316362408,2.968576790035159,0.03092731829573935,0,0.05
1757391504.977856,0.379,-0.336,9.738,0.09512108073397821,2.977396671827877,0.03102756892230576,0,0.05
1757391505.0028238,0.379,-0.336,9.738,0.09512108073397821,2.977396671827877,0.03102756892230576,0,0.05
1757391505.0277317,0.358,-0.328,9.743,0.09679065037492,2.852954218272028,0.03208020050125313,0,0.05
1757391505.0526912,0.358,-0.328,9.743,0.09679065037492,2.852954218272028,0.03208020050125313,0,0.05
1757391505.0775998,0.35,-0.345,9.736,0.09835995119966255,2.8897126368068675,0.03248120300751879,0,0.05
1757391505.1026206,0.35,-0.345,9.736,0.09835995119966255,2.8897126368068675,0.03248120300751879,0,0.05
1757391505.1279266,0.334,-0.342,9.745,0.09976757990449603,2.808373737855516,0.033283208020050116,0,0.05
1757391505.1528404,0.334,-0.342,9.745,0.09976757990449603,2.808373737855516,0.033283208020050116,0,0.05
1757391505.1776264,0.325,-0.332,9.744,0.10108230557323077,2.729804801315048,0.03373433583959899,0,0.05
1757391505.2027054,0.325,-0.332,9.744,0.10108230557323077,2.729804801315048,0.03373433583959899,0,0.05
1757391505.227635,0.325,-0.332,9.744,0.10108230557323077,2.729804801315048,0.03373433583959899,0,0.05
1757391505.2529411,0.32,-0.333,9.731,0.10234076655956804,2.7172126789653013,0.03398496240601502,0,0.05
1757391505.278069,0.32,-0.333,9.731,0.10234076655956804,2.7172126789653013,0.03398496240601502,0,0.05
1757391505.3034172,0.322,-0.327,9.752,0.10359943291350585,2.694332788034447,0.03408521303258145,0,0.05
1757391505.328502,0.322,-0.327,9.752,0.10359943291350585,2.694332788034447,0.03408521303258145,0,0.05
1757391505.3540843,0.315,-0.319,9.745,0.10478981343623053,2.6340110328414186,0.034436090225563896,0,0.05
1757391505.380298,0.315,-0.319,9.745,0.10478981343623053,2.6340110328414186,0.034436090225563896,0,0.05
1757391505.4058242,0.325,-0.339,9.736,0.10604229109180922,2.7615644066523135,0.03493734335839598,0,0.05
1757391505.4311013,0.325,-0.339,9.736,0.10604229109180922,2.7615644066523135,0.03493734335839598,0,0.05
1757391505.456835,0.327,-0.332,9.743,0.10729534006656581,2.7383062028865983,0.03503759398496239,0,0.05
1757391505.482859,0.327,-0.332,9.743,0.10729534006656581,2.7383062028865983,0.03503759398496239,0,0.05
1757391505.5084262,0.34,-0.338,9.733,0.10863374245601594,2.8199514044798852,0.035689223057644104,0,0.05
1757391505.5343149,0.34,-0.338,9.733,0.10863374245601594,2.8199514044798852,0.035689223057644104,0,0.05
1757391505.5596344,0.346,-0.346,9.745,0.11000263633204434,2.874532963379205,0.03598997493734335,0,0.05
1757391505.5845332,0.346,-0.346,9.745,0.11000263633204434,2.874532963379205,0.03598997493734335,0,0.05
1757391505.6101782,0.356,-0.335,9.758,0.11143347791395546,2.867889567047238,0.03649122807017543,0,0.05
1757391505.6356614,0.356,-0.335,9.758,0.11143347791395546,2.867889567047238,0.03649122807017543,0,0.05
1757391505.660576,0.356,-0.335,9.758,0.11143347791395546,2.867889567047238,0.03649122807017543,0,0.05
1757391505.6854384,0.371,-0.335,9.759,0.11296690887158062,2.9321860529338695,0.03724310776942355,0,0.05
1757391505.7106597,0.371,-0.335,9.759,0.11296690887158062,2.9321860529338695,0.03724310776942355,0,0.05
1757391505.7361298,0.374,-0.341,9.765,0.11450420297962866,2.96698303245204,0.03739348370927317,0,0.05
1757391505.7614477,0.374,-0.341,9.765,0.11450420297962866,2.96698303245204,0.03739348370927317,0,0.05
1757391505.7872274,0.39,-0.35,9.767,0.11615275502544053,3.0711109963587995,0.038195488721804505,0,0.05
1757391505.8124032,0.39,-0.35,9.767,0.11615275502544053,3.0711109963587995,0.038195488721804505,0,0.05
1757391505.8374538,0.394,-0.367,9.759,0.11781151259533171,3.1580574964436603,0.03839598997493734,0,0.05
1757391505.8624115,0.394,-0.367,9.759,0.11781151259533171,3.1580574964436603,0.03839598997493734,0,0.05
1757391505.88744,0.408,-0.366,9.75,0.11956467914898614,3.2175519804206982,0.039097744360902256,0,0.05
1757391505.9124327,0.408,-0.366,9.75,0.11956467914898614,3.2175519804206982,0.039097744360902256,0,0.05
1757391505.937422,0.41,-0.377,9.769,0.1213093669095672,3.2632007198232844,0.03919799498746866,0,0.05
1757391505.962496,0.41,-0.377,9.769,0.1213093669095672,3.2632007198232844,0.03919799498746866,0,0.05
1757391505.9875371,0.412,-0.384,9.76,0.1230460178144746,3.302615716022659,0.039298245614035075,0,0.05
1757391506.0126579,0.412,-0.384,9.76,0.1230460178144746,3.302615716022659,0.039298245614035075,0,0.05
1757391506.037664,0.412,-0.384,9.76,0.1230460178144746,3.302615716022659,0.039298245614035075,0,0.05
1757391506.0626872,0.41,-0.38,9.752,0.1247420237931067,3.2807937942333685,0.039398496240601495,0,0.05
1757391506.087517,0.41,-0.38,9.752,0.1247420237931067,3.2807937942333685,0.039398496240601495,0,0.05
1757391506.1124868,0.423,-0.377,9.759,0.1265223102855777,3.3229343084980463,0.0400501253132832,0,0.05
1757391506.1376686,0.423,-0.377,9.759,0.1265223102855777,3.3229343084980463,0.0400501253132832,0,0.05
1757391506.1626794,0.442,-0.384,9.746,0.12843794221335064,3.438013897713046,0.04100250626566415,0,0.05
1757391506.1876786,0.442,-0.384,9.746,0.12843794221335064,3.438013897713046,0.04100250626566415,0,0.05
1757391506.212708,0.46,-0.403,9.752,0.13048105226430387,3.588406316887359,0.041904761904761896,0,0.05
1757391506.237704,0.46,-0.403,9.752,0.13048105226430387,3.588406316887359,0.041904761904761896,0,0.05
1757391506.2627387,0.478,-0.404,9.754,0.13265185637600402,3.6713156101733047,0.042807017543859634,0,0.05
1757391506.2876992,0.478,-0.404,9.754,0.13265185637600402,3.6713156101733047,0.042807017543859634,0,0.05
1757391506.312747,0.483,-0.406,9.752,0.1348322568972277,3.701977116088078,0.04305764411027568,0,0.05
1757391506.337636,0.483,-0.406,9.752,0.1348322568972277,3.701977116088078,0.04305764411027568,0,0.05
1757391506.3625913,0.483,-0.406,9.752,0.1348322568972277,3.701977116088078,0.04305764411027568,0,0.05
1757391506.3879051,0.483,-0.406,9.738,0.1369779544306309,3.7072844941720033,0.04305764411027569,0,0.05
1757391506.4134612,0.483,-0.406,9.738,0.1369779544306309,3.7072844941720033,0.04305764411027569,0,0.05
1757391506.4386098,0.489,-0.396,9.74,0.13914295706215246,3.6963545597515752,0.043358395989974936,0,0.05
1757391506.4636295,0.489,-0.396,9.74,0.13914295706215246,3.6963545597515752,0.043358395989974936,0,0.05
1757391506.4887068,0.496,-0.402,9.753,0.14133577926342644,3.7453546008029233,0.0437092731829574,0,0.05
1757391506.5140357,0.496,-0.402,9.753,0.14133577926342644,3.7453546008029233,0.0437092731829574,0,0.05
1757391506.5392752,0.505,-0.402,9.733,0.14357355257846066,3.7941560617562975,0.04416040100250627,0,0.05
1757391506.5644548,0.505,-0.402,9.733,0.14357355257846066,3.7941560617562975,0.04416040100250627,0,0.05
1757391506.589508,0.506,-0.399,9.744,0.1457856474417149,3.783567255688609,0.04421052631578948,0,0.05
1757391506.6147144,0.506,-0.399,9.744,0.1457856474417149,3.783567255688609,0.04421052631578948,0,0.05
1757391506.6396368,0.501,-0.407,9.741,0.14792213323231926,3.79114438534434,0.04446115288220552,0,0.05
1757391506.6648731,0.501,-0.407,9.741,0.14792213323231926,3.79114438534434,0.04446115288220552,0,0.05
1757391506.6904936,0.491,-0.378,9.735,0.14994552344101506,3.64205921874756,0.0449624060150376,0,0.05
1757391506.7157035,0.491,-0.378,9.735,0.14994552344101506,3.64205921874756,0.0449624060150376,0,0.05
1757391506.7409163,0.491,-0.378,9.735,0.14994552344101506,3.64205921874756,0.0449624060150376,0,0.05
1757391506.765812,0.484,-0.379,9.745,0.15188581237232135,3.6095447900106614,0.045313283208020055,0,0.05
1757391506.7911444,0.484,-0.379,9.745,0.15188581237232135,3.6095447900106614,0.045313283208020055,0,0.05
1757391506.8162763,0.472,-0.376,9.74,0.1537083602150514,3.54531658047315,0.04591478696741855,0,0.05
1757391506.8413923,0.472,-0.376,9.74,0.1537083602150514,3.54531658047315,0.04591478696741855,0,0.05
1757391506.8665078,0.466,-0.381,9.733,0.15546430458468594,3.5388935646861834,0.046215538847117786,0,0.05
1757391506.8918188,0.466,-0.381,9.733,0.15546430458468594,3.5388935646861834,0.046215538847117786,0,0.05
1757391506.916957,0.466,-0.375,9.73,0.15720063613102842,3.517808856692818,0.046215538847117786,0,0.05
1757391506.942268,0.466,-0.375,9.73,0.15720063613102842,3.517808856692818,0.046215538847117786,0,0.05
1757391506.9673164,0.46,-0.372,9.723,0.15887428992760283,3.481860494097861,0.04651629072681704,0,0.05
1757391506.9926648,0.46,-0.372,9.723,0.15887428992760283,3.481860494097861,0.04651629072681704,0,0.05
1757391507.0177152,0.455,-0.362,9.732,0.16049486751918268,3.4190643407256562,0.04676691729323308,0,0.05
1757391507.0426178,0.455,-0.362,9.732,0.16049486751918268,3.4190643407256562,0.04676691729323308,0,0.05
1757391507.0674584,0.446,-0.359,9.736,0.16203670108959883,3.3654619484832096,0.04721804511278196,0,0.05
1757391507.0924826,0.446,-0.359,9.736,0.16203670108959883,3.3654619484832096,0.04721804511278196,0,0.05
1757391507.1174097,0.446,-0.359,9.736,0.16203670108959883,3.3654619484832096,0.04721804511278196,0,0.05
1757391507.1422727,0.448,-0.36,9.74,0.16357766504018817,3.3768931404757367,0.04731829573934837,0,0.05
1757391507.1673129,0.448,-0.36,9.74,0.16357766504018817,3.3768931404757367,0.04731829573934837,0,0.05
1757391507.1923003,0.433,-0.357,9.743,0.1650041666140586,3.296574253803364,0.04807017543859649,0,0.05
1757391507.217428,0.433,-0.357,9.743,0.1650041666140586,3.296574253803364,0.04807017543859649,0,0.05
1757391507.242382,0.426,-0.349,9.744,0.1663732700886774,3.2347693751492557,0.04842105263157895,0,0.05
1757391507.267258,0.426,-0.349,9.744,0.1663732700886774,3.2347693751492557,0.04842105263157895,0,0.05
1757391507.292534,0.427,-0.348,9.758,0.1677375554251343,3.230967115397405,0.04847117794486216,0,0.05
1757391507.3176258,0.427,-0.348,9.758,0.1677375554251343,3.230967115397405,0.04847117794486216,0,0.05
1757391507.3427675,0.419,-0.346,9.761,0.16904079389307186,3.1863617838365745,0.04887218045112782,0,0.05
1757391507.367806,0.419,-0.346,9.761,0.16904079389307186,3.1863617838365745,0.04887218045112782,0,0.05
1757391507.3928816,0.409,-0.338,9.761,0.17027328768776387,3.111426874579601,0.04937343358395989,0,0.05
1757391507.4184039,0.409,-0.338,9.761,0.17027328768776387,3.111426874579601,0.04937343358395989,0,0.05
1757391507.4437308,0.4,-0.332,9.757,0.1714438464920803,3.0497052958451616,0.04982456140350877,0,0.05
1757391507.4693983,0.4,-0.332,9.757,0.1714438464920803,3.0497052958451616,0.04982456140350877,0,0.05
1757391507.4955637,0.4,-0.332,9.757,0.1714438464920803,3.0497052958451616,0.04982456140350877,0,0.05
1757391507.522073,0.398,-0.332,9.755,0.17259490867346,3.0413250514232706,0.049924812030075184,0,0.05
1757391507.5485036,0.398,-0.332,9.755,0.17259490867346,3.0413250514232706,0.049924812030075184,0,0.05
1757391507.575551,0.367,-0.331,9.756,0.17356763811263898,2.8999936270642395,0.05147869674185464,0,0.05
1757391507.6020465,0.367,-0.331,9.756,0.17356763811263898,2.8999936270642395,0.05147869674185464,0,0.05
1757391507.6296706,0.36,-0.33,9.765,0.1744984956955217,2.86307606484771,0.051829573934837087,0,0.05
1757391507.655759,0.36,-0.33,9.765,0.1744984956955217,2.86307606484771,0.051829573934837087,0,0.05
1757391507.6819692,0.336,-0.396,9.799,0.17530534789332583,3.033785513374325,0.053032581453634084,0,0.05
1757391507.709436,0.336,-0.396,9.799,0.17530534789332583,3.033785513374325,0.053032581453634084,0,0.05
1757391507.7369049,0.755,-0.325,9.749,0.1793238062834938,4.819450146285951,0.07403508771929825,0,0.05
1757391507.7642443,0.755,-0.325,9.749,0.1793238062834938,4.819450146285951,0.07403508771929825,0,0.05
1757391507.7912998,0.687,-0.276,9.624,0.1825840902159879,4.399063177886054,0.07744360902255638,0,0.05
1757391507.8185976,0.687,-0.276,9.624,0.1825840902159879,4.399063177886054,0.07744360902255638,0,0.05
1757391507.8460574,0.383,-0.271,9.714,0.18358559992548437,2.7652014712496,0.09268170426065162,0,0.05
1757391507.8731349,0.383,-0.271,9.714,0.18358559992548437,2.7652014712496,0.09268170426065162,0,0.05
1757391507.8997965,0.4,-0.208,9.772,0.1846717967097304,2.6415664847856695,0.09353383458646616,0,0.05
1757391507.926354,0.4,-0.208,9.772,0.1846717967097304,2.6415664847856695,0.09353383458646616,0,0.05
1757391507.953313,0.302,-0.292,9.76,0.18528810674190613,2.464551114240842,0.09844611528822056,0,0.05
1757391507.9814646,0.302,-0.292,9.76,0.18528810674190613,2.464551114240842,0.09844611528822056,0,0.05
1757391508.0088556,0.472,-0.404,9.816,0.18678501679738663,3.621619348551823,0.10696741854636592,0,0.05
1757391508.0363536,0.472,-0.404,9.816,0.18678501679738663,3.621619348551823,0.10696741854636592,0,0.05
1757391508.0620875,0.39,-0.451,10.035,0.18780013977630583,3.4002855691330454,0.11107769423558897,0,0.05
1757391508.0882828,0.39,-0.451,10.035,0.18780013977630583,3.4002855691330454,0.11107769423558897,0,0.05
1757391508.1151464,0.407,-0.471,9.953,0.1888994838531858,3.5787682510345675,0.1119298245614035,0,0.05
1757391508.1416478,0.407,-0.471,9.953,0.1888994838531858,3.5787682510345675,0.1119298245614035,0,0.05
1757391508.1684587,0.489,-0.518,9.971,0.19047524117322964,4.086402609490346,0.11604010025062655,0,0.05
1757391508.1955824,0.489,-0.518,9.971,0.19047524117322964,4.086402609490346,0.11604010025062655,0,0.05
1757391508.2225523,0.393,-0.44,9.969,0.19148613526832695,3.386764573804593,0.12085213032581456,0,0.05
1757391508.2494087,0.393,-0.44,9.969,0.19148613526832695,3.386764573804593,0.12085213032581456,0,0.05
1757391508.276635,0.411,-0.312,9.946,0.19258567573939658,2.9699013091228776,0.12175438596491228,0,0.05
1757391508.303307,0.411,-0.312,9.946,0.19258567573939658,2.9699013091228776,0.12175438596491228,0,0.05
1757391508.3302004,0.387,-0.506,10.036,0.19355532800726516,3.6319380866858455,0.12295739348370927,0,0.05
1757391508.3569472,0.387,-0.506,10.036,0.19355532800726516,3.6319380866858455,0.12295739348370927,0,0.05
1757391508.3829608,0.394,-0.489,9.981,0.19455527492206426,3.6001555767730817,0.12330827067669171,0,0.05
1757391508.4093828,0.394,-0.489,9.981,0.19455527492206426,3.6001555767730817,0.12330827067669171,0,0.05
1757391508.4360628,0.517,-0.351,9.782,0.1962650694851226,3.6551920912847127,0.1294736842105263,0,0.05
1757391508.4639037,0.517,-0.351,9.782,0.1962650694851226,3.6551920912847127,0.1294736842105263,0,0.05
1757391508.4911246,0.709,-0.406,9.678,0.19944091856988627,4.825470339673009,0.13909774436090225,0,0.05
1757391508.5187418,0.709,-0.406,9.678,0.19944091856988627,4.825470339673009,0.13909774436090225,0,0.05
1757391508.5446506,0.529,-0.465,9.687,0.20118718274283776,4.158526992328605,0.14812030075187968,0,0.05
1757391508.571377,0.529,-0.465,9.687,0.20118718274283776,4.158526992328605,0.14812030075187968,0,0.05
1757391508.5976894,0.494,-0.454,9.597,0.20269773679052266,3.9990854433696414,0.14987468671679197,0,0.05
1757391508.6255074,0.494,-0.454,9.597,0.20269773679052266,3.9990854433696414,0.14987468671679197,0,0.05
1757391508.6522124,0.677,-0.462,9.6,0.20550473230560895,4.879898283263216,0.15904761904761905,0,0.05
1757391508.6800866,0.677,-0.462,9.6,0.20550473230560895,4.879898283263216,0.15904761904761905,0,0.05
1757391508.7081254,0.575,-0.524,9.557,0.20750604208070667,4.6536571591117495,0.16416040100250626,0,0.05
1757391508.7351491,0.575,-0.524,9.557,0.20750604208070667,4.6536571591117495,0.16416040100250626,0,0.05
1757391508.7614484,0.535,-0.575,9.599,0.2092231344760899,4.677567637459227,0.16616541353383457,0,0.05
1757391508.7885242,0.535,-0.575,9.599,0.2092231344760899,4.677567637459227,0.16616541353383457,0,0.05
1757391508.815448,0.581,-0.523,9.627,0.2112302594326864,4.642291877209549,0.16847117794486216,0,0.05
1757391508.8426564,0.581,-0.523,9.627,0.2112302594326864,4.642291877209549,0.16847117794486216,0,0.05
1757391508.8702266,0.55,-0.283,9.522,0.21301284585676986,3.7166439012545953,0.1700250626566416,0,0.05
1757391508.897327,0.55,-0.283,9.522,0.21301284585676986,3.7166439012545953,0.1700250626566416,0,0.05
1757391508.9246473,0.351,-0.248,9.506,0.21373459008780024,2.5886212350277336,0.18000000000000002,0,0.05
1757391508.9525971,0.351,-0.248,9.506,0.21373459008780024,2.5886212350277336,0.18000000000000002,0,0.05
1757391508.9803274,0.382,-0.175,9.542,0.2145863113061968,2.5213630391545023,0.18155388471177947,0,0.05
1757391509.0072796,0.382,-0.175,9.542,0.2145863113061968,2.5213630391545023,0.18155388471177947,0,0.05
1757391509.033988,0.26,-0.186,9.622,0.21497973160277226,1.902893615164087,0.18766917293233085,0,0.05
1757391509.0607781,0.26,-0.186,9.622,0.21497973160277226,1.902893615164087,0.18766917293233085,0,0.05
1757391509.0866094,0.163,-0.137,9.542,0.21513416162943533,1.2783280820669065,0.19253132832080203,0,0.05
1757391509.1139445,0.163,-0.137,9.542,0.21513416162943533,1.2783280820669065,0.19253132832080203,0,0.05
1757391509.1402917,0.341,-0.147,9.591,0.21580873476298407,2.2172173272915656,0.20145363408521305,0,0.05
1757391509.1675234,0.341,-0.147,9.591,0.21580873476298407,2.2172173272915656,0.20145363408521305,0,0.05
1757391509.194485,0.398,-0.291,9.752,0.2167242949002257,2.8942657281038273,0.2043107769423559,0,0.05
1757391509.2211792,0.398,-0.291,9.752,0.2167242949002257,2.8942657281038273,0.2043107769423559,0,0.05
1757391509.2479506,0.222,-0.279,9.689,0.21700836389411354,2.1074789150649793,0.2131328320802005,0,0.05
1757391509.274349,0.222,-0.279,9.689,0.21700836389411354,2.1074789150649793,0.2131328320802005,0,0.05
1757391509.3004005,0.362,-0.263,9.754,0.21776188830922644,2.6265256909861825,0.2201503759398496,0,0.05
1757391509.3275194,0.362,-0.263,9.754,0.21776188830922644,2.6265256909861825,0.2201503759398496,0,0.05
1757391509.3543062,0.59,-0.305,9.823,0.219750972694093,3.8681100073067176,0.23157894736842102,0,0.05
1757391509.3814692,0.59,-0.305,9.823,0.219750972694093,3.8681100073067176,0.23157894736842102,0,0.05
1757391509.4082315,0.306,-0.389,9.859,0.2202829544018329,2.8738908105470453,0.2458145363408521,0,0.05
1757391509.4353359,0.306,-0.389,9.859,0.2202829544018329,2.8738908105470453,0.2458145363408521,0,0.05
1757391509.4622273,0.464,-0.388,9.721,0.22150128667797847,3.560391678172742,0.2537343358395989,0,0.05
1757391509.4893885,0.464,-0.388,9.721,0.22150128667797847,3.560391678172742,0.2537343358395989,0,0.05
1757391509.5154324,0.464,-0.388,9.721,0.22150128667797847,3.560391678172742,0.2537343358395989,0,0.05
1757391509.541084,0.665,-0.374,9.71,0.22398299600639332,4.492739037289701,0.26380952380952377,0,0.05
1757391509.5682967,0.526,-0.515,9.714,0.22552177832750434,4.333663792491754,0.27077694235588967,0,0.05
1757391509.59563,0.526,-0.515,9.714,0.22552177832750434,4.333663792491754,0.27077694235588967,0,0.05
1757391509.622702,0.458,-0.379,9.666,0.22668145601261697,3.519374708359982,0.2741854636591478,0,0.05
1757391509.6506035,0.458,-0.379,9.666,0.22668145601261697,3.519374708359982,0.2741854636591478,0,0.05
1757391509.6777854,0.487,-0.434,9.709,0.22798553682196598,3.843779409631936,0.27563909774436085,0,0.05
1757391509.7051435,0.487,-0.434,9.709,0.22798553682196598,3.843779409631936,0.27563909774436085,0,0.05
1757391509.7321792,0.342,-0.555,9.551,0.22862592810090462,3.904716882230074,0.282907268170426,0,0.05
1757391509.7590492,0.342,-0.555,9.551,0.22862592810090462,3.904716882230074,0.282907268170426,0,0.05
1757391509.7860408,0.2,-0.55,9.606,0.22884452145507,3.486373192637681,0.2900250626566416,0,0.05
1757391509.8131003,0.2,-0.55,9.606,0.22884452145507,3.486373192637681,0.2900250626566416,0,0.05
1757391509.8400376,0.35,-0.338,9.715,0.2295126684956628,2.867190750135328,0.2975438596491228,0,0.05
1757391509.8671331,0.35,-0.338,9.715,0.2295126684956628,2.867190750135328,0.2975438596491228,0,0.05
1757391509.8941016,0.428,-0.536,9.745,0.23050818857472288,4.026203358573015,0.30145363408521303,0,0.05
1757391509.9210448,0.428,-0.536,9.745,0.23050818857472288,4.026203358573015,0.30145363408521303,0,0.05
1757391509.948113,0.167,-0.546,9.71,0.23065937548688542,3.365237577700387,0.31453634085213034,0,0.05
1757391509.9751854,0.167,-0.546,9.71,0.23065937548688542,3.365237577700387,0.31453634085213034,0,0.05
1757391510.0013773,0.395,-0.163,9.713,0.2315033693059347,2.519025396604826,0.32596491228070174,0,0.05
1757391510.0276809,0.395,-0.163,9.713,0.2315033693059347,2.519025396604826,0.32596491228070174,0,0.05
1757391510.0535243,0.54,-0.318,9.885,0.23307254235537914,3.627512014116185,0.33323308270676694,0,0.05
1757391510.0804272,0.54,-0.318,9.885,0.23307254235537914,3.627512014116185,0.33323308270676694,0,0.05
1757391510.1071367,0.122,-0.46,9.805,0.23315235362311915,2.778773223456334,0.35418546365914794,0,0.05
1757391510.1341684,0.122,-0.46,9.805,0.23315235362311915,2.778773223456334,0.35418546365914794,0,0.05
1757391510.1607778,0.238,-0.491,9.76,0.23345584164890798,3.199842628929871,0.36000000000000004,0,0.05
1757391510.1879,0.238,-0.491,9.76,0.23345584164890798,3.199842628929871,0.36000000000000004,0,0.05
1757391510.2148967,0.248,-0.335,9.885,0.2337849225249567,2.414487339352221,0.3605012531328321,0,0.05
1757391510.2420108,0.248,-0.335,9.885,0.2337849225249567,2.414487339352221,0.3605012531328321,0,0.05
1757391510.2689822,0.174,-0.316,9.801,0.23394674607696514,2.107891718064749,0.3642105263157894,0,0.05
1757391510.2940104,0.174,-0.316,9.801,0.23394674607696514,2.107891718064749,0.3642105263157894,0,0.05
1757391510.3197174,0.155,-0.218,9.684,0.2340750787674758,1.5821921464324673,0.3651629072681703,0,0.05
1757391510.3476682,0.155,-0.218,9.684,0.2340750787674758,1.5821921464324673,0.3651629072681703,0,0.05
1757391510.3745039,0.319,-0.337,9.804,0.23461787016337865,2.7098646768101537,0.37338345864661654,0,0.05
1757391510.401657,0.319,-0.337,9.804,0.23461787016337865,2.7098646768101537,0.37338345864661654,0,0.05
1757391510.428591,0.164,-0.36,9.707,0.23476112327214657,2.333721150498691,0.3811528822055136,0,0.05
1757391510.4558704,0.164,-0.36,9.707,0.23476112327214657,2.333721150498691,0.3811528822055136,0,0.05
1757391510.4828649,0.222,-0.419,9.653,0.2350233924527514,2.8122439396459176,0.3840601503759397,0,0.05
1757391510.509901,0.222,-0.419,9.653,0.2350233924527514,2.8122439396459176,0.3840601503759397,0,0.05
1757391510.5369172,0.306,-0.445,9.879,0.2355208801783825,3.1290806550340835,0.3882706766917292,0,0.05
1757391510.564042,0.306,-0.445,9.879,0.2355208801783825,3.1290806550340835,0.3882706766917292,0,0.05
1757391510.5912504,0.255,-0.347,9.952,0.23586574041178596,2.477628163547431,0.3908270676691729,0,0.05
1757391510.6170702,0.255,-0.347,9.952,0.23586574041178596,2.477628163547431,0.3908270676691729,0,0.05
1757391510.6433485,0.322,-0.384,9.914,0.23641458817086564,2.8937577698365975,0.39418546365914786,0,0.05
1757391510.6703722,0.322,-0.384,9.914,0.23641458817086564,2.8937577698365975,0.39418546365914786,0,0.05
1757391510.6973846,0.248,-0.315,9.959,0.23673955626384027,2.3052582616597324,0.39789473684210525,0,0.05
1757391510.724179,0.248,-0.315,9.959,0.23673955626384027,2.3052582616597324,0.39789473684210525,0,0.05
1757391510.7520955,0.372,-0.141,9.903,0.23746910851729747,2.3004607894900766,0.40411027568922303,0,0.05
1757391510.7788126,0.372,-0.141,9.903,0.23746910851729747,2.3004607894900766,0.40411027568922303,0,0.05
1757391510.8049564,0.484,-0.353,9.973,0.2386990102618777,3.4374853271891017,0.4097243107769423,0,0.05
1757391510.8319914,0.484,-0.353,9.973,0.2386990102618777,3.4374853271891017,0.4097243107769423,0,0.05
1757391510.859006,0.23,-0.289,9.927,0.2389758722130751,2.1308110492484387,0.4224561403508772,0,0.05
1757391510.8861969,0.23,-0.289,9.927,0.2389758722130751,2.1308110492484387,0.4224561403508772,0,0.05
1757391510.9132407,0.269,-0.076,9.964,0.23935406827543165,1.6069537782381886,0.4244110275689223,0,0.05
1757391510.940219,0.269,-0.076,9.964,0.23935406827543165,1.6069537782381886,0.4244110275689223,0,0.05
1757391510.9672387,-0.634,-0.089,10.085,0.2414441136163812,3.63237872011946,0.4696741854636591,0,0.05
1757391510.9941018,-0.634,-0.089,10.085,0.2414441136163812,3.63237872011946,0.4696741854636591,0,0.05
1757391511.020402,-0.192,-0.03,10.204,0.24163488986485374,1.0910349935840322,0.4918295739348371,0,0.05
1757391511.0477533,-0.192,-0.03,10.204,0.24163488986485374,1.0910349935840322,0.4918295739348371,0,0.05
1757391511.0749552,-0.209,0.209,9.803,0.2418607502262407,1.7270040736252112,0.49268170426065167,0,0.05
1757391511.1015785,-0.209,0.209,9.803,0.2418607502262407,1.7270040736252112,0.49268170426065167,0,0.05
1757391511.1285536,0.638,-0.063,9.618,0.24395539038930866,3.8134992862381067,0.5351378446115288,0,0.05
1757391511.1560307,0.638,-0.063,9.618,0.24395539038930866,3.8134992862381067,0.5351378446115288,0,0.05
1757391511.1835608,0.304,0.16,9.75,0.2444284609042081,2.0179427427414054,0.5518796992481203,0,0.05
1757391511.210495,0.304,0.16,9.75,0.2444284609042081,2.0179427427414054,0.5518796992481203,0,0.05
1757391511.2378392,0.415,-0.069,9.889,0.24530763339121758,2.4360035689214237,0.5574436090225564,0,0.05
1757391511.2649043,0.415,-0.069,9.889,0.24530763339121758,2.4360035689214237,0.5574436090225564,0,0.05
1757391511.2915647,0.213,-0.2,9.742,0.24553870876096096,1.7178863868831518,0.5675689223057644,0,0.05
1757391511.3183513,0.213,-0.2,9.742,0.24553870876096096,1.7178863868831518,0.5675689223057644,0,0.05
1757391511.3455358,0.399,-0.384,9.827,0.24634784350588498,3.2252920756692314,0.5768922305764411,0,0.05
1757391511.373099,0.399,-0.384,9.827,0.24634784350588498,3.2252920756692314,0.5768922305764411,0,0.05
1757391511.4009776,0.434,-0.158,9.941,0.24730173877269848,2.660088889239615,0.5786466165413533,0,0.05
1757391511.4284327,0.434,-0.158,9.941,0.24730173877269848,2.660088889239615,0.5786466165413533,0,0.05
1757391511.456056,0.574,-0.348,9.928,0.24896152313158756,3.867998971220416,0.5856641604010023,0,0.05
1757391511.4841163,0.574,-0.348,9.928,0.24896152313158756,3.867998971220416,0.5856641604010023,0,0.05
1757391511.5105643,0.307,-0.424,9.928,0.2494342849329258,3.0182414197573117,0.599047619047619,0,0.05
1757391511.5378475,0.307,-0.424,9.928,0.2494342849329258,3.0182414197573117,0.599047619047619,0,0.05
1757391511.5652242,0.296,-0.341,9.831,0.2498729727281444,2.6298151711447977,0.5995989974937342,0,0.05
1757391511.5923588,0.296,-0.341,9.831,0.2498729727281444,2.6298151711447977,0.5995989974937342,0,0.05
1757391511.6194785,0.552,-0.562,9.918,0.2513926460738261,4.541250454717875,0.6124310776942354,0,0.05
1757391511.6470098,0.552,-0.562,9.918,0.2513926460738261,4.541250454717875,0.6124310776942354,0,0.05
1757391511.6741047,0.296,-0.471,9.816,0.2518279223994035,3.2435750179022746,0.6252631578947367,0,0.05
1757391511.7012968,0.296,-0.471,9.816,0.2518279223994035,3.2435750179022746,0.6252631578947367,0,0.05
1757391511.7283354,0.338,-0.458,9.687,0.2523943590891048,3.3628856120341433,0.6273684210526315,0,0.05
1757391511.7556672,0.338,-0.458,9.687,0.2523943590891048,3.3628856120341433,0.6273684210526315,0,0.05
1757391511.783451,0.457,-0.267,9.614,0.25342658700302145,3.151130155854354,0.6333333333333334,0,0.05
1757391511.8112183,0.457,-0.267,9.614,0.25342658700302145,3.151130155854354,0.6333333333333334,0,0.05
1757391511.8381457,0.461,-0.212,9.652,0.2544726655261818,3.0092953718670374,0.6335338345864661,0,0.05
1757391511.8652368,0.461,-0.212,9.652,0.2544726655261818,3.0092953718670374,0.6335338345864661,0,0.05
1757391511.8920295,0.333,-0.285,9.711,0.25501678376138304,2.5843035990368612,0.6399498746867168,0,0.05
1757391511.919336,0.333,-0.285,9.711,0.25501678376138304,2.5843035990368612,0.6399498746867168,0,0.05
1757391511.9466681,0.401,-0.286,9.626,0.25580375779100667,2.929145210313502,0.6433583959899749,0,0.05
1757391511.9733384,0.401,-0.286,9.626,0.25580375779100667,2.929145210313502,0.6433583959899749,0,0.05
1757391511.9998538,0.415,-0.476,9.701,0.2566439654462968,3.72453372147704,0.6440601503759399,0,0.05
1757391512.025721,0.415,-0.476,9.701,0.2566439654462968,3.72453372147704,0.6440601503759399,0,0.05
1757391512.0518675,0.353,-0.348,9.594,0.25725016520888766,2.957678628077041,0.6471679197994988,0,0.05
1757391512.0789363,0.353,-0.348,9.594,0.25725016520888766,2.957678628077041,0.6471679197994988,0,0.05
1757391512.1059747,0.46,-0.408,9.567,0.25827630069365637,3.6773301463791714,0.6525313283208022,0,0.05
1757391512.1328895,0.46,-0.408,9.567,0.25827630069365637,3.6773301463791714,0.6525313283208022,0,0.05
1757391512.1600916,0.286,-0.168,9.653,0.2586718722629115,1.9680009654413042,0.6612531328320801,0,0.05
1757391512.187619,0.286,-0.168,9.653,0.2586718722629115,1.9680009654413042,0.6612531328320801,0,0.05
1757391512.214538,0.329,-0.054,9.677,0.259194405803829,1.9732338208743867,0.6634085213032582,0,0.05
1757391512.241462,0.329,-0.054,9.677,0.259194405803829,1.9732338208743867,0.6634085213032582,0,0.05
1757391512.268032,0.335,-0.122,9.663,0.25973506213062575,2.113011459439331,0.6637092731829575,0,0.05
1757391512.2939684,0.335,-0.122,9.663,0.25973506213062575,2.113011459439331,0.6637092731829575,0,0.05
1757391512.3209753,0.251,-0.252,9.74,0.2600380837492847,2.0913397397114957,0.6679197994987469,0,0.05
1757391512.3477685,0.251,-0.252,9.74,0.2600380837492847,2.0913397397114957,0.6679197994987469,0,0.05
1757391512.375097,0.392,-0.315,9.745,0.2607756986377373,2.9540694291004796,0.6749874686716791,0,0.05
1757391512.402667,0.392,-0.315,9.745,0.2607756986377373,2.9540694291004796,0.6749874686716791,0,0.05
1757391512.4302096,0.269,-0.232,9.779,0.2611223228680382,2.0803726715149375,0.6811528822055138,0,0.05
1757391512.4582055,0.269,-0.232,9.779,0.2611223228680382,2.0803726715149375,0.6811528822055138,0,0.05
1757391512.4852414,0.334,-0.215,9.76,0.2616557996681901,2.3305614363960316,0.6844110275689224,0,0.05
1757391512.5118861,0.334,-0.215,9.76,0.2616557996681901,2.3305614363960316,0.6844110275689224,0,0.05
1757391512.538359,0.265,-0.162,9.789,0.2619910685500557,1.8173246497870297,0.6878696741854637,0,0.05
1757391512.5643466,0.265,-0.162,9.789,0.2619910685500557,1.8173246497870297,0.6878696741854637,0,0.05
1757391512.5905604,0.393,-0.079,9.762,0.26272693523885216,2.351442313762087,0.6942857142857144,0,0.05
1757391512.6175587,0.393,-0.079,9.762,0.26272693523885216,2.351442313762087,0.6942857142857144,0,0.05
1757391512.6433828,0.349,-0.154,9.811,0.26330580130335146,2.2266272225438244,0.6964912280701755,0,0.05
1757391512.670477,0.349,-0.154,9.811,0.26330580130335146,2.2266272225438244,0.6964912280701755,0,0.05
1757391512.6974347,0.33,-0.324,9.869,0.2638222791956737,2.6829521098409423,0.6974436090225564,0,0.05
1757391512.723143,0.33,-0.324,9.869,0.2638222791956737,2.6829521098409423,0.6974436090225564,0,0.05
1757391512.7504263,0.2,-0.243,9.872,0.26401173269383316,1.825977692451377,0.7039598997493735,0,0.05
1757391512.776734,0.2,-0.243,9.872,0.26401173269383316,1.825977692451377,0.7039598997493735,0,0.05
1757391512.8030562,0.435,-0.164,9.81,0.2649061296006569,2.713171968103999,0.7157393483709275,0,0.05
1757391512.8300188,0.435,-0.164,9.81,0.2649061296006569,2.713171968103999,0.7157393483709275,0,0.05
1757391512.857069,0.36,-0.077,9.903,0.2655169627349635,2.1289821947819076,0.7194987468671679,0,0.05
1757391512.8848195,0.36,-0.077,9.903,0.2655169627349635,2.1289821947819076,0.7194987468671679,0,0.05
1757391512.9109824,0.428,-0.271,9.877,0.2663779598615471,2.9360718560658587,0.722907268170426,0,0.05
1757391512.937655,0.428,-0.271,9.877,0.2663779598615471,2.9360718560658587,0.722907268170426,0,0.05
1757391512.964032,0.23,-0.069,9.852,0.2666260818074631,1.3962183348172708,0.7328320802005012,0,0.05
1757391512.9907615,0.23,-0.069,9.852,0.2666260818074631,1.3962183348172708,0.7328320802005012,0,0.05
1757391513.0176275,0.499,-0.125,9.888,0.26779090723921156,2.978098629245247,0.7463157894736842,0,0.05
1757391513.0446818,0.499,-0.125,9.888,0.26779090723921156,2.978098629245247,0.7463157894736842,0,0.05
1757391513.071644,0.285,-0.105,9.821,0.26816978297339916,1.7713798826831484,0.7570426065162906,0,0.05
1757391513.0989017,0.285,-0.105,9.821,0.26816978297339916,1.7713798826831484,0.7570426065162906,0,0.05
1757391513.126657,0.398,-0.104,9.681,0.26890712616068774,2.4331399008740475,0.7627067669172931,0,0.05
1757391513.1535676,0.398,-0.104,9.681,0.26890712616068774,2.4331399008740475,0.7627067669172931,0,0.05
1757391513.180873,0.521,-0.239,9.703,0.27016595825529166,3.3808104673588257,0.7688721804511276,0,0.05
1757391513.2083645,0.521,-0.239,9.703,0.27016595825529166,3.3808104673588257,0.7688721804511276,0,0.05
1757391513.2345333,0.248,-0.185,9.79,0.2704503743757808,1.8101608729575467,0.7825563909774433,0,0.05
1757391513.2617183,0.248,-0.185,9.79,0.2704503743757808,1.8101608729575467,0.7825563909774433,0,0.05
1757391513.2883139,0.361,-0.368,9.734,0.2710520383616401,3.0315051889486213,0.7882205513784457,0,0.05
1757391513.3153782,0.361,-0.368,9.734,0.2710520383616401,3.0315051889486213,0.7882205513784457,0,0.05
1757391513.3425844,0.431,-0.441,9.769,0.27190735554596535,3.6118255190805937,0.7917293233082703,0,0.05
1757391513.3697996,0.431,-0.441,9.769,0.27190735554596535,3.6118255190805937,0.7917293233082703,0,0.05
1757391513.3970203,0.387,-0.424,9.691,0.27259499720281005,3.390035139967653,0.7939348370927315,0,0.05
1757391513.4241905,0.387,-0.424,9.691,0.27259499720281005,3.390035139967653,0.7939348370927315,0,0.05
1757391513.451284,0.468,-0.335,9.617,0.27359750090232915,3.4248583938015433,0.7979949874686715,0,0.05
1757391513.4788353,0.468,-0.335,9.617,0.27359750090232915,3.4248583938015433,0.7979949874686715,0,0.05
1757391513.5056932,0.433,-0.363,9.765,0.27445275549718934,3.3115955857517783,0.7997493734335838,0,0.05
1757391513.5326662,0.433,-0.363,9.765,0.27445275549718934,3.3115955857517783,0.7997493734335838,0,0.05
1757391513.5594132,0.473,-0.42,9.791,0.27546984862231294,3.6965147798281017,0.8017543859649122,0,0.05
1757391513.5856707,0.473,-0.42,9.791,0.27546984862231294,3.6965147798281017,0.8017543859649122,0,0.05
1757391513.612994,0.407,-0.327,9.871,0.27622049163666335,3.0276271619684403,0.8050626566416039,0,0.05
1757391513.6402025,0.407,-0.327,9.871,0.27622049163666335,3.0276271619684403,0.8050626566416039,0,0.05
1757391513.6669612,0.331,-0.379,9.945,0.2767158515517317,2.896551191981165,0.8088721804511279,0,0.05
1757391513.6938853,0.331,-0.379,9.945,0.2767158515517317,2.896551191981165,0.8088721804511279,0,0.05
1757391513.7207632,0.521,-0.485,9.836,0.2779393189169176,4.139125275964182,0.8183959899749373,0,0.05
1757391513.7479236,0.521,-0.485,9.836,0.2779393189169176,4.139125275964182,0.8183959899749373,0,0.05
1757391513.775137,0.421,-0.486,9.809,0.2787353000608283,3.7504352921953066,0.823408521303258,0,0.05
1757391513.8023486,0.421,-0.486,9.809,0.2787353000608283,3.7504352921953066,0.823408521303258,0,0.05
1757391513.8294456,0.455,-0.379,9.9,0.279662171199467,3.4230805640044712,0.8251127819548871,0,0.05
1757391513.8572743,0.455,-0.379,9.9,0.279662171199467,3.4230805640044712,0.8251127819548871,0,0.05
1757391513.8844712,0.439,-0.378,9.859,0.2805222495632031,3.3628298161034644,0.8259147869674185,0,0.05
1757391513.9104884,0.439,-0.378,9.859,0.2805222495632031,3.3628298161034644,0.8259147869674185,0,0.05
1757391513.9374514,0.532,-0.404,9.854,0.2817805750934581,3.878201420170191,0.8305764411027569,0,0.05
1757391513.9640274,0.532,-0.404,9.854,0.2817805750934581,3.878201420170191,0.8305764411027569,0,0.05
1757391513.9905865,0.382,-0.278,9.903,0.28242716317663213,2.7313764977611874,0.838095238095238,0,0.05
1757391514.0177891,0.382,-0.278,9.903,0.28242716317663213,2.7313764977611874,0.838095238095238,0,0.05
1757391514.0438886,0.446,-0.13,9.903,0.2833061815421612,2.6858354402709055,0.8413032581453633,0,0.05
1757391514.0709794,0.446,-0.13,9.903,0.2833061815421612,2.6858354402709055,0.8413032581453633,0,0.05
1757391514.0981977,0.464,-0.327,9.972,0.28425452063247825,3.258003484297412,0.8422055137844611,0,0.05
1757391514.1251469,0.464,-0.327,9.972,0.28425452063247825,3.258003484297412,0.8422055137844611,0,0.05
1757391514.1512623,0.265,-0.384,9.973,0.28456316521995606,2.6784931575693025,0.8521804511278195,0,0.05
1757391514.1772423,0.265,-0.384,9.973,0.28456316521995606,2.6784931575693025,0.8521804511278195,0,0.05
1757391514.2042754,0.539,-0.281,9.92,0.2858364873489737,3.506428145016093,0.8659147869674185,0,0.05
1757391514.23148,0.539,-0.281,9.92,0.2858364873489737,3.506428145016093,0.8659147869674185,0,0.05
1757391514.257303,0.605,-0.43,9.952,0.28743270516766184,4.265354993415123,0.8692230576441101,0,0.05
1757391514.284176,0.605,-0.43,9.952,0.28743270516766184,4.265354993415123,0.8692230576441101,0,0.05
1757391514.311208,0.153,-0.408,10.039,0.28753448923563935,2.4853712424406855,0.8918796992481204,0,0.05
1757391514.33836,0.153,-0.408,10.039,0.28753448923563935,2.4853712424406855,0.8918796992481204,0,0.05
1757391514.3648067,0.377,-0.331,9.943,0.2881517048361852,2.8884844325087506,0.9031077694235589,0,0.05
1757391514.3915997,0.377,-0.331,9.943,0.2881517048361852,2.8884844325087506,0.9031077694235589,0,0.05
1757391514.418398,0.517,-0.333,9.764,0.2893088790548952,3.6038750329946034,0.9101253132832082,0,0.05
1757391514.4448802,0.517,-0.333,9.764,0.2893088790548952,3.6038750329946034,0.9101253132832082,0,0.05
1757391514.4718282,0.424,-0.306,9.836,0.29008458680184995,3.0430163448203422,0.9147869674185465,0,0.05
1757391514.4985292,0.424,-0.306,9.836,0.29008458680184995,3.0430163448203422,0.9147869674185465,0,0.05
1757391514.5252962,0.433,-0.293,9.816,0.2908913714773953,3.0487928825675925,0.9152380952380953,0,0.05
1757391514.5526764,0.433,-0.293,9.816,0.2908913714773953,3.0487928825675925,0.9152380952380953,0,0.05
1757391514.579481,0.474,-0.218,9.812,0.2918552380890225,3.0436895919976785,0.9172932330827067,0,0.05
1757391514.6064548,0.474,-0.218,9.812,0.2918552380890225,3.0436895919976785,0.9172932330827067,0,0.05
1757391514.6333704,0.469,-0.25,9.74,0.29279580341937966,3.1232910063432042,0.917543859649123,0,0.05
1757391514.6604955,0.469,-0.25,9.74,0.29279580341937966,3.1232910063432042,0.917543859649123,0,0.05
1757391514.6871955,0.387,-0.229,9.689,0.2934344986534474,2.65725638353702,0.9216541353383458,0,0.05
1757391514.7139323,0.387,-0.229,9.689,0.2934344986534474,2.65725638353702,0.9216541353383458,0,0.05
1757391514.741186,0.552,-0.298,9.605,0.2947296473041014,3.736678265668225,0.9299248120300753,0,0.05
1757391514.768466,0.552,-0.298,9.605,0.2947296473041014,3.736678265668225,0.9299248120300753,0,0.05
1757391514.7958953,0.358,-0.308,9.583,0.2952727129282352,2.821302361921275,0.9396491228070174,0,0.05
1757391514.82328,0.358,-0.308,9.583,0.2952727129282352,2.821302361921275,0.9396491228070174,0,0.05
1757391514.8505254,0.429,-0.263,9.523,0.29605080222826624,3.024722680785818,0.9432080200501254,0,0.05
1757391514.8762107,0.429,-0.263,9.523,0.29605080222826624,3.024722680785818,0.9432080200501254,0,0.05
1757391514.9017813,0.428,-0.214,9.435,0.29682324285675477,2.9034045027653046,0.9432581453634085,0,0.05
1757391514.928806,0.428,-0.214,9.435,0.29682324285675477,2.9034045027653046,0.9432581453634085,0,0.05
1757391514.9555583,0.41,-0.179,9.638,0.2975303135816585,2.6576153703276977,0.9441604010025062,0,0.05
1757391514.9824965,0.41,-0.179,9.638,0.2975303135816585,2.6576153703276977,0.9441604010025062,0,0.05
1757391515.0094976,0.419,-0.166,9.714,0.29826697772297894,2.6563564347372166,0.9446115288220551,0,0.05
1757391515.0363228,0.419,-0.166,9.714,0.29826697772297894,2.6563564347372166,0.9446115288220551,0,0.05
1757391515.063225,0.407,-0.294,9.713,0.29896038617181375,2.959077760656387,0.9452130325814536,0,0.05
1757391515.0905013,0.407,-0.294,9.713,0.29896038617181375,2.959077760656387,0.9452130325814536,0,0.05
1757391515.1172488,0.361,-0.347,9.815,0.2995047829334283,2.9205128557561353,0.9475187969924812,0,0.05
1757391515.143578,0.361,-0.347,9.815,0.2995047829334283,2.9205128557561353,0.9475187969924812,0,0.05
1757391515.1705077,0.335,-0.318,9.843,0.299972794599777,2.686717296893884,0.9488220551378446,0,0.05
1757391515.1973147,0.335,-0.318,9.843,0.299972794599777,2.686717296893884,0.9488220551378446,0,0.05
1757391515.2249708,0.254,-0.256,9.805,0.30024151528394605,2.106385392002119,0.9528822055137844,0,0.05
1757391515.2521183,0.254,-0.256,9.805,0.30024151528394605,2.106385392002119,0.9528822055137844,0,0.05
1757391515.2791226,0.17,-0.34,9.843,0.3003618109880149,2.2116342080380686,0.9570927318295739,0,0.05
1757391515.3057885,0.17,-0.34,9.843,0.3003618109880149,2.2116342080380686,0.9570927318295739,0,0.05
1757391515.3329246,0.134,-0.183,9.842,0.300436528238495,1.3201825577426023,0.9588972431077695,0,0.05
1757391515.3593042,0.134,-0.183,9.842,0.300436528238495,1.3201825577426023,0.9588972431077695,0,0.05
1757391515.3855736,0.237,-0.066,9.712,0.30067013486543687,1.4510704265447654,0.9640601503759397,0,0.05
1757391515.4131098,0.237,-0.066,9.712,0.30067013486543687,1.4510704265447654,0.9640601503759397,0,0.05
1757391515.4406095,0.337,-0.245,9.755,0.3011419142198575,2.4456755268546453,0.9690726817042608,0,0.05
1757391515.468394,0.337,-0.245,9.755,0.3011419142198575,2.4456755268546453,0.9690726817042608,0,0.05
1757391515.4963906,0.126,-0.243,9.769,0.30120780617374443,1.6049898194403105,0.9796491228070175,0,0.05
1757391515.5235379,0.126,-0.243,9.769,0.30120780617374443,1.6049898194403105,0.9796491228070175,0,0.05
1757391515.5496862,0.16,-0.105,9.802,0.30131402639107263,1.118514391231003,0.9813533834586466,0,0.05
1757391515.5768466,0.16,-0.105,9.802,0.30131402639107263,1.118514391231003,0.9813533834586466,0,0.05
1757391515.6039133,0.253,-0.187,9.71,0.30157945055988145,1.8557558432251382,0.9860150375939851,0,0.05
1757391515.6311488,0.253,-0.187,9.71,0.30157945055988145,1.8557558432251382,0.9860150375939851,0,0.05
1757391515.6580594,0.168,-0.114,9.731,0.30169641197733854,1.1952428342809829,0.9902756892230576,0,0.05
1757391515.6853347,0.168,-0.114,9.731,0.30169641197733854,1.1952428342809829,0.9902756892230576,0,0.05
1757391515.7124686,0.263,-0.34,9.799,0.3019828596129257,2.5117539538649964,0.9950375939849624,0,0.05
1757391515.7397203,0.263,-0.34,9.799,0.3019828596129257,2.5117539538649964,0.9950375939849624,0,0.05
1757391515.7674043,0.37,-0.413,9.701,0.30254900016360986,3.271406379023532,1.0004010025062655,0,0.05
1757391515.7944763,0.37,-0.413,9.701,0.30254900016360986,3.271406379023532,1.0004010025062655,0,0.05
1757391515.8216195,0.476,-0.533,9.717,0.303483669247622,4.20607830643264,1.0057142857142858,0,0.05
1757391515.8486924,0.476,-0.533,9.717,0.303483669247622,4.20607830643264,1.0057142857142858,0,0.05
1757391515.874848,0.388,-0.349,9.778,0.3041031034040922,3.0550649329161357,1.010125313283208,0,0.05
1757391515.9011254,0.388,-0.349,9.778,0.3041031034040922,3.0550649329161357,1.010125313283208,0,0.05
1757391515.9278214,0.44,-0.302,9.702,0.30489784764737193,3.148451191081508,1.0127318295739347,0,0.05
1757391515.9548965,0.44,-0.302,9.702,0.30489784764737193,3.148451191081508,1.0127318295739347,0,0.05
1757391515.9826818,0.437,-0.413,9.598,0.3056797670765927,3.5846906750704135,1.0128822055137845,0,0.05
1757391516.0099907,0.437,-0.413,9.598,0.3056797670765927,3.5846906750704135,1.0128822055137845,0,0.05
1757391516.036872,0.396,-0.392,9.696,0.30632035518391526,3.2890420905465425,1.0149373433583957,0,0.05
1757391516.064017,0.396,-0.392,9.696,0.30632035518391526,3.2890420905465425,1.0149373433583957,0,0.05
1757391516.091057,0.468,-0.214,9.574,0.30721282525311344,3.0767122535991147,1.0185463659147869,0,0.05
1757391516.118201,0.468,-0.214,9.574,0.30721282525311344,3.0767122535991147,1.0185463659147869,0,0.05
1757391516.144678,0.647,-0.427,9.55,0.3089113829239706,4.640694121896947,1.027518796992481,0,0.05
1757391516.1717591,0.647,-0.427,9.55,0.3089113829239706,4.640694121896947,1.027518796992481,0,0.05
1757391516.1988442,0.369,-0.391,9.629,0.30946186356318606,3.195738500609805,1.0414536340852132,0,0.05
1757391516.226391,0.369,-0.391,9.629,0.30946186356318606,3.195738500609805,1.0414536340852132,0,0.05
1757391516.2535093,0.609,-0.296,9.588,0.3109563433988765,4.039637558841186,1.0534837092731828,0,0.05
1757391516.280898,0.609,-0.296,9.588,0.3109563433988765,4.039637558841186,1.0534837092731828,0,0.05
1757391516.3079724,0.49,-0.407,9.686,0.3119200177930233,3.762547440415011,1.0594486215538845,0,0.05
1757391516.3356428,0.49,-0.407,9.686,0.3119200177930233,3.762547440415011,1.0594486215538845,0,0.05
1757391516.3626404,0.35,-0.362,9.831,0.31241054319596834,2.9320560344828137,1.0664661654135337,0,0.05
1757391516.3896372,0.35,-0.362,9.831,0.31241054319596834,2.9320560344828137,1.0664661654135337,0,0.05
1757391516.416714,0.408,-0.292,9.842,0.31307588137702336,2.918295392736446,1.06937343358396,0,0.05
1757391516.4438727,0.408,-0.292,9.842,0.31307588137702336,2.918295392736446,1.06937343358396,0,0.05
1757391516.4708953,0.475,-0.469,9.795,0.31397542897494385,3.898638569021542,1.0727318295739348,0,0.05
1757391516.4987254,0.475,-0.469,9.795,0.31397542897494385,3.898638569021542,1.0727318295739348,0,0.05
1757391516.5258317,0.41,-0.493,9.747,0.3146439575138858,3.7637949768504635,1.0759899749373434,0,0.05
1757391516.5530996,0.41,-0.493,9.747,0.3146439575138858,3.7637949768504635,1.0759899749373434,0,0.05
1757391516.5802355,0.508,-0.483,9.751,0.3156675149583815,4.1117230463662695,1.0809022556390977,0,0.05
1757391516.6076028,0.508,-0.483,9.751,0.3156675149583815,4.1117230463662695,1.0809022556390977,0,0.05
1757391516.6346111,0.711,-0.383,9.544,0.3176630014653894,4.8367382132060435,1.091077694235589,0,0.05
1757391516.6614797,0.711,-0.383,9.544,0.3176630014653894,4.8367382132060435,1.091077694235589,0,0.05
1757391516.687978,0.565,-0.489,9.697,0.3189166740702029,4.406355722097337,1.0983959899749374,0,0.05
1757391516.7152264,0.565,-0.489,9.697,0.3189166740702029,4.406355722097337,1.0983959899749374,0,0.05
1757391516.7422986,0.565,-0.489,9.697,0.3189166740702029,4.406355722097337,1.0983959899749374,0,0.05
1757391516.769891,0.584,-0.357,9.65,0.32025065964022614,4.057193269675291,1.0993483709273182,0,0.05
1757391516.7970865,0.559,-0.373,9.637,0.3214680194047302,3.988963621010093,1.1006015037593984,0,0.05
1757391516.8241084,0.559,-0.373,9.637,0.3214680194047302,3.988963621010093,1.1006015037593984,0,0.05
1757391516.8516152,0.627,-0.548,9.749,0.32299304946082047,4.882159190676083,1.1040100250626568,0,0.05
1757391516.8787394,0.627,-0.548,9.749,0.32299304946082047,4.882159190676083,1.1040100250626568,0,0.05
1757391516.9056377,0.586,-0.549,9.759,0.3243192871230448,4.703829492168517,1.1060651629072682,0,0.05
1757391516.9327774,0.586,-0.549,9.759,0.3243192871230448,4.703829492168517,1.1060651629072682,0,0.05
1757391516.960577,0.648,-0.487,9.621,0.3259336742344982,4.815980804889713,1.109172932330827,0,0.05
1757391516.9878716,0.648,-0.487,9.621,0.3259336742344982,4.815980804889713,1.109172932330827,0,0.05
1757391517.0129607,0.626,-0.431,9.588,0.3274331229426858,4.532261420516883,1.1102756892230574,0,0.05
1757391517.0393329,0.626,-0.431,9.588,0.3274331229426858,4.532261420516883,1.1102756892230574,0,0.05
1757391517.0665314,0.651,-0.469,9.778,0.3290470369111383,4.690977627111845,1.1115288220551378,0,0.05
1757391517.093761,0.651,-0.469,9.778,0.3290470369111383,4.690977627111845,1.1115288220551378,0,0.05
1757391517.1198595,0.636,-0.545,9.715,0.3305800848508573,4.927510984337048,1.1122807017543859,0,0.05
1757391517.1475244,0.636,-0.545,9.715,0.3305800848508573,4.927510984337048,1.1122807017543859,0,0.05
1757391517.1751416,0.557,-0.469,9.551,0.3317511341352129,4.359718369223923,1.1162406015037594,0,0.05
1757391517.2026222,0.557,-0.469,9.551,0.3317511341352129,4.359718369223923,1.1162406015037594,0,0.05
1757391517.229967,0.728,-0.609,9.629,0.333742078557679,5.629510364290803,1.1248120300751878,0,0.05
1757391517.2569463,0.728,-0.609,9.629,0.333742078557679,5.629510364290803,1.1248120300751878,0,0.05
1757391517.2837005,0.469,-0.447,9.729,0.3345649077533387,3.80995067909205,1.137794486215539,0,0.05
1757391517.310508,0.469,-0.447,9.729,0.3345649077533387,3.80995067909205,1.137794486215539,0,0.05
1757391517.3372576,0.455,-0.286,9.545,0.3353375016308197,3.2225731879774884,1.1384962406015038,0,0.05
1757391517.3642714,0.455,-0.286,9.545,0.3353375016308197,3.2225731879774884,1.1384962406015038,0,0.05
1757391517.3908608,0.428,-0.356,9.73,0.33601964228300707,3.27462342665083,1.1398496240601503,0,0.05
1757391517.4181032,0.428,-0.356,9.73,0.33601964228300707,3.27462342665083,1.1398496240601503,0,0.05
1757391517.4455168,0.36,-0.187,9.734,0.33650141158693525,2.386459442935347,1.1432581453634085,0,0.05
1757391517.4726932,0.36,-0.187,9.734,0.33650141158693525,2.386459442935347,1.1432581453634085,0,0.05
1757391517.4994233,0.429,-0.264,9.591,0.33718437463797163,3.006434871425509,1.14671679197995,0,0.05
1757391517.526817,0.429,-0.264,9.591,0.33718437463797163,3.006434871425509,1.14671679197995,0,0.05
1757391517.5535939,0.386,-0.328,9.657,0.337736276553171,3.002575825300224,1.148872180451128,0,0.05
1757391517.5798683,0.386,-0.328,9.657,0.337736276553171,3.002575825300224,1.148872180451128,0,0.05
1757391517.6068952,0.469,-0.347,9.61,0.3385493981681255,3.4740990108017846,1.1530325814536342,0,0.05
1757391517.6331947,0.469,-0.347,9.61,0.3385493981681255,3.4740990108017846,1.1530325814536342,0,0.05
1757391517.6602173,0.428,-0.284,9.602,0.33922508014591135,3.062086789002308,1.1550877192982454,0,0.05
1757391517.68753,0.428,-0.284,9.602,0.33922508014591135,3.062086789002308,1.1550877192982454,0,0.05
1757391517.7148325,0.456,-0.202,9.62,0.33999043368894954,2.9677801806936497,1.1564912280701753,0,0.05
1757391517.741969,0.456,-0.202,9.62,0.33999043368894954,2.9677801806936497,1.1564912280701753,0,0.05
1757391517.7692115,0.405,-0.215,9.736,0.34059294986831423,2.696430800993099,1.159047619047619,0,0.05
1757391517.7963421,0.405,-0.215,9.736,0.34059294986831423,2.696430800993099,1.159047619047619,0,0.05
1757391517.8228955,0.426,-0.288,9.775,0.34125832956867147,3.011292097946184,1.1601002506265663,0,0.05
1757391517.8500395,0.426,-0.288,9.775,0.34125832956867147,3.011292097946184,1.1601002506265663,0,0.05
1757391517.8766332,0.387,-0.482,9.809,0.34180648033646177,3.6058573207392532,1.1620551378446113,0,0.05
1757391517.9036405,0.387,-0.482,9.809,0.34180648033646177,3.6058573207392532,1.1620551378446113,0,0.05
1757391517.930655,0.359,-0.435,9.884,0.34227747880922577,3.2659167615210087,1.1634586466165413,0,0.05
1757391517.9577453,0.359,-0.435,9.884,0.34227747880922577,3.2659167615210087,1.1634586466165413,0,0.05
1757391517.9845634,0.487,-0.302,9.831,0.34314252869616735,3.3359345900405244,1.1698746867167917,0,0.05
1757391518.0115914,0.487,-0.302,9.831,0.34314252869616735,3.3359345900405244,1.1698746867167917,0,0.05
1757391518.03851,0.422,-0.302,9.838,0.3437906412338765,3.019409525159155,1.1731328320802004,0,0.05
1757391518.065763,0.422,-0.302,9.838,0.3437906412338765,3.019409525159155,1.1731328320802004,0,0.05
1757391518.0929198,0.414,-0.265,9.84,0.3444132619397807,2.8597891425726822,1.173533834586466,0,0.05
1757391518.120012,0.414,-0.265,9.84,0.3444132619397807,2.8597891425726822,1.173533834586466,0,0.05
1757391518.1471446,0.373,-0.173,9.787,0.34491784166667866,2.4056674810660565,1.1755889724310777,0,0.05
1757391518.1744878,0.373,-0.173,9.787,0.34491784166667866,2.4056674810660565,1.1755889724310777,0,0.05
1757391518.2018363,0.517,-0.259,9.644,0.34588515435039996,3.4313059707532574,1.1828070175438594,0,0.05
1757391518.229216,0.517,-0.259,9.644,0.34588515435039996,3.4313059707532574,1.1828070175438594,0,0.05
1757391518.2562864,0.308,-0.476,9.767,0.3462278151737668,3.3221888516875544,1.19328320802005,0,0.05
1757391518.2834153,0.308,-0.476,9.767,0.3462278151737668,3.3221888516875544,1.19328320802005,0,0.05
1757391518.310198,0.351,-0.389,9.731,0.3466723272775028,3.082013782535695,1.1954385964912282,0,0.05
1757391518.337405,0.351,-0.389,9.731,0.3466723272775028,3.082013782535695,1.1954385964912282,0,0.05
1757391518.3643982,0.319,-0.269,9.757,0.3470390539982496,2.448886071855697,1.1970426065162907,0,0.05
1757391518.3914373,0.319,-0.269,9.757,0.3470390539982496,2.448886071855697,1.1970426065162907,0,0.05
1757391518.418731,0.388,-0.228,9.819,0.34758087548080085,2.6241828192573107,1.2005012531328318,0,0.05
1757391518.445709,0.388,-0.228,9.819,0.34758087548080085,2.6241828192573107,1.2005012531328318,0,0.05
1757391518.4731064,0.304,-0.275,9.873,0.3479130710393043,2.3775614332376502,1.2047117794486213,0,0.05
1757391518.500208,0.304,-0.275,9.873,0.3479130710393043,2.3775614332376502,1.2047117794486213,0,0.05
1757391518.5272384,0.332,-0.149,9.806,0.34830886437183883,2.1252816282078033,1.2061152882205515,0,0.05
1757391518.5548236,0.332,-0.149,9.806,0.34830886437183883,2.1252816282078033,1.2061152882205515,0,0.05
1757391518.581814,0.188,-0.122,9.857,0.34843568273068704,1.3024947992580997,1.2133333333333332,0,0.05
1757391518.6088922,0.188,-0.122,9.857,0.34843568273068704,1.3024947992580997,1.2133333333333332,0,0.05
1757391518.6362002,0.249,-0.124,9.857,0.3486580380544811,1.6164734320947802,1.216390977443609,0,0.05
1757391518.6633706,0.249,-0.124,9.857,0.3486580380544811,1.6164734320947802,1.216390977443609,0,0.05
1757391518.6908586,0.219,-0.028,9.861,0.34882994424217656,1.2826086299613204,1.2178947368421054,0,0.05
1757391518.718194,0.219,-0.028,9.861,0.34882994424217656,1.2826086299613204,1.2178947368421054,0,0.05
1757391518.7455504,0.286,-0.116,9.863,0.34912292963940367,1.792292809052584,1.2212531328320804,0,0.05
1757391518.772728,0.286,-0.116,9.863,0.34912292963940367,1.792292809052584,1.2212531328320804,0,0.05
1757391518.7998116,0.341,-0.184,9.785,0.3495390142745156,2.2676646062092356,1.2240100250626564,0,0.05
1757391518.826382,0.341,-0.184,9.785,0.3495390142745156,2.2676646062092356,1.2240100250626564,0,0.05
1757391518.853279,0.369,-0.177,9.687,0.35002560620617457,2.4191878073645614,1.2254135338345864,0,0.05
1757391518.8804612,0.369,-0.177,9.687,0.35002560620617457,2.4191878073645614,1.2254135338345864,0,0.05
1757391518.906605,0.397,-0.273,9.656,0.3505880025043641,2.8565278190099805,1.2268170426065164,0,0.05
1757391518.9337864,0.397,-0.273,9.656,0.3505880025043641,2.8565278190099805,1.2268170426065164,0,0.05
1757391518.9610238,0.381,-0.474,9.735,0.3511051836700791,3.574603444254389,1.2276190476190474,0,0.05
1757391518.9883704,0.381,-0.474,9.735,0.3511051836700791,3.574603444254389,1.2276190476190474,0,0.05
1757391519.015593,0.421,-0.481,9.573,0.351735628704287,3.8201516538305142,1.2296240601503758,0,0.05
1757391519.043309,0.421,-0.481,9.573,0.351735628704287,3.8201516538305142,1.2296240601503758,0,0.05
1757391519.0704908,0.503,-0.304,9.533,0.352633627154303,3.5279350393812825,1.233734335839599,0,0.05
1757391519.0975492,0.503,-0.304,9.533,0.352633627154303,3.5279350393812825,1.233734335839599,0,0.05
1757391519.1245592,0.474,-0.371,9.608,0.35342915131607355,3.584815247406893,1.2351879699248118,0,0.05
1757391519.151668,0.474,-0.371,9.608,0.35342915131607355,3.584815247406893,1.2351879699248118,0,0.05
1757391519.1772676,0.53,-0.407,9.576,0.3544212394877034,3.991807407044459,1.2379949874686718,0,0.05
1757391519.204594,0.53,-0.407,9.576,0.3544212394877034,3.991807407044459,1.2379949874686718,0,0.05
1757391519.232284,0.394,-0.334,9.746,0.35496831548745306,3.0337270652140336,1.244812030075188,0,0.05
1757391519.2601366,0.394,-0.334,9.746,0.35496831548745306,3.0337270652140336,1.244812030075188,0,0.05
1757391519.2882726,0.502,-0.438,9.723,0.3558546262169427,3.9197754740853097,1.2502255639097741,0,0.05
1757391519.316879,0.502,-0.438,9.723,0.3558546262169427,3.9197754740853097,1.2502255639097741,0,0.05
1757391519.3439753,0.434,-0.559,9.709,0.35651564481800796,4.168971730239722,1.2536340852130323,0,0.05
1757391519.3713078,0.434,-0.559,9.709,0.35651564481800796,4.168971730239722,1.2536340852130323,0,0.05
1757391519.3985636,0.525,-0.616,9.677,0.3574807232565135,4.78101118379329,1.2581954887218045,0,0.05
1757391519.4261222,0.525,-0.616,9.677,0.3574807232565135,4.78101118379329,1.2581954887218045,0,0.05
1757391519.452454,0.469,-0.554,9.743,0.35824903349485815,4.260719798696452,1.261002506265664,0,0.05
1757391519.4790711,0.469,-0.554,9.743,0.35824903349485815,4.260719798696452,1.261002506265664,0,0.05
1757391519.5060089,0.361,-0.424,9.705,0.3587034603959097,3.2839757134428056,1.2664160401002507,0,0.05
1757391519.531988,0.361,-0.424,9.705,0.3587034603959097,3.2839757134428056,1.2664160401002507,0,0.05
1757391519.5590763,0.448,-0.311,9.66,0.3594021876672428,3.2312716325227857,1.2707769423558894,0,0.05
1757391519.5873516,0.448,-0.311,9.66,0.3594021876672428,3.2312716325227857,1.2707769423558894,0,0.05
1757391519.6150992,0.522,-0.468,9.74,0.36034864020834045,4.11699770201106,1.274486215538847,0,0.05
1757391519.6421363,0.522,-0.468,9.74,0.36034864020834045,4.11699770201106,1.274486215538847,0,0.05
1757391519.6695044,0.315,-0.307,9.714,0.3606926738928863,2.5926224926444656,1.2848621553884711,0,0.05
1757391519.697389,0.315,-0.307,9.714,0.3606926738928863,2.5926224926444656,1.2848621553884711,0,0.05
1757391519.7245693,0.341,-0.206,9.765,0.3610954271380351,2.3362608055176226,1.2861654135338345,0,0.05
1757391519.7514682,0.341,-0.206,9.765,0.3610954271380351,2.3362608055176226,1.2861654135338345,0,0.05
1757391519.779086,0.634,-0.063,9.66,0.3624842031040801,3.7734609433005386,1.3008521303258145,0,0.1
1757391519.8071241,0.634,-0.063,9.66,0.3624842031040801,3.7734609433005386,1.3008521303258145,0,0.1
1757391519.8345199,0.432,-0.234,9.819,0.3631271919038837,2.8644679786800387,1.3109774436090227,0,0.1
1757391519.8620696,0.432,-0.234,9.819,0.3631271919038837,2.8644679786800387,1.3109774436090227,0,0.1
1757391519.8891413,0.47,-0.274,9.803,0.3638868058888643,3.176483537375122,1.3128822055137843,0,0.1
1757391519.916261,0.47,-0.274,9.803,0.3638868058888643,3.176483537375122,1.3128822055137843,0,0.1
1757391519.9430692,0.565,-0.335,9.672,0.3649817392692407,3.885127208629852,1.317644110275689,0,0.1
1757391519.9703846,0.565,-0.335,9.672,0.3649817392692407,3.885127208629852,1.317644110275689,0,0.1
1757391519.997021,0.546,-0.577,9.78,0.36600131147306014,4.643672351320076,1.3185964912280699,0,0.1
1757391520.0238538,0.546,-0.577,9.78,0.36600131147306014,4.643672351320076,1.3185964912280699,0,0.1
1757391520.050877,0.493,-0.624,9.801,0.366830454706258,4.638807832660925,1.32125313283208,0,0.1
1757391520.078483,0.493,-0.624,9.801,0.366830454706258,4.638807832660925,1.32125313283208,0,0.1
1757391520.1055672,0.658,-0.507,9.667,0.3683028543196482,4.911272771169935,1.3295238095238096,0,0.1
1757391520.1318285,0.658,-0.507,9.667,0.3683028543196482,4.911272771169935,1.3295238095238096,0,0.1
1757391520.1585898,0.583,-0.46,9.687,0.36945461832273796,4.383824211637246,1.3332832080200498,0,0.1
1757391520.1856074,0.583,-0.46,9.687,0.36945461832273796,4.383824211637246,1.3332832080200498,0,0.1
1757391520.2110186,0.527,-0.434,9.85,0.3703930851136397,3.9648336880656907,1.3360902255639096,0,0.1
1757391520.2375767,0.527,-0.434,9.85,0.3703930851136397,3.9648336880656907,1.3360902255639096,0,0.1
1757391520.264774,0.514,-0.397,9.751,0.3712836213732031,3.8105561000069605,1.3367418546365912,0,0.1
1757391520.2925115,0.514,-0.397,9.751,0.3712836213732031,3.8105561000069605,1.3367418546365912,0,0.1
1757391520.3200228,0.471,-0.379,9.767,0.3720297434345808,3.5419361300784877,1.3388972431077695,0,0.1
1757391520.347408,0.471,-0.379,9.767,0.3720297434345808,3.5419361300784877,1.3388972431077695,0,0.1
1757391520.3753188,0.53,-0.502,9.842,0.3729723582251103,4.241985974541617,1.3418546365914787,0,0.1
1757391520.402318,0.53,-0.502,9.842,0.3729723582251103,4.241985974541617,1.3418546365914787,0,0.1
1757391520.4293954,0.392,-0.382,9.87,0.3734870011124885,3.1741180942307077,1.3487719298245613,0,0.1
1757391520.4565547,0.392,-0.382,9.87,0.3734870011124885,3.1741180942307077,1.3487719298245613,0,0.1
1757391520.4841146,0.553,-0.346,9.683,0.37450909535016635,3.8540693482325166,1.3568421052631578,0,0.1
1757391520.5107067,0.553,-0.346,9.683,0.37450909535016635,3.8540693482325166,1.3568421052631578,0,0.1
1757391520.5381153,0.623,-0.398,9.691,0.3758023217065057,4.362364036856843,1.3603508771929824,0,0.1
1757391520.565282,0.623,-0.398,9.691,0.3758023217065057,4.362364036856843,1.3603508771929824,0,0.1
1757391520.5928564,0.452,-0.309,9.723,0.3764812677942954,3.223063504252244,1.368922305764411,0,0.1
1757391520.619979,0.453,-0.202,9.635,0.37716199105954457,2.946909150096272,1.3689724310776943,0,0.1
1757391520.6469173,0.453,-0.202,9.635,0.37716199105954457,2.946909150096272,1.3689724310776943,0,0.1
1757391520.674228,0.48,-0.324,9.699,0.3779248172586712,3.417010791399104,1.3703258145363408,0,0.1
1757391520.7016978,0.48,-0.324,9.699,0.3779248172586712,3.417010791399104,1.3703258145363408,0,0.1
1757391520.7290025,0.48,-0.324,9.699,0.3779248172586712,3.417010791399104,1.3703258145363408,0,0.1
1757391520.7562027,0.453,-0.402,9.777,0.3786029450492957,3.544743234240668,1.3716791979949874,0,0.1
1757391520.7834003,0.453,-0.402,9.777,0.3786029450492957,3.544743234240668,1.3716791979949874,0,0.1
1757391520.8106923,0.39,-0.279,9.799,0.379104787624741,2.801578346492027,1.3748370927318294,0,0.1
1757391520.8385854,0.404,-0.195,9.744,0.37964256874065105,2.63594920369223,1.3755388471177945,0,0.1
1757391520.8662708,0.404,-0.195,9.744,0.37964256874065105,2.63594920369223,1.3755388471177945,0,0.1
1757391520.8918326,0.404,-0.195,9.744,0.37964256874065105,2.63594920369223,1.3755388471177945,0,0.1
1757391520.9188306,0.438,-0.273,9.793,0.380273704060641,3.0168267717828616,1.3772431077694236,0,0.1
1757391520.9455156,0.438,-0.273,9.793,0.380273704060641,3.0168267717828616,1.3772431077694236,0,0.1
1757391520.9723496,0.378,-0.235,9.717,0.38074308923472266,2.622642337472663,1.380250626566416,0,0.1
1757391520.999444,0.378,-0.235,9.717,0.38074308923472266,2.622642337472663,1.380250626566416,0,0.1
1757391521.026229,0.432,-0.373,9.783,0.3813552936567159,3.3388952012526696,1.3829573934837092,0,0.1
1757391521.0534616,0.255,-0.412,9.946,0.38156837198593907,2.7890181592557424,1.391829573934837,0,0.1
1757391521.0811837,0.255,-0.412,9.946,0.38156837198593907,2.7890181592557424,1.391829573934837,0,0.1
1757391521.108453,0.296,-0.306,9.746,0.38185528999871143,2.5012759832274183,1.3938847117794486,0,0.1
1757391521.1348572,0.296,-0.306,9.746,0.38185528999871143,2.5012759832274183,1.3938847117794486,0,0.1
1757391521.1624343,0.355,-0.348,9.653,0.38226760914312374,2.948076057617193,1.3968421052631577,0,0.1
1757391521.190091,0.355,-0.348,9.653,0.38226760914312374,2.948076057617193,1.3968421052631577,0,0.1
1757391521.2172518,0.321,-0.402,9.824,0.38260440078493607,2.9975720668398487,1.398546365914787,0,0.1
1757391521.2440553,0.321,-0.402,9.824,0.38260440078493607,2.9975720668398487,1.398546365914787,0,0.1
1757391521.270875,0.28,-0.329,9.718,0.3828604543433547,2.5454431958445665,1.4006015037593982,0,0.1
1757391521.2981186,0.28,-0.329,9.718,0.3828604543433547,2.5454431958445665,1.4006015037593982,0,0.1
1757391521.3255694,0.287,-0.34,9.626,0.3831292862729238,2.646466274095371,1.400952380952381,0,0.1
1757391521.3509583,0.287,-0.34,9.626,0.3831292862729238,2.646466274095371,1.400952380952381,0,0.1
1757391521.3776584,0.287,-0.34,9.626,0.3831292862729238,2.646466274095371,1.400952380952381,0,0.1
1757391521.4043932,0.385,-0.4,9.705,0.3836125812587486,3.2740699514516636,1.4058646616541353,0,0.1
1757391521.4313796,0.379,-0.419,9.75,0.38408034966657695,3.3163887358259756,1.4061654135338344,0,0.1
1757391521.458498,0.379,-0.419,9.75,0.38408034966657695,3.3163887358259756,1.4061654135338344,0,0.1
1757391521.48476,0.379,-0.419,9.75,0.38408034966657695,3.3163887358259756,1.4061654135338344,0,0.1
1757391521.5109975,0.386,-0.363,9.569,0.38456495550166814,3.169452613293866,1.4065162907268172,0,0.1
1757391521.5389514,0.386,-0.363,9.569,0.38456495550166814,3.169452613293866,1.4065162907268172,0,0.1
1757391521.5670323,0.437,-0.448,9.691,0.3851851859820157,3.694989469295196,1.4090726817042607,0,0.1
1757391521.5959916,0.427,-0.489,9.727,0.3857764248888208,3.8183272592432034,1.4095739348370926,0,0.1
1757391521.623232,0.427,-0.489,9.727,0.3857764248888208,3.8183272592432034,1.4095739348370926,0,0.1
1757391521.6506515,0.383,-0.385,9.665,0.3862514368905312,3.2159704708017407,1.4117794486215538,0,0.1
1757391521.6778533,0.383,-0.385,9.665,0.3862514368905312,3.2159704708017407,1.4117794486215538,0,0.1
1757391521.7047684,0.483,-0.608,9.835,0.3870056782529166,4.514295970578915,1.4167919799498745,0,0.1
1757391521.7309709,0.483,-0.608,9.835,0.3870056782529166,4.514295970578915,1.4167919799498745,0,0.1
1757391521.7584178,0.346,-0.436,9.886,0.38739215918756026,3.2224995915285346,1.423659147869674,0,0.1
1757391521.7855196,0.346,-0.436,9.886,0.38739215918756026,3.2224995915285346,1.423659147869674,0,0.1
1757391521.8125243,0.346,-0.436,9.886,0.38739215918756026,3.2224995915285346,1.423659147869674,0,0.1
1757391521.8399537,0.292,-0.234,9.693,0.38766718328999683,2.210771475887323,1.4263659147869674,0,0.1
1757391521.866851,0.292,-0.234,9.693,0.38766718328999683,2.210771475887323,1.4263659147869674,0,0.1
1757391521.8935814,0.522,-0.312,9.704,0.3885447914977114,3.5859494562743275,1.4378947368421053,0,0.1
1757391521.9206328,0.522,-0.312,9.704,0.3885447914977114,3.5859494562743275,1.4378947368421053,0,0.1
1757391521.9473536,0.378,-0.385,9.848,0.38900419663546043,3.1359450204686095,1.4451127819548872,0,0.1
1757391521.9743772,0.273,-0.198,9.789,0.3892436094530005,1.9731305462742146,1.450375939849624,0,0.1
1757391522.001014,0.273,-0.198,9.789,0.3892436094530005,1.9731305462742146,1.450375939849624,0,0.1
1757391522.0280874,0.357,-0.277,9.889,0.3896526786767929,2.6162108996568714,1.4545864661654135,0,0.1
1757391522.05449,0.357,-0.277,9.889,0.3896526786767929,2.6162108996568714,1.4545864661654135,0,0.1
1757391522.081524,0.357,-0.277,9.889,0.3896526786767929,2.6162108996568714,1.4545864661654135,0,0.1
1757391522.1085892,0.342,-0.404,9.972,0.39002771696380756,3.038446138459557,1.4553383458646618,0,0.1
1757391522.134843,0.34,-0.425,9.875,0.3903980276589522,3.1546937488163134,1.4554385964912282,0,0.1
1757391522.1621022,0.34,-0.425,9.875,0.3903980276589522,3.1546937488163134,1.4554385964912282,0,0.1
1757391522.1895027,0.399,-0.362,9.83,0.39090743469522293,3.1370195246035086,1.458395989974937,0,0.1
1757391522.216578,0.399,-0.362,9.83,0.39090743469522293,3.1370195246035086,1.458395989974937,0,0.1
1757391522.2430627,0.412,-0.323,9.793,0.3914498467236895,3.060037892896809,1.4590476190476187,0,0.1
1757391522.2704322,0.412,-0.323,9.793,0.3914498467236895,3.060037892896809,1.4590476190476187,0,0.1
1757391522.297802,0.45,-0.363,9.761,0.39209594807903847,3.3897623382099424,1.4609523809523808,0,0.1
1757391522.3252077,0.45,-0.363,9.761,0.39209594807903847,3.3897623382099424,1.4609523809523808,0,0.1
1757391522.3531356,0.516,-0.406,9.755,0.3929438541318594,3.8505770107146917,1.4642606516290726,0,0.1
1757391522.3803434,0.516,-0.406,9.755,0.3929438541318594,3.8505770107146917,1.4642606516290726,0,0.1
1757391522.4073744,0.376,-0.478,9.859,0.39339333052302755,3.5298683070229613,1.4712781954887217,0,0.1
1757391522.4346192,0.376,-0.478,9.859,0.39339333052302755,3.5298683070229613,1.4712781954887217,0,0.1
1757391522.461921,0.407,-0.468,9.79,0.3939193254969855,3.624981405215744,1.4728320802005008,0,0.1
1757391522.4893272,0.407,-0.468,9.79,0.3939193254969855,3.624981405215744,1.4728320802005008,0,0.1
1757391522.5164893,0.407,-0.468,9.79,0.3939193254969855,3.624981405215744,1.4728320802005008,0,0.1
1757391522.5436766,0.495,-0.517,9.783,0.3946960824482554,4.1845192062292815,1.4772431077694235,0,0.1
1757391522.5709293,0.492,-0.475,9.694,0.3954619545544173,4.035332049231669,1.4773934837092733,0,0.1
1757391522.5985591,0.492,-0.475,9.694,0.3954619545544173,4.035332049231669,1.4773934837092733,0,0.1
1757391522.626267,0.451,-0.324,9.768,0.3961043549369282,3.2537991835002105,1.4794486215538847,0,0.1
1757391522.6538348,0.451,-0.324,9.768,0.3961043549369282,3.2537991835002105,1.4794486215538847,0,0.1
1757391522.6812477,0.567,-0.345,9.81,0.39711759278581454,3.8705451917494242,1.4852631578947368,0,0.1
1757391522.7087817,0.567,-0.345,9.81,0.39711759278581454,3.8705451917494242,1.4852631578947368,0,0.1
1757391522.7359421,0.479,-0.361,9.614,0.3978391446300879,3.569962367792397,1.489674185463659,0,0.1
1757391522.7624626,0.479,-0.361,9.614,0.3978391446300879,3.569962367792397,1.489674185463659,0,0.1
1757391522.789792,0.418,-0.259,9.755,0.3983877445404163,2.88576225710154,1.492731829573935,0,0.1
1757391522.8168879,0.418,-0.259,9.755,0.3983877445404163,2.88576225710154,1.492731829573935,0,0.1
1757391522.8432028,0.551,-0.218,9.807,0.39933920105594445,3.4577186974952894,1.4993984962406015,0,0.1
1757391522.8706133,0.551,-0.218,9.807,0.39933920105594445,3.4577186974952894,1.4993984962406015,0,0.1
1757391522.8986077,0.474,-0.218,9.756,0.4000418571849701,3.06112741220549,1.5032581453634084,0,0.1
1757391522.9266589,0.474,-0.218,9.756,0.4000418571849701,3.06112741220549,1.5032581453634084,0,0.1
1757391522.9537077,0.447,-0.31,9.849,0.4006657085401744,3.1613207124657947,1.504611528822055,0,0.1
1757391522.980387,0.447,-0.31,9.849,0.4006657085401744,3.1613207124657947,1.504611528822055,0,0.1
1757391523.0077116,0.514,-0.277,9.863,0.4014891032145206,3.3879457474368015,1.5079699248120302,0,0.1
1757391523.03547,0.514,-0.277,9.863,0.4014891032145206,3.3879457474368015,1.5079699248120302,0,0.1
1757391523.0620606,0.408,-0.412,9.86,0.4020070397393558,3.36550203299984,1.51328320802005,0,0.1
1757391523.088364,0.408,-0.412,9.86,0.4020070397393558,3.36550203299984,1.51328320802005,0,0.1
1757391523.114874,0.515,-0.674,9.67,0.4028308857324622,5.013045747682649,1.5186466165413535,0,0.1
1757391523.1420712,0.515,-0.674,9.67,0.4028308857324622,5.013045747682649,1.5186466165413535,0,0.1
1757391523.1690772,0.397,-0.733,9.932,0.4033196561041874,4.797663258392559,1.5245614035087718,0,0.1
1757391523.1962085,0.397,-0.733,9.932,0.4033196561041874,4.797663258392559,1.5245614035087718,0,0.1
1757391523.222421,0.35,-0.598,9.766,0.40369913921136863,4.058321344497343,1.5269172932330828,0,0.1
1757391523.249445,0.35,-0.598,9.766,0.40369913921136863,4.058321344497343,1.5269172932330828,0,0.1
1757391523.2768798,0.492,-0.636,9.675,0.40444796327834315,4.750935395566238,1.5340350877192983,0,0.1
1757391523.3046746,0.492,-0.636,9.675,0.40444796327834315,4.750935395566238,1.5340350877192983,0,0.1
1757391523.3322115,0.397,-0.593,9.808,0.4049347817859068,4.161467287069393,1.538796992481203,0,0.1
1757391523.3602245,0.397,-0.593,9.808,0.4049347817859068,4.161467287069393,1.538796992481203,0,0.1
1757391523.3874779,0.406,-0.511,9.728,0.40544329751520125,3.8382354902036133,1.539248120300752,0,0.1
1757391523.415419,0.406,-0.511,9.728,0.40544329751520125,3.8382354902036133,1.539248120300752,0,0.1
1757391523.4421322,0.38,-0.452,9.61,0.4058882450872407,3.51626823286213,1.5405513784461153,0,0.1
1757391523.4684775,0.38,-0.452,9.61,0.4058882450872407,3.51626823286213,1.5405513784461153,0,0.1
1757391523.4948869,0.534,-0.429,9.727,0.4067654821884473,4.028143871335131,1.5482706766917294,0,0.1
1757391523.522055,0.534,-0.429,9.727,0.4067654821884473,4.028143871335131,1.5482706766917294,0,0.1
1757391523.547418,0.487,-0.354,9.769,0.4074936563923419,3.52670054270496,1.5506265664160401,0,0.1
1757391523.5747454,0.487,-0.354,9.769,0.4074936563923419,3.52670054270496,1.5506265664160401,0,0.1
1757391523.6026895,0.287,-0.19,9.669,0.40774624768353174,2.0387317651183707,1.5606516290726817,0,0.1
1757391523.6305518,0.287,-0.19,9.669,0.40774624768353174,2.0387317651183707,1.5606516290726817,0,0.1
1757391523.657581,0.564,-0.253,9.755,0.4087202496818576,3.6258216691627694,1.5745363408521305,0,0.1
1757391523.685329,0.564,-0.253,9.755,0.4087202496818576,3.6258216691627694,1.5745363408521305,0,0.1
1757391523.7124279,0.488,-0.253,9.775,0.4094479240391872,3.2185641392077997,1.5783458646616542,0,0.1
1757391523.7393997,0.488,-0.253,9.775,0.4094479240391872,3.2185641392077997,1.5783458646616542,0,0.1
1757391523.766938,0.325,-0.253,9.705,0.40977025880363743,2.4300937087655874,1.586516290726817,0,0.1
1757391523.7952201,0.325,-0.253,9.705,0.40977025880363743,2.4300937087655874,1.586516290726817,0,0.1
1757391523.8233001,0.368,-0.287,9.805,0.41018316030768504,2.725017912258179,1.588671679197995,0,0.1
1757391523.8509243,0.368,-0.287,9.805,0.41018316030768504,2.725017912258179,1.588671679197995,0,0.1
1757391523.8780994,0.352,-0.39,9.832,0.4105605740935191,3.0586207691594147,1.5894736842105264,0,0.1
1757391523.905477,0.352,-0.39,9.832,0.4105605740935191,3.0586207691594147,1.5894736842105264,0,0.1
1757391523.9324028,0.254,-0.198,9.733,0.4107569536842925,1.8951724619684738,1.594385964912281,0,0.1
1757391523.9592547,0.254,-0.198,9.733,0.4107569536842925,1.8951724619684738,1.594385964912281,0,0.1
1757391523.9852898,0.262,-0.153,9.723,0.4109657954136816,1.7873121923908557,1.5947869674185462,0,0.1
1757391524.0118825,0.262,-0.153,9.723,0.4109657954136816,1.7873121923908557,1.5947869674185462,0,0.1
1757391524.0390835,0.426,-0.232,9.762,0.41151740546421606,2.8447082421191543,1.6030075187969928,0,0.1
1757391524.0666463,0.426,-0.232,9.762,0.41151740546421606,2.8447082421191543,1.6030075187969928,0,0.1
1757391524.0931957,0.279,-0.212,9.731,0.4117537826177193,2.0622922509726074,1.610375939849624,0,0.1
1757391524.1205292,0.279,-0.212,9.731,0.4117537826177193,2.0622922509726074,1.610375939849624,0,0.1
1757391524.1469364,0.191,-0.247,9.651,0.4118645165585401,1.8530148411758585,1.6147869674185462,0,0.1
1757391524.173697,0.191,-0.247,9.651,0.4118645165585401,1.8530148411758585,1.6147869674185462,0,0.1
1757391524.2008693,0.312,-0.156,9.678,0.41215984763195945,2.064232705215393,1.6208521303258145,0,0.1
1757391524.2276433,0.312,-0.156,9.678,0.41215984763195945,2.064232705215393,1.6208521303258145,0,0.1
1757391524.2539515,0.309,-0.224,9.643,0.41244932112927524,2.2664677195315437,1.6210025062656641,0,0.1
1757391524.280716,0.309,-0.224,9.643,0.41244932112927524,2.2664677195315437,1.6210025062656641,0,0.1
1757391524.3076046,0.239,-0.261,9.623,0.41262240002210254,2.1061605202298606,1.6245112781954887,0,0.1
1757391524.3350456,0.239,-0.261,9.623,0.41262240002210254,2.1061605202298606,1.6245112781954887,0,0.1
1757391524.3623502,0.146,-0.166,9.823,0.41268696974825847,1.289244354716986,1.629172932330827,0,0.1
1757391524.3902094,0.146,-0.166,9.823,0.41268696974825847,1.289244354716986,1.629172932330827,0,0.1
1757391524.4174635,0.232,-0.206,9.702,0.41284996669492424,1.8316239508973633,1.6334837092731829,0,0.1
1757391524.4445264,0.232,-0.206,9.702,0.41284996669492424,1.8316239508973633,1.6334837092731829,0,0.1
1757391524.4709628,0.13,-0.272,9.675,0.4129011322338557,1.784739676758851,1.6385964912280702,0,0.1
1757391524.498414,0.13,-0.272,9.675,0.4129011322338557,1.784739676758851,1.6385964912280702,0,0.1
1757391524.5239916,0.232,-0.261,9.879,0.4130640446710413,2.024467734488523,1.6437092731829572,0,0.15000000000000002
1757391524.551142,0.232,-0.261,9.879,0.4130640446710413,2.024467734488523,1.6437092731829572,0,0.15000000000000002
1757391524.5786064,0.184,-0.406,9.844,0.4131664858141328,2.59265456295572,1.6461152882205512,0,0.15000000000000002
1757391524.606732,0.184,-0.406,9.844,0.4131664858141328,2.59265456295572,1.6461152882205512,0,0.15000000000000002
1757391524.634085,0.153,-0.201,9.798,0.41323730168028155,1.476839755477873,1.6476691729323305,0,0.15000000000000002
1757391524.6615202,0.153,-0.201,9.798,0.41323730168028155,1.476839755477873,1.6476691729323305,0,0.15000000000000002
1757391524.6888602,0.258,-0.213,9.814,0.4134386018503836,1.9524840527031584,1.6529323308270676,0,0.15000000000000002
1757391524.716396,0.258,-0.213,9.814,0.4134386018503836,1.9524840527031584,1.6529323308270676,0,0.15000000000000002
1757391524.7440524,0.218,-0.461,9.874,0.41358226207128373,2.956433306549669,1.6549373433583958,0,0.15000000000000002
1757391524.7715263,0.218,-0.461,9.874,0.41358226207128373,2.956433306549669,1.6549373433583958,0,0.15000000000000002
1757391524.798794,-0.18,-0.534,9.83,0.4136801753770659,3.280984697395819,1.6748872180451124,0,0.15000000000000002
1757391524.8268368,-0.18,-0.534,9.83,0.4136801753770659,3.280984697395819,1.6748872180451124,0,0.15000000000000002
1757391524.8543942,0.104,-0.399,9.962,0.4137128563387896,2.370142441662609,1.689122807017544,0,0.15000000000000002
1757391524.8821485,0.104,-0.399,9.962,0.4137128563387896,2.370142441662609,1.689122807017544,0,0.15000000000000002
1757391524.9107316,-0.18,-0.173,9.947,0.4138107387441752,1.437753469777622,1.7033583959899745,0,0.15000000000000002
1757391524.9388826,-0.18,-0.173,9.947,0.4138107387441752,1.437753469777622,1.7033583959899745,0,0.15000000000000002
1757391524.9669175,-0.028,0.029,9.85,0.41381310696980106,0.23448262102720602,1.7109774436090224,0,0.15000000000000002
1757391524.9956496,0.016,-0.325,9.823,0.4138138802650293,1.897268206102526,1.7131829573934836,0,0.15000000000000002
1757391525.0234451,0.016,-0.325,9.823,0.4138138802650293,1.897268206102526,1.7131829573934836,0,0.15000000000000002
1757391525.0512972,0.121,-0.327,9.778,0.41385810370222303,2.042216762063692,1.7184461152882204,0,0.15000000000000002
1757391525.0782745,0.121,-0.327,9.778,0.41385810370222303,2.042216762063692,1.7184461152882204,0,0.15000000000000002
1757391525.106242,0.141,-0.237,9.789,0.4139181471015737,1.6136861134100642,1.7194486215538847,0,0.15000000000000002
1757391525.132825,0.141,-0.237,9.789,0.4139181471015737,1.6136861134100642,1.7194486215538847,0,0.15000000000000002
1757391525.1609259,0.256,-0.181,9.759,0.41411601333442777,1.840085904110424,1.7252130325814534,0,0.1
1757391525.189758,0.256,-0.181,9.759,0.41411601333442777,1.840085904110424,1.7252130325814534,0,0.1
1757391525.217473,0.062,-0.611,9.791,0.41412761620061034,3.589158864621946,1.7349373433583961,0,0.1
1757391525.2455535,0.062,-0.611,9.791,0.41412761620061034,3.589158864621946,1.7349373433583961,0,0.1
1757391525.2738063,0.164,-0.397,9.738,0.41420879094968516,2.525663599411433,1.7400501253132832,0,0.1
1757391525.301673,0.164,-0.397,9.738,0.41420879094968516,2.525663599411433,1.7400501253132832,0,0.1
1757391525.329307,0.24,-0.296,9.706,0.41438257987034155,2.248363773973293,1.7438596491228069,0,0.1
1757391525.356845,0.24,-0.296,9.706,0.41438257987034155,2.248363773973293,1.7438596491228069,0,0.1
1757391525.3838391,0.189,-0.363,9.737,0.4144903195492025,2.406779798355712,1.7464160401002504,0,0.1
1757391525.4115527,0.189,-0.363,9.737,0.4144903195492025,2.406779798355712,1.7464160401002504,0,0.1
1757391525.4390728,0.18,-0.306,9.73,0.41458801839898846,2.089606385291819,1.7468671679197996,0,0.1
1757391525.4665408,0.18,-0.306,9.73,0.41458801839898846,2.089606385291819,1.7468671679197996,0,0.1
1757391525.493793,0.373,-0.304,9.749,0.4150072860806181,2.825712413131676,1.7565413533834584,0,0.1
1757391525.5215433,0.373,-0.304,9.749,0.4150072860806181,2.825712413131676,1.7565413533834584,0,0.1
1757391525.5489447,0.315,-0.357,9.81,0.41530604377976493,2.77852205535805,1.7347869674185463,0,0.1
1757391525.5766802,0.315,-0.357,9.81,0.41530604377976493,2.77852205535805,1.7347869674185463,0,0.1
1757391525.6041744,0.291,-0.462,9.806,0.4148320774723189,3.1869974639670535,1.7358395989974935,0,0.1
1757391525.6309853,0.291,-0.462,9.806,0.4148320774723189,3.1869974639670535,1.7358395989974935,0,0.1
1757391525.658644,0.424,-0.455,9.708,0.41463541816878113,3.665587321394491,1.7422055137844612,0,0.1
1757391525.686607,0.424,-0.455,9.708,0.41463541816878113,3.665587321394491,1.7422055137844612,0,0.1
1757391525.7143266,0.34,-0.424,9.782,0.414262872461436,3.180067227847521,1.7457644110275687,0,0.1
1757391525.7397842,0.34,-0.424,9.782,0.414262872461436,3.180067227847521,1.7457644110275687,0,0.1
1757391525.7671752,0.425,-0.48,9.808,0.4141241963469413,3.739890552547453,1.749724310776942,0,0.1
1757391525.7946067,0.425,-0.48,9.808,0.4141241963469413,3.739890552547453,1.749724310776942,0,0.1
1757391525.821914,0.442,-0.475,9.747,0.41404711084609686,3.8084370022572243,1.7502255639097746,0,0.1
1757391525.8493822,0.442,-0.475,9.747,0.41404711084609686,3.8084370022572243,1.7502255639097746,0,0.1
1757391525.876579,0.439,-0.188,9.74,0.4139817508055156,2.8070189114327793,1.7499749373433584,0,0.1
1757391525.9041827,0.439,-0.188,9.74,0.4139817508055156,2.8070189114327793,1.7499749373433584,0,0.1
1757391525.9314609,0.591,-0.215,9.809,0.41441106404149014,3.6684315951871573,1.7566416040100248,0,0.1
1757391525.958847,0.591,-0.215,9.809,0.41441106404149014,3.6684315951871573,1.7566416040100248,0,0.1
1757391525.9859264,0.392,-0.28,9.817,0.41430115857911864,2.8093089503061157,1.7665664160401,0,0.1
1757391526.0135207,0.392,-0.28,9.817,0.41430115857911864,2.8093089503061157,1.7665664160401,0,0.1
1757391526.0411444,0.508,-0.29,9.77,0.4145035434106686,3.426313526630754,1.772280701754386,0,0.1
1757391526.0685415,0.508,-0.29,9.77,0.4145035434106686,3.426313526630754,1.772280701754386,0,0.1
1757391526.0965135,0.57,-0.24,9.818,0.41491249077365694,3.604473731002225,1.7750877192982455,0,0.1
1757391526.1235054,0.57,-0.24,9.818,0.41491249077365694,3.604473731002225,1.7750877192982455,0,0.1
1757391526.1508188,0.461,-0.278,9.801,0.41499828312897874,3.1439020359858825,1.7798997493734336,0,0.1
1757391526.177711,0.461,-0.278,9.801,0.41499828312897874,3.1439020359858825,1.7798997493734336,0,0.1
1757391526.2053413,0.375,-0.406,9.786,0.4149005874905457,3.232467677859142,1.783859649122807,0,0.1
1757391526.2315528,0.375,-0.406,9.786,0.4149005874905457,3.232467677859142,1.783859649122807,0,0.1
1757391526.2581868,0.483,-0.359,9.801,0.4150994067690293,3.5136910134339594,1.78922305764411,0,0.1
1757391526.2857594,0.483,-0.359,9.801,0.4150994067690293,3.5136910134339594,1.78922305764411,0,0.1
1757391526.3138871,0.412,-0.35,9.77,0.415104357360893,3.1670741912617864,1.792781954887218,0,0.1
1757391526.3408601,0.412,-0.35,9.77,0.415104357360893,3.1670741912617864,1.792781954887218,0,0.1
1757391526.3679585,0.395,-0.283,9.755,0.41506799442982834,2.8516578646019863,1.7931829573934837,0,0.1
1757391526.3954144,0.395,-0.283,9.755,0.41506799442982834,2.8516578646019863,1.7931829573934837,0,0.1
1757391526.4230819,0.444,-0.241,9.8,0.4151774048524317,2.950985667238897,1.7947368421052632,0,0.1
1757391526.4506862,0.444,-0.241,9.8,0.4151774048524317,2.950985667238897,1.7947368421052632,0,0.1
1757391526.4780831,0.385,-0.219,9.768,0.4151820293557995,2.5962923464819494,1.797393483709273,0,0.1
1757391526.5053465,0.385,-0.219,9.768,0.4151820293557995,2.5962923464819494,1.797393483709273,0,0.1
1757391526.5330398,0.422,-0.221,9.745,0.4152902659586425,2.7985714150087695,1.7991478696741852,0,0.1
1757391526.5610769,0.416,-0.258,9.748,0.4153787939941085,2.8747758630217892,1.798395989974937,0,0.1
1757391526.588479,0.416,-0.258,9.748,0.4153787939941085,2.8747758630217892,1.798395989974937,0,0.1
1757391526.6153717,0.442,-0.245,9.741,0.4155809698482355,2.969825974824353,1.799298245614035,0,0.1
1757391526.642923,0.442,-0.245,9.741,0.4155809698482355,2.969825974824353,1.799298245614035,0,0.1
1757391526.6706848,0.442,-0.245,9.741,0.4155809698482355,2.969825974824353,1.799298245614035,0,0.1
1757391526.698029,0.446,-0.293,9.765,0.41581075322795585,3.127965312313144,1.7986967418546367,0,0.1
1757391526.7253802,0.446,-0.293,9.765,0.41581075322795585,3.127965312313144,1.7986967418546367,0,0.1
1757391526.7523313,0.45,-0.264,9.801,0.4160840570125224,3.047076849279492,1.7984461152882203,0,0.1
1757391526.7797987,0.417,-0.255,9.75,0.41628908525206376,2.8699569658335053,1.7998496240601507,0,0.1
1757391526.8073633,0.417,-0.255,9.75,0.41628908525206376,2.8699569658335053,1.7998496240601507,0,0.1
1757391526.8349454,0.425,-0.26,9.793,0.41652390687690427,2.9124291078443525,1.8001503759398496,0,0.1
1757391526.863207,0.425,-0.26,9.793,0.41652390687690427,2.9124291078443525,1.8001503759398496,0,0.1
1757391526.890919,0.503,-0.28,9.818,0.4169717946096594,3.3557127506185345,1.8037092731829574,0,0.1
1757391526.9181845,0.503,-0.28,9.818,0.4169717946096594,3.3557127506185345,1.8037092731829574,0,0.1
1757391526.9449122,0.347,-0.32,9.748,0.41703529526887767,2.7722626871304694,1.8110275689223059,0,0.1
1757391526.9716573,0.347,-0.32,9.748,0.41703529526887767,2.7722626871304694,1.8110275689223059,0,0.1
1757391526.9989965,0.402,-0.348,9.793,0.41720305008472797,3.107776117905241,1.8136842105263158,0,0.1
1757391527.026144,0.402,-0.348,9.793,0.41720305008472797,3.107776117905241,1.8136842105263158,0,0.1
1757391527.0537226,0.349,-0.264,9.797,0.41724760634424257,2.5575370473340437,1.815689223057644,0,0.1
1757391527.0814974,0.349,-0.264,9.797,0.41724760634424257,2.5575370473340437,1.815689223057644,0,0.1
1757391527.110397,0.294,-0.3,9.762,0.41716022701115696,2.463823664170651,1.8181453634085214,0,0.1
1757391527.1375992,0.294,-0.3,9.762,0.41716022701115696,2.463823664170651,1.8181453634085214,0,0.1
1757391527.1655138,0.315,-0.322,9.786,0.41709882222322325,2.635491556284221,1.8186967418546363,0,0.1
1757391527.193023,0.315,-0.322,9.786,0.41709882222322325,2.635491556284221,1.8186967418546363,0,0.1
1757391527.2206776,0.34,-0.319,9.771,0.41706544750194785,2.7317765405117123,1.8191979949874688,0,0.35000000000000003
1757391527.2482722,0.34,-0.319,9.771,0.41706544750194785,2.7317765405117123,1.8191979949874688,0,0.35000000000000003
1757391527.2759101,0.349,-0.305,9.717,0.41701797023629567,2.7308937524333863,1.819498746867168,0,0.35000000000000003
1757391527.302575,0.349,-0.305,9.717,0.41701797023629567,2.7308937524333863,1.819498746867168,0,0.35000000000000003
1757391527.3290262,0.282,-0.274,9.76,0.41683702750595464,2.3069744037380797,1.8220551378446115,0,0.35000000000000003
1757391527.3561792,0.282,-0.274,9.76,0.41683702750595464,2.3069744037380797,1.8220551378446115,0,0.35000000000000003
1757391527.3828347,0.364,-0.303,9.782,0.41677823539623565,2.771886519271134,1.8259649122807016,0,0.35000000000000003
1757391527.411541,0.364,-0.303,9.782,0.41677823539623565,2.771886519271134,1.8259649122807016,0,0.35000000000000003
1757391527.4395459,0.348,-0.37,9.844,0.4166758542320397,2.953787581239131,1.826065162907268,0,0.35000000000000003
1757391527.467331,0.348,-0.37,9.844,0.4166758542320397,2.953787581239131,1.826065162907268,0,0.35000000000000003
1757391527.4946797,0.615,-0.232,9.712,0.41731063969182475,3.871851336489086,1.839348370927318,0,0.1
1757391527.5222723,0.615,-0.232,9.712,0.41731063969182475,3.871851336489086,1.839348370927318,0,0.1
1757391527.5499935,0.637,-0.076,9.783,0.4180219402136686,3.7517846742417094,1.8403508771929824,0,0.1
1757391527.5776024,0.637,-0.076,9.783,0.4180219402136686,3.7517846742417094,1.8403508771929824,0,0.1
1757391527.60475,0.456,-0.261,9.828,0.4181361291493477,3.060156478468122,1.8493233082706764,0,0.1
1757391527.6318676,0.456,-0.261,9.828,0.4181361291493477,3.060156478468122,1.8493233082706764,0,0.1
1757391527.6592238,0.28,-0.378,9.782,0.41786788881176307,2.7531859013234663,1.8574937343358395,0,0.1
1757391527.6862528,0.28,-0.378,9.782,0.41786788881176307,2.7531859013234663,1.8574937343358395,0,0.1
1757391527.7128882,0.506,-0.495,9.845,0.41809848122182885,4.112496141397534,1.8678696741854637,0,0.1
1757391527.7395327,0.506,-0.495,9.845,0.41809848122182885,4.112496141397534,1.8678696741854637,0,0.1
1757391527.766581,0.497,-0.49,9.834,0.4182528571330984,4.0595502539698725,1.8674185463659145,0,0.1
1757391527.7938092,0.497,-0.49,9.834,0.4182528571330984,4.0595502539698725,1.8674185463659145,0,0.1
1757391527.8208709,0.357,-0.42,9.766,0.4180012858831896,3.2305335494296172,1.873533834586466,0,0.1
1757391527.8472855,0.357,-0.42,9.766,0.4180012858831896,3.2305335494296172,1.873533834586466,0,0.1
1757391527.8744848,0.546,-0.093,9.641,0.4182094630684485,3.2879587394444405,1.8827568922305764,0,0.1
1757391527.9020505,0.546,-0.093,9.641,0.4182094630684485,3.2879587394444405,1.8827568922305764,0,0.1
1757391527.9298465,0.433,-0.108,9.706,0.4180725475321239,2.632509930413369,1.8884210526315788,0,0.1
1757391527.9570994,0.433,-0.108,9.706,0.4180725475321239,2.632509930413369,1.8884210526315788,0,0.1
1757391527.983085,0.367,-0.315,9.63,0.41777763822397196,2.8751446916033245,1.8914285714285717,0,0.1
1757391528.0096946,0.367,-0.315,9.63,0.41777763822397196,2.8751446916033245,1.8914285714285717,0,0.1
1757391528.0364668,0.458,-0.308,9.701,0.41768979219032876,3.256290153700645,1.8956390977443607,0,0.1
1757391528.062941,0.458,-0.308,9.701,0.41768979219032876,3.256290153700645,1.8956390977443607,0,0.1
1757391528.0902772,0.481,-0.226,9.697,0.41764593257926025,3.136980191056169,1.896340852130326,0,0.1
1757391528.1176968,0.481,-0.226,9.697,0.41764593257926025,3.136980191056169,1.896340852130326,0,0.1
1757391528.1451943,0.309,-0.23,9.754,0.4171681495512331,2.261535479323297,1.9049122807017542,0,0.35000000000000003
1757391528.172395,0.309,-0.23,9.754,0.4171681495512331,2.261535479323297,1.9049122807017542,0,0.35000000000000003
1757391528.1997278,0.434,-0.124,9.736,0.4169653043120015,2.6543661911538865,1.9109273182957394,0,0.35000000000000003
1757391528.227167,0.434,-0.124,9.736,0.4169653043120015,2.6543661911538865,1.9109273182957394,0,0.35000000000000003
1757391528.2536654,0.274,-0.114,9.834,0.4164375733528376,1.7285405487571177,1.9184461152882206,0,0.35000000000000003
1757391528.280999,0.274,-0.114,9.834,0.4164375733528376,1.7285405487571177,1.9184461152882206,0,0.35000000000000003
1757391528.3085632,0.229,-0.298,10.012,0.41587095654782147,2.1497327570561406,1.9203508771929825,0,0.35000000000000003
1757391528.3348315,0.229,-0.298,10.012,0.41587095654782147,2.1497327570561406,1.9203508771929825,0,0.35000000000000003
1757391528.3623502,0.441,-0.358,9.862,0.4157513860469981,3.2964049162571265,1.930375939849624,0,0.35000000000000003
1757391528.3897161,0.441,-0.358,9.862,0.4157513860469981,3.2964049162571265,1.930375939849624,0,0.35000000000000003
1757391528.4178486,0.126,-0.488,10.054,0.4151288294011872,2.869817706744021,1.9458646616541355,0,0.35000000000000003
1757391528.4453197,0.126,-0.488,10.054,0.4151288294011872,2.869817706744021,1.9458646616541355,0,0.35000000000000003
1757391528.471186,0.152,-0.298,9.907,0.41454410501175865,1.9339536383128058,1.9471679197994989,0,0.35000000000000003
1757391528.4978628,0.152,-0.298,9.907,0.41454410501175865,1.9339536383128058,1.9471679197994989,0,0.35000000000000003
1757391528.5248356,0.318,-0.115,9.805,0.4141940789050466,1.975236588205248,1.9551879699248123,0,0.35000000000000003
1757391528.5528557,0.318,-0.115,9.805,0.4141940789050466,1.975236588205248,1.9551879699248123,0,0.35000000000000003
1757391528.580282,0.148,-0.263,9.965,0.4136211974742107,1.734632320235816,1.9634586466165416,0,0.35000000000000003
1757391528.6070588,0.148,-0.263,9.965,0.4136211974742107,1.734632320235816,1.9634586466165416,0,0.35000000000000003
1757391528.634851,0.321,-0.203,9.846,0.41330682912335237,2.2090494815438824,1.9716791979949875,0,0.35000000000000003
1757391528.663287,0.321,-0.203,9.846,0.41330682912335237,2.2090494815438824,1.9716791979949875,0,0.35000000000000003
1757391528.6897426,0.301,-0.239,9.914,0.4129791126679411,2.2201323913790803,1.9725814536340853,0,0.35000000000000003
1757391528.715557,0.301,-0.239,9.914,0.4129791126679411,2.2201323913790803,1.9725814536340853,0,0.35000000000000003
1757391528.7414324,0.224,-0.226,9.919,0.4125232447996112,1.8374165877967963,1.975689223057644,0,0.35000000000000003
1757391528.7690203,0.224,-0.226,9.919,0.4125232447996112,1.8374165877967963,1.975689223057644,0,0.35000000000000003
1757391528.7954001,0.291,-0.182,9.802,0.41221160524662576,2.0054525493435893,1.9786967418546366,0,0.35000000000000003
1757391528.823305,0.291,-0.182,9.802,0.41221160524662576,2.0054525493435893,1.9786967418546366,0,0.35000000000000003
1757391528.8504086,0.471,-0.325,9.74,0.4123339908375248,3.3623879961661163,1.9876691729323306,0,0.35000000000000003
1757391528.8784678,0.471,-0.325,9.74,0.4123339908375248,3.3623879961661163,1.9876691729323306,0,0.35000000000000003
1757391528.9058158,0.497,-0.366,9.805,0.41253002314983084,3.602009867829572,1.9885714285714287,0,0.35000000000000003
1757391528.933307,0.497,-0.366,9.805,0.41253002314983084,3.602009867829572,1.9885714285714287,0,0.35000000000000003
1757391528.9598234,0.396,-0.2,9.736,0.41247322034284845,2.6089872475071734,1.9931328320802004,0,0.35000000000000003
1757391528.9858055,0.396,-0.2,9.736,0.41247322034284845,2.6089872475071734,1.9931328320802004,0,0.35000000000000003
1757391529.0128357,0.58,-0.491,9.735,0.4129854174180972,4.46350190723419,2.001904761904762,0,0.35000000000000003
1757391529.0398743,0.58,-0.491,9.735,0.4129854174180972,4.46350190723419,2.001904761904762,0,0.35000000000000003
1757391529.0675082,0.404,-0.492,9.827,0.4129951513032568,3.7065752595068684,2.01062656641604,0,0.35000000000000003
1757391529.0952594,0.404,-0.492,9.827,0.4129951513032568,3.7065752595068684,2.01062656641604,0,0.35000000000000003
1757391529.123315,0.483,-0.548,9.714,0.4132217413205651,4.300440905504408,2.013032581453634,0,0.35000000000000003
1757391529.150398,0.483,-0.548,9.714,0.4132217413205651,4.300440905504408,2.013032581453634,0,0.35000000000000003
1757391529.1779733,0.509,-0.354,9.552,0.41359785722365633,3.7137231928707672,2.0139849624060147,0,0.35000000000000003
1757391529.2046814,0.509,-0.354,9.552,0.41359785722365633,3.7137231928707672,2.0139849624060147,0,0.35000000000000003
1757391529.2320664,0.657,-0.228,9.437,0.414509722443274,4.214657854014791,2.020200501253133,0,0.35000000000000003
1757391529.2597878,0.657,-0.228,9.437,0.414509722443274,4.214657854014791,2.020200501253133,0,0.35000000000000003
1757391529.2859519,0.323,-0.288,9.697,0.41448388690032334,2.555258000178859,2.0159398496240604,0,0.35000000000000003
1757391529.3132234,0.323,-0.288,9.697,0.41448388690032334,2.555258000178859,2.0159398496240604,0,0.35000000000000003
1757391529.3417392,0.436,-0.148,9.548,0.4133365093963997,2.7608438540682925,2.0181954887218043,0,0.35000000000000003
1757391529.3688216,0.436,-0.148,9.548,0.4133365093963997,2.7608438540682925,2.0181954887218043,0,0.35000000000000003
1757391529.396818,0.527,-0.255,9.574,0.41274867655753905,3.4992907155856594,2.007518796992481,0,0.35000000000000003
1757391529.4240398,0.437,-0.241,9.658,0.4128827557551902,2.957962255607388,2.0111779448621556,0,0.35000000000000003
1757391529.4503534,0.437,-0.241,9.658,0.4128827557551902,2.957962255607388,2.0111779448621556,0,0.35000000000000003
1757391529.477907,0.421,-0.081,9.612,0.4129349494775176,2.553855019731432,2.0070676691729323,0,0.35000000000000003
1757391529.5048568,0.421,-0.081,9.612,0.4129349494775176,2.553855019731432,2.0070676691729323,0,0.35000000000000003
1757391529.5304618,0.421,-0.081,9.612,0.4129349494775176,2.553855019731432,2.0070676691729323,0,0.35000000000000003
1757391529.5572069,0.415,-0.04,9.681,0.4131801362602031,2.465983990051444,1.9988471177944862,0,0.35000000000000003
1757391529.584618,0.415,-0.04,9.681,0.4131801362602031,2.465983990051444,1.9988471177944862,0,0.35000000000000003
1757391529.6116154,0.504,-0.206,9.653,0.41327461209225036,3.2283274973836207,1.9991979949874685,0,0.35000000000000003
1757391529.6392653,0.504,-0.206,9.653,0.41327461209225036,3.2283274973836207,1.9991979949874685,0,0.35000000000000003
1757391529.6665118,0.378,-0.199,9.589,0.41324673622425623,2.550796669330253,2.0046616541353384,0,0.35000000000000003
1757391529.6931787,0.378,-0.199,9.589,0.41324673622425623,2.550796669330253,2.0046616541353384,0,0.35000000000000003
1757391529.7196503,0.43,-0.378,9.666,0.41330496307206377,3.3897105257698965,2.0031578947368414,0,0.35000000000000003
1757391529.746391,0.213,-0.536,9.709,0.41271856330918777,3.3997077370036135,2.00922305764411,0,0.35000000000000003
1757391529.7735386,0.213,-0.536,9.709,0.41271856330918777,3.3997077370036135,2.00922305764411,0,0.35000000000000003
1757391529.800809,0.213,-0.536,9.709,0.41271856330918777,3.3997077370036135,2.00922305764411,0,0.35000000000000003
1757391529.8284233,0.336,-0.506,9.507,0.41259269261585335,3.6556316838937266,2.014486215538847,0,0.35000000000000003
1757391529.855956,0.261,-0.183,9.519,0.4122871935920397,1.9179499655859937,2.0170426065162905,0,0.35000000000000003
1757391529.8835576,0.261,-0.183,9.519,0.4122871935920397,1.9179499655859937,2.0170426065162905,0,0.35000000000000003
1757391529.9108467,0.504,-0.156,9.587,0.4126031355915754,3.14991787375668,2.0288721804511276,0,0.35000000000000003
1757391529.9384868,0.504,-0.156,9.587,0.4126031355915754,3.14991787375668,2.0288721804511276,0,0.35000000000000003
1757391529.9653966,0.331,-0.221,9.638,0.4124647378867677,2.364663585446239,2.0313784461152884,0,0.35000000000000003
1757391529.9922876,0.331,-0.221,9.638,0.4124647378867677,2.364663585446239,2.0313784461152884,0,0.35000000000000003
1757391530.019852,0.365,-0.328,9.597,0.41205824830962917,2.92715300379509,2.0234586466165414,0,0.35000000000000003
1757391530.047327,0.365,-0.328,9.597,0.41205824830962917,2.92715300379509,2.0234586466165414,0,0.35000000000000003
1757391530.074424,0.413,-0.338,9.736,0.411049534727872,3.1375276675757435,2.0168421052631578,0,0.35000000000000003
1757391530.101449,0.413,-0.338,9.736,0.411049534727872,3.1375276675757435,2.0168421052631578,0,0.35000000000000003
1757391530.1295836,0.307,-0.263,9.797,0.41048476220196045,2.3628337978813736,2.020401002506266,0,0.35000000000000003
1757391530.1574016,0.307,-0.263,9.797,0.41048476220196045,2.3628337978813736,2.020401002506266,0,0.35000000000000003
1757391530.1845324,0.33,-0.147,9.625,0.4100730422741783,2.1495042581472075,2.0123809523809526,0,0.35000000000000003
1757391530.21106,0.33,-0.147,9.625,0.4100730422741783,2.1495042581472075,2.0123809523809526,0,0.35000000000000003
1757391530.2378726,0.318,-0.162,9.746,0.40898274719112543,2.097163945050706,2.007869674185464,0,0.35000000000000003
1757391530.2642727,0.318,-0.162,9.746,0.40898274719112543,2.097163945050706,2.007869674185464,0,0.35000000000000003
1757391530.2915804,0.249,-0.112,9.746,0.40816090883375883,1.6046928233613642,2.0093233082706767,0,0.35000000000000003
1757391530.319251,0.249,-0.112,9.746,0.40816090883375883,1.6046928233613642,2.0093233082706767,0,0.35000000000000003
1757391530.3469107,0.273,-0.119,9.706,0.40751207037338166,1.7574518717640348,2.008220551378446,0,0.35000000000000003
1757391530.374639,0.273,-0.119,9.706,0.40751207037338166,1.7574518717640348,2.008220551378446,0,0.35000000000000003
1757391530.4020848,0.432,-0.358,9.701,0.4070488238528641,3.3100281428007863,2.0146365914786966,0,0.35000000000000003
1757391530.429774,0.432,-0.358,9.701,0.4070488238528641,3.3100281428007863,2.0146365914786966,0,0.35000000000000003
1757391530.4561012,0.095,-0.438,9.785,0.4061465960709261,2.6224959746287837,2.0215538847117793,0,0.35000000000000003
1757391530.4830978,0.095,-0.438,9.785,0.4061465960709261,2.6224959746287837,2.0215538847117793,0,0.35000000000000003
1757391530.5096722,0.299,-0.36,9.736,0.40604255626719715,2.7518894772852156,2.030225563909774,0,0.35000000000000003
1757391530.536409,0.299,-0.36,9.736,0.40604255626719715,2.7518894772852156,2.030225563909774,0,0.35000000000000003
1757391530.563893,0.338,-0.423,9.685,0.4059450178287695,3.199875908463392,2.0260651629072677,0,0.35000000000000003
1757391530.5902936,0.338,-0.423,9.685,0.4059450178287695,3.199875908463392,2.0260651629072677,0,0.35000000000000003
1757391530.6179788,0.242,-0.423,9.77,0.40591719291008116,2.8555757086927542,2.0260150375939845,0,0.35000000000000003
1757391530.6455712,0.242,-0.423,9.77,0.40591719291008116,2.8555757086927542,2.0260150375939845,0,0.35000000000000003
1757391530.6737168,0.306,-0.211,9.747,0.40612366958846413,2.1838747432911823,2.020300751879699,0,0.35000000000000003
1757391530.7014132,0.306,-0.211,9.747,0.40612366958846413,2.1838747432911823,2.020300751879699,0,0.35000000000000003
1757391530.7288215,0.394,-0.096,9.699,0.4062435507180391,2.3942107140121087,2.021854636591479,0,0.35000000000000003
1757391530.7565308,0.394,-0.096,9.699,0.4062435507180391,2.3942107140121087,2.021854636591479,0,0.35000000000000003
1757391530.7838788,0.283,-0.112,9.696,0.4060025061499005,1.797919779921646,2.01859649122807,0,0.35000000000000003
1757391530.8109133,0.283,-0.112,9.696,0.4060025061499005,1.797919779921646,2.01859649122807,0,0.35000000000000003
1757391530.8376343,0.287,-0.068,9.634,0.40610435543096557,1.753567604897103,2.011779448621554,0,0.35000000000000003
1757391530.864453,0.287,-0.068,9.634,0.40610435543096557,1.753567604897103,2.011779448621554,0,0.35000000000000003
1757391530.8920403,0.336,-0.033,9.536,0.40604849156227635,2.0276774968039293,2.0028070175438595,0,0.35000000000000003
1757391530.9197557,0.336,-0.033,9.536,0.40604849156227635,2.0276774968039293,2.0028070175438595,0,0.35000000000000003
1757391530.9473743,0.385,-0.095,9.528,0.4054327194492324,2.383228279833492,1.9910275689223054,0,0.35000000000000003
1757391530.973819,0.385,-0.095,9.528,0.4054327194492324,2.383228279833492,1.9910275689223054,0,0.35000000000000003
1757391531.0006418,0.397,-0.157,9.577,0.40562990829079654,2.5524016993669143,1.9837092731829573,0,0.35000000000000003
1757391531.0281732,0.397,-0.157,9.577,0.40562990829079654,2.5524016993669143,1.9837092731829573,0,0.35000000000000003
1757391531.055938,0.425,-0.06,9.639,0.40552305113273157,2.549635735858024,1.9750375939849623,0,0.35000000000000003
1757391531.0833533,0.425,-0.06,9.639,0.40552305113273157,2.549635735858024,1.9750375939849623,0,0.35000000000000003
1757391531.110427,0.353,-0.261,9.76,0.4045428345676141,2.5754601615331034,1.9716791979949873,0,0.35000000000000003
1757391531.13802,0.353,-0.261,9.76,0.4045428345676141,2.5754601615331034,1.9716791979949873,0,0.35000000000000003
1757391531.1660204,0.279,-0.426,9.736,0.40392798553702614,2.9940703177351993,1.9719799498746866,0,0.35000000000000003
1757391531.194123,0.279,-0.426,9.736,0.40392798553702614,2.9940703177351993,1.9719799498746866,0,0.35000000000000003
1757391531.2215443,0.139,-0.47,9.792,0.40333820795952374,2.8654604572712983,1.9775438596491228,0,0.35000000000000003
1757391531.2490482,0.139,-0.47,9.792,0.40333820795952374,2.8654604572712983,1.9775438596491228,0,0.35000000000000003
1757391531.2763653,0.463,-0.38,9.638,0.4032675414659603,3.556190195081425,1.986516290726817,0,0.35000000000000003
1757391531.30397,0.463,-0.38,9.638,0.4032675414659603,3.556190195081425,1.986516290726817,0,0.35000000000000003
1757391531.3319263,0.463,-0.436,9.648,0.403569352775951,3.771359776978884,1.9793984962406015,0,0.35000000000000003
1757391531.35956,0.463,-0.436,9.648,0.403569352775951,3.771359776978884,1.9793984962406015,0,0.35000000000000003
1757391531.3867955,0.258,-0.33,9.772,0.4036516226896654,2.4545246443028055,1.982155388471178,0,0.35000000000000003
1757391531.4143906,0.258,-0.33,9.772,0.4036516226896654,2.4545246443028055,1.982155388471178,0,0.35000000000000003
1757391531.4420497,0.387,-0.307,9.724,0.40373605858283207,2.9081408788328997,1.9847117794486218,0,0.35000000000000003
1757391531.4689968,0.387,-0.307,9.724,0.40373605858283207,2.9081408788328997,1.9847117794486218,0,0.35000000000000003
1757391531.4965148,0.344,-0.306,9.79,0.4035352339015765,2.6925224250554045,1.973784461152882,0,0.35000000000000003
1757391531.5238798,0.344,-0.306,9.79,0.4035352339015765,2.6925224250554045,1.973784461152882,0,0.35000000000000003
1757391531.5513582,0.272,-0.269,9.84,0.4036779935790407,2.2263724535103657,1.965964912280702,0,0.35000000000000003
1757391531.5786831,0.272,-0.269,9.84,0.4036779935790407,2.2263724535103657,1.965964912280702,0,0.35000000000000003
1757391531.606297,0.341,-0.265,9.717,0.4035549064253835,2.5447851815421543,1.962155388471178,0,0.35000000000000003
1757391531.6329346,0.341,-0.265,9.717,0.4035549064253835,2.5447851815421543,1.962155388471178,0,0.35000000000000003
1757391531.6603897,0.369,-0.241,9.756,0.40307315092920787,2.586587871300397,1.9426065162907267,0,0.35000000000000003
1757391531.6885881,0.369,-0.241,9.756,0.40307315092920787,2.586587871300397,1.9426065162907267,0,0.35000000000000003
1757391531.7162628,0.237,-0.183,9.808,0.4032011625727287,1.7486457170100893,1.9434085213032581,0,0.35000000000000003
1757391531.74405,0.237,-0.183,9.808,0.4032011625727287,1.7486457170100893,1.9434085213032581,0,0.35000000000000003
1757391531.7722144,0.218,-0.029,9.819,0.4031728878533377,1.2830641295522813,1.943859649122807,0,0.35000000000000003
1757391531.799797,0.218,-0.029,9.819,0.4031728878533377,1.2830641295522813,1.943859649122807,0,0.35000000000000003
1757391531.8260908,0.414,-0.195,9.814,0.40351345392687965,2.669759994660743,1.9499749373433584,0,0.35000000000000003
1757391531.8529475,0.205,-0.062,9.86,0.40354984822200096,1.2443342818215433,1.9594987468671676,0,0.35000000000000003
1757391531.880588,0.205,-0.062,9.86,0.40354984822200096,1.2443342818215433,1.9594987468671676,0,0.35000000000000003
1757391531.907833,0.457,-0.076,9.741,0.4041219370437591,2.722902685270606,1.96390977443609,0,0.35000000000000003
1757391531.93512,0.457,-0.076,9.741,0.4041219370437591,2.722902685270606,1.96390977443609,0,0.35000000000000003
1757391531.960906,0.457,-0.076,9.741,0.4041219370437591,2.722902685270606,1.96390977443609,0,0.35000000000000003
1757391531.9885159,0.418,-0.145,9.857,0.4043475578014538,2.5700184952227,1.958095238095238,0,0.35000000000000003
1757391532.0160432,0.352,-0.176,9.841,0.4046473371962307,2.290075051247158,1.9584962406015034,0,0.35000000000000003
1757391532.0437405,0.352,-0.176,9.841,0.4046473371962307,2.290075051247158,1.9584962406015034,0,0.35000000000000003
1757391532.0713499,0.396,-0.101,9.696,0.404979379104665,2.4135337811859094,1.9564912280701754,0,0.35000000000000003
1757391532.0987449,0.396,-0.101,9.696,0.404979379104665,2.4135337811859094,1.9564912280701754,0,0.35000000000000003
1757391532.1250336,0.544,-0.447,9.8,0.4056033129795663,4.109416293445499,1.9613533834586465,0,0.35000000000000003
1757391532.151468,0.544,-0.447,9.8,0.4056033129795663,4.109416293445499,1.9613533834586465,0,0.35000000000000003
1757391532.1788611,0.443,-0.424,9.722,0.4060075214820534,3.6091126490020655,1.9630576441102756,0,0.35000000000000003
1757391532.2056198,0.443,-0.424,9.722,0.4060075214820534,3.6091126490020655,1.9630576441102756,0,0.35000000000000003
1757391532.2333922,0.466,-0.26,9.646,0.40635672444294557,3.1664261585121585,1.960501253132832,0,0.35000000000000003
1757391532.2609568,0.466,-0.26,9.646,0.40635672444294557,3.1664261585121585,1.960501253132832,0,0.35000000000000003
1757391532.2898686,0.655,-0.207,9.649,0.4074856930003801,4.0721263670418475,1.9637593984962405,0,0.35000000000000003
1757391532.3175468,0.655,-0.207,9.649,0.4074856930003801,4.0721263670418475,1.9637593984962405,0,0.35000000000000003
1757391532.3448236,0.427,-0.25,9.734,0.4076204760558527,2.909973783362034,1.9695739348370929,0,0.35000000000000003
1757391532.3725126,0.427,-0.25,9.734,0.4076204760558527,2.909973783362034,1.9695739348370929,0,0.35000000000000003
1757391532.4002166,0.538,-0.246,9.586,0.40778967924654497,3.5313762817516685,1.962406015037594,0,0.35000000000000003
1757391532.427743,0.538,-0.246,9.586,0.40778967924654497,3.5313762817516685,1.962406015037594,0,0.35000000000000003
1757391532.4548807,0.736,-0.175,9.604,0.4092852458860446,4.503959487179175,1.9703759398496241,0,0.35000000000000003
1757391532.4813418,0.736,-0.175,9.604,0.4092852458860446,4.503959487179175,1.9703759398496241,0,0.35000000000000003
1757391532.5096824,0.599,-0.304,9.738,0.41015913070416954,3.9460099872670518,1.9319799498746868,0,0.35000000000000003
1757391532.5375109,0.599,-0.304,9.738,0.41015913070416954,3.9460099872670518,1.9319799498746868,0,0.35000000000000003
1757391532.5633364,0.494,-0.386,9.739,0.40967757138998956,3.6831840364648865,1.9150877192982454,0,0.35000000000000003
1757391532.5892596,0.494,-0.386,9.739,0.40967757138998956,3.6831840364648865,1.9150877192982454,0,0.35000000000000003
1757391532.6156366,0.626,-0.346,9.681,0.4107593486458951,4.225478833453874,1.9208521303258144,0,0.35000000000000003
1757391532.643102,0.626,-0.346,9.681,0.4107593486458951,4.225478833453874,1.9208521303258144,0,0.35000000000000003
1757391532.6705503,0.598,-0.264,9.786,0.4117135533353256,3.8215468027691024,1.8797994987468671,0,0.35000000000000003
1757391532.6979432,0.598,-0.264,9.786,0.4117135533353256,3.8215468027691024,1.8797994987468671,0,0.35000000000000003
1757391532.7252357,0.546,-0.394,9.697,0.4113827050326739,3.971975028788499,1.8656641604010025,0,0.35000000000000003
1757391532.7527826,0.546,-0.394,9.697,0.4113827050326739,3.971975028788499,1.8656641604010025,0,0.35000000000000003
1757391532.7803147,0.542,-0.348,9.576,0.4119940533551425,3.8480419639278782,1.8603007518796992,0,0.35000000000000003
1757391532.806667,0.542,-0.348,9.576,0.4119940533551425,3.8480419639278782,1.8603007518796992,0,0.35000000000000003
1757391532.8341749,0.488,-0.469,9.824,0.4121940046871133,3.941223413571057,1.8528822055137846,0,0.35000000000000003
1757391532.8607066,0.488,-0.469,9.824,0.4121940046871133,3.941223413571057,1.8528822055137846,0,0.35000000000000003
1757391532.8880453,0.427,-0.43,9.85,0.4126091340481933,3.5205283862222254,1.8466165413533833,0,0.35000000000000003
1757391532.9154124,0.427,-0.43,9.85,0.4126091340481933,3.5205283862222254,1.8466165413533833,0,0.35000000000000003
1757391532.9421499,0.44,-0.352,9.766,0.4127133327141249,3.3021688969491154,1.8455137844611527,0,0.35000000000000003
1757391532.9692996,0.44,-0.352,9.766,0.4127133327141249,3.3021688969491154,1.8455137844611527,0,0.35000000000000003
1757391532.9956222,0.473,-0.348,9.743,0.41282045431397896,3.449127798234095,1.8401503759398496,0,0.35000000000000003
1757391533.0230029,0.473,-0.348,9.743,0.41282045431397896,3.449127798234095,1.8401503759398496,0,0.35000000000000003
1757391533.050101,0.509,-0.398,9.678,0.41260724666442783,3.8195608977652413,1.8285714285714287,0,0.35000000000000003
1757391533.078482,0.509,-0.398,9.678,0.41260724666442783,3.8195608977652413,1.8285714285714287,0,0.35000000000000003
1757391533.106007,0.446,-0.355,9.61,0.4129242152017728,3.3946337188838847,1.831177944862155,0,0.35000000000000003
1757391533.1335897,0.446,-0.355,9.61,0.4129242152017728,3.3946337188838847,1.831177944862155,0,0.35000000000000003
1757391533.16112,0.476,-0.244,9.675,0.41334465945503635,3.1644467846108624,1.8198496240601505,0,0.35000000000000003
1757391533.188803,0.476,-0.244,9.675,0.41334465945503635,3.1644467846108624,1.8198496240601505,0,0.35000000000000003
1757391533.215929,0.467,-0.44,9.714,0.41308264306310427,3.77901629395021,1.807468671679198,0,0.35000000000000003
1757391533.2423947,0.467,-0.44,9.714,0.41308264306310427,3.77901629395021,1.807468671679198,0,0.35000000000000003
1757391533.2697158,0.375,-0.41,9.667,0.4132430186948111,3.289570896025598,1.8099749373433582,0,0.35000000000000003
1757391533.2972407,0.375,-0.41,9.667,0.4132430186948111,3.289570896025598,1.8099749373433582,0,0.35000000000000003
1757391533.3249328,0.524,-0.463,9.724,0.4137277154119603,4.113019681464067,1.8114786967418546,0,0.35000000000000003
1757391533.3523254,0.524,-0.463,9.724,0.4137277154119603,4.113019681464067,1.8114786967418546,0,0.35000000000000003
1757391533.379752,0.524,-0.463,9.724,0.4137277154119603,4.113019681464067,1.8114786967418546,0,0.35000000000000003
1757391533.4073868,0.423,-0.303,9.767,0.41363730791600506,3.0494793796167046,1.816340852130326,0,0.35000000000000003
1757391533.4346786,0.379,-0.26,9.748,0.413429102144491,2.6994464146551795,1.8121303258145365,0,0.35000000000000003
1757391533.4610982,0.379,-0.26,9.748,0.413429102144491,2.6994464146551795,1.8121303258145365,0,0.35000000000000003
1757391533.4874916,0.474,-0.274,9.706,0.41377299331880035,3.2285194129956034,1.813483709273183,0,0.35000000000000003
1757391533.5149338,0.474,-0.274,9.706,0.41377299331880035,3.2285194129956034,1.813483709273183,0,0.35000000000000003
1757391533.5424623,0.47,-0.412,9.805,0.4139545113898386,3.647358179700925,1.812982456140351,0,0.35000000000000003
1757391533.5698266,0.47,-0.412,9.805,0.4139545113898386,3.647358179700925,1.812982456140351,0,0.35000000000000003
1757391533.5972981,0.342,-0.404,9.834,0.4137876085626538,3.0810029105296883,1.8162907268170427,0,0.35000000000000003
1757391533.6249108,0.342,-0.404,9.834,0.4137876085626538,3.0810029105296883,1.8162907268170427,0,0.35000000000000003
1757391533.6525712,0.349,-0.37,9.829,0.41377912586306237,2.9622734610414487,1.8112781954887218,0,0.35000000000000003
1757391533.6795595,0.349,-0.37,9.829,0.41377912586306237,2.9622734610414487,1.8112781954887218,0,0.35000000000000003
1757391533.7060175,0.417,-0.358,9.896,0.413665187682019,3.1787663916254547,1.8059649122807018,0,0.35000000000000003
1757391533.7331023,0.417,-0.358,9.896,0.413665187682019,3.1787663916254547,1.8059649122807018,0,0.35000000000000003
1757391533.7605207,0.306,-0.332,9.97,0.4137009638615796,2.5929661738243217,1.80937343358396,0,0.35000000000000003
1757391533.7879577,0.306,-0.332,9.97,0.4137009638615796,2.5929661738243217,1.80937343358396,0,0.35000000000000003
1757391533.8151712,0.374,-0.269,9.83,0.4137965381682162,2.6832553411194278,1.812481203007519,0,0.35000000000000003
1757391533.8416746,0.374,-0.269,9.83,0.4137965381682162,2.6832553411194278,1.812481203007519,0,0.35000000000000003
1757391533.8689377,0.404,-0.258,9.757,0.4139505435435494,2.812635079228474,1.8097744360902257,0,0.35000000000000003
1757391533.8951836,0.404,-0.258,9.757,0.4139505435435494,2.812635079228474,1.8097744360902257,0,0.35000000000000003
1757391533.922087,0.26,-0.313,9.962,0.41396443083917245,2.338967916152057,1.809924812030075,0,0.35000000000000003
1757391533.949363,0.26,-0.313,9.962,0.41396443083917245,2.338967916152057,1.809924812030075,0,0.35000000000000003
1757391533.976267,0.288,-0.258,9.879,0.41375083081487585,2.2414045058383616,1.8051629072681703,0,0.35000000000000003
1757391534.0030286,0.288,-0.258,9.879,0.41375083081487585,2.2414045058383616,1.8051629072681703,0,0.35000000000000003
1757391534.0303917,0.395,-0.271,9.693,0.4140035144778363,2.829244005445514,1.8072681704260651,0,0.35000000000000003
1757391534.057417,0.395,-0.271,9.693,0.4140035144778363,2.829244005445514,1.8072681704260651,0,0.35000000000000003
1757391534.0840352,0.402,-0.3,9.729,0.4141545967389472,2.951405172559618,1.8041604010025063,0,0.35000000000000003
1757391534.1114748,0.402,-0.3,9.729,0.4141545967389472,2.951405172559618,1.8041604010025063,0,0.35000000000000003
1757391534.1387875,0.401,-0.263,9.741,0.4144278827492185,2.8184101552626024,1.7977944862155386,0,0.35000000000000003
1757391534.1658044,0.401,-0.263,9.741,0.4144278827492185,2.8184101552626024,1.7977944862155386,0,0.35000000000000003
1757391534.1924424,0.39,-0.26,9.688,0.41442079762000356,2.7699058685779248,1.7961403508771931,0,0.35000000000000003
1757391534.2197053,0.39,-0.26,9.688,0.41442079762000356,2.7699058685779248,1.7961403508771931,0,0.35000000000000003
1757391534.247239,0.393,-0.361,9.736,0.41451926071052475,3.137291285711556,1.7953383458646615,0,0.35000000000000003
1757391534.2745843,0.393,-0.361,9.736,0.41451926071052475,3.137291285711556,1.7953383458646615,0,0.35000000000000003
1757391534.3020818,0.43,-0.456,9.765,0.4147483785381204,3.6724906401953996,1.7906766917293233,0,0.35000000000000003
1757391534.3297498,0.43,-0.456,9.765,0.4147483785381204,3.6724906401953996,1.7906766917293233,0,0.35000000000000003
1757391534.3569267,0.399,-0.407,9.74,0.4151074800578761,3.3489613445379702,1.7804511278195492,0,0.35000000000000003
1757391534.3840861,0.399,-0.407,9.74,0.4151074800578761,3.3489613445379702,1.7804511278195492,0,0.35000000000000003
1757391534.4112291,0.292,-0.388,9.759,0.4147943074585282,2.8486463106816493,1.7820551378446114,0,0.35000000000000003
1757391534.4378717,0.292,-0.388,9.759,0.4147943074585282,2.8486463106816493,1.7820551378446114,0,0.35000000000000003
1757391534.4653795,0.624,-0.404,9.584,0.41557641595740247,4.435161866460166,1.7952882205513783,0,0.35000000000000003
1757391534.492866,0.624,-0.404,9.584,0.41557641595740247,4.435161866460166,1.7952882205513783,0,0.35000000000000003
1757391534.5203226,0.277,-0.229,9.66,0.4152560896603444,2.1307184597298,1.8027568922305763,0,0.35000000000000003
1757391534.547681,0.277,-0.229,9.66,0.4152560896603444,2.1307184597298,1.8027568922305763,0,0.35000000000000003
1757391534.5752177,0.372,-0.312,9.563,0.41551333311940786,2.90643976254327,1.7940350877192983,0,0.35000000000000003
1757391534.6025066,0.372,-0.312,9.563,0.41551333311940786,2.90643976254327,1.7940350877192983,0,0.35000000000000003
1757391534.6298416,0.385,-0.469,9.545,0.4152100552732315,3.6374440896337368,1.7839598997493733,0,0.35000000000000003
1757391534.6572356,0.385,-0.469,9.545,0.4152100552732315,3.6374440896337368,1.7839598997493733,0,0.35000000000000003
1757391534.6844559,0.388,-0.473,9.58,0.41541868939661347,3.6539453557366617,1.7784461152882203,0,0.35000000000000003
1757391534.7119098,0.388,-0.473,9.58,0.41541868939661347,3.6539453557366617,1.7784461152882203,0,0.35000000000000003
1757391534.7394378,0.451,-0.225,9.52,0.4155540638713572,3.0305363853806746,1.7754385964912278,0,0.35000000000000003
1757391534.7668564,0.451,-0.225,9.52,0.4155540638713572,3.0305363853806746,1.7754385964912278,0,0.35000000000000003
1757391534.7947507,0.487,-0.384,9.634,0.4154509598015149,3.6832899496836053,1.7635588972431078,0,0.35000000000000003
1757391534.822218,0.487,-0.384,9.634,0.4154509598015149,3.6832899496836053,1.7635588972431078,0,0.35000000000000003
1757391534.8498805,0.478,-0.47,9.715,0.4159530622558272,3.947305768728172,1.7583458646616539,0,0.35000000000000003
1757391534.8777494,0.435,-0.405,9.689,0.4161300397712234,3.510273135809338,1.7569924812030073,0,0.35000000000000003
1757391534.905314,0.435,-0.405,9.689,0.4161300397712234,3.510273135809338,1.7569924812030073,0,0.35000000000000003
1757391534.933076,0.435,-0.44,9.772,0.41614044504229575,3.6229301992871727,1.754786967418546,0,0.35000000000000003
