timestamp,ax,ay,az,rms,tilt_now,jerk,tilt_crosses,freq
1757393886.3317106,-0.103,-0.327,9.74,0.005149999999999999,2.0159212412813,0.005162907268170425,0,0.9500000000000001
1757393886.3598816,-0.114,-0.321,9.746,0.007681959385469309,2.0017863074881914,0.005714285714285713,0,0.05
1757393886.388676,-0.133,-0.319,9.74,0.010160462587894313,2.0322380345820794,0.006666666666666666,0,0.05
1757393886.4142497,-0.155,-0.309,9.743,0.01277879102262808,2.0320885764884595,0.007769423558897242,0,0.05
1757393886.4402127,-0.165,-0.303,9.74,0.015210522673465236,2.0286991449794645,0.008270676691729323,0,0.05
1757393886.467249,-0.174,-0.305,9.75,0.017522842235208305,2.0625935441228123,0.008721804511278195,0,0.05
1757393886.4922664,-0.184,-0.307,9.749,0.01979115964262832,2.102570627211201,0.009223057644110275,0,0.05
1757393886.5171876,-0.176,-0.311,9.756,0.02165940904087644,2.0977178707645043,0.00962406015037594,0,0.05
1757393886.5420609,-0.176,-0.3,9.772,0.02337883658354282,2.038475455971322,0.00962406015037594,0,0.05
1757393886.5670938,-0.181,-0.31,9.757,0.02506935380100572,2.1070325166801127,0.00987468671679198,0,0.05
1757393886.5923173,-0.173,-0.309,9.756,0.026519709651502597,2.078865008160902,0.010275689223057643,0,0.05
1757393886.617834,-0.176,-0.318,9.756,0.027941635599942963,2.1335432483110734,0.01042606516290727,0,0.05
1757393886.6429985,-0.17,-0.31,9.769,0.0292059069367825,2.072707513816949,0.010726817042606515,0,0.05
1757393886.6683133,-0.165,-0.316,9.761,0.030348764390004414,2.091585657290643,0.010977443609022555,0,0.05
1757393886.693429,-0.166,-0.327,9.77,0.03146327223923157,2.149617333867718,0.011027568922305761,0,0.05
1757393886.718744,-0.157,-0.329,9.758,0.03242776588049198,2.1394692709141196,0.011478696741854632,0,0.05
1757393886.7438347,-0.157,-0.329,9.758,0.03242776588049198,2.1394692709141196,0.011478696741854632,0,0.05
1757393886.7685678,-0.136,-0.328,9.748,0.03313306505592261,2.086114991429571,0.012531328320802,0,0.05
1757393886.7935276,-0.136,-0.328,9.748,0.03313306505592261,2.086114991429571,0.012531328320802,0,0.05
1757393886.8185537,-0.117,-0.324,9.745,0.03364554205240272,2.0245164759925363,0.013483709273182952,0,0.05
1757393886.8436062,-0.117,-0.324,9.745,0.03364554205240272,2.0245164759925363,0.013483709273182952,0,0.05
1757393886.8687692,-0.117,-0.324,9.745,0.03364554205240272,2.0245164759925363,0.013483709273182952,0,0.05
1757393886.893899,-0.121,-0.323,9.763,0.03418515759799858,2.0233801337296784,0.013684210526315785,0,0.05
1757393886.9190016,-0.121,-0.323,9.763,0.03418515759799858,2.0233801337296784,0.013684210526315785,0,0.05
1757393886.944312,-0.105,-0.329,9.752,0.0345859436765863,2.028176829915044,0.014486215538847115,0,0.05
1757393886.969503,-0.105,-0.329,9.752,0.0345859436765863,2.028176829915044,0.014486215538847115,0,0.05
1757393886.994722,-0.083,-0.333,9.756,0.034834035080650645,2.014669854121841,0.015588972431077694,0,0.05
1757393887.020309,-0.083,-0.333,9.756,0.034834035080650645,2.014669854121841,0.015588972431077694,0,0.05
1757393887.0457437,-0.072,-0.34,9.759,0.03501956595961749,2.0395695703594363,0.016140350877192983,0,0.05
1757393887.0710607,-0.072,-0.34,9.759,0.03501956595961749,2.0395695703594363,0.016140350877192983,0,0.05
1757393887.0962183,-0.043,-0.35,9.775,0.03508550270410843,2.0660399974359027,0.017593984962406013,0,0.05
1757393887.1212137,-0.043,-0.35,9.775,0.03508550270410843,2.0660399974359027,0.017593984962406013,0,0.05
1757393887.146335,-0.043,-0.35,9.775,0.03508550270410843,2.0660399974359027,0.017593984962406013,0,0.05
1757393887.1713831,-0.027,-0.341,9.782,0.03511146536389503,2.002762882297844,0.018395989974937344,0,0.05
1757393887.19655,-0.033,-0.343,9.776,0.03515021337061839,2.018722124393189,0.01869674185463659,0,0.05
1757393887.2216365,-0.033,-0.343,9.776,0.03515021337061839,2.018722124393189,0.01869674185463659,0,0.05
1757393887.2467442,-0.033,-0.343,9.776,0.03515021337061839,2.018722124393189,0.01869674185463659,0,0.05
1757393887.2719963,-0.029,-0.343,9.754,0.03518010801575231,2.021159256592835,0.018897243107769423,0,0.05
1757393887.297101,-0.029,-0.343,9.754,0.03518010801575231,2.021159256592835,0.018897243107769423,0,0.05
1757393887.322366,-0.037,-0.34,9.75,0.035228716979191846,2.0089788990469244,0.01929824561403509,0,0.05
1757393887.3477557,-0.037,-0.34,9.75,0.035228716979191846,2.0089788990469244,0.01929824561403509,0,0.05
1757393887.3728383,-0.046,-0.332,9.76,0.035303717934517885,1.9668416049089177,0.01974937343358396,0,0.05
1757393887.3981109,-0.046,-0.332,9.76,0.035303717934517885,1.9668416049089177,0.01974937343358396,0,0.05
1757393887.4237592,-0.044,-0.32,9.748,0.03537219953579364,1.8978650442344267,0.019849624060150377,0,0.05
1757393887.4490685,-0.044,-0.32,9.748,0.03537219953579364,1.8978650442344267,0.019849624060150377,0,0.05
1757393887.4742038,-0.062,-0.315,9.755,0.03550778083744463,1.8849622926251453,0.02075187969924812,0,0.05
1757393887.4992938,-0.062,-0.315,9.755,0.03550778083744463,1.8849622926251453,0.02075187969924812,0,0.05
1757393887.5242338,-0.061,-0.312,9.757,0.035638532517487304,1.8661781633682697,0.020802005012531325,0,0.05
1757393887.5494256,-0.061,-0.312,9.757,0.035638532517487304,1.8661781633682697,0.020802005012531325,0,0.05
1757393887.574429,-0.066,-0.296,9.74,0.035790990486433874,1.7834100247934428,0.021052631578947364,0,0.05
1757393887.5996573,-0.066,-0.296,9.74,0.035790990486433874,1.7834100247934428,0.021052631578947364,0,0.05
1757393887.6249883,-0.066,-0.296,9.74,0.035790990486433874,1.7834100247934428,0.021052631578947364,0,0.05
1757393887.650331,-0.07,-0.301,9.743,0.03596171575439636,1.8167213132761468,0.021253132832080197,0,0.05
1757393887.675508,-0.07,-0.301,9.743,0.03596171575439636,1.8167213132761468,0.021253132832080197,0,0.05
1757393887.7007833,-0.08,-0.295,9.744,0.036183490710543664,1.7966956843739017,0.021754385964912276,0,0.05
1757393887.7259488,-0.08,-0.295,9.744,0.036183490710543664,1.7966956843739017,0.021754385964912276,0,0.05
1757393887.7512496,-0.077,-0.31,9.757,0.03638773831938446,1.8750509090790637,0.021904761904761903,0,0.05
1757393887.7764428,-0.077,-0.31,9.757,0.03638773831938446,1.8750509090790637,0.021904761904761903,0,0.05
1757393887.8015993,-0.082,-0.303,9.739,0.036617994210497114,1.8460726924159316,0.02215538847117794,0,0.05
1757393887.8267415,-0.082,-0.303,9.739,0.036617994210497114,1.8460726924159316,0.02215538847117794,0,0.05
1757393887.8519607,-0.092,-0.308,9.742,0.036905792228321015,1.8898441157531833,0.022656641604010017,0,0.05
1757393887.8774855,-0.092,-0.308,9.742,0.036905792228321015,1.8898441157531833,0.022656641604010017,0,0.05
1757393887.9031012,-0.101,-0.302,9.752,0.037249697985352846,1.87027012075647,0.023107769423558893,0,0.05
1757393887.9288602,-0.101,-0.302,9.752,0.037249697985352846,1.87027012075647,0.023107769423558893,0,0.05
1757393887.954328,-0.109,-0.298,9.745,0.037646281356861794,1.8649610342354852,0.02350877192982456,0,0.05
1757393887.97947,-0.109,-0.298,9.745,0.037646281356861794,1.8649610342354852,0.02350877192982456,0,0.05
1757393888.0046847,-0.109,-0.298,9.745,0.037646281356861794,1.8649610342354852,0.02350877192982456,0,0.05
1757393888.029835,-0.12,-0.293,9.764,0.03812141786450236,1.8573028707688377,0.024060150375939848,0,0.05
1757393888.0549226,-0.12,-0.293,9.764,0.03812141786450236,1.8573028707688377,0.024060150375939848,0,0.05
1757393888.0800393,-0.117,-0.3,9.767,0.03856766780607819,1.8882978966809725,0.024210526315789474,0,0.05
1757393888.105352,-0.117,-0.3,9.767,0.03856766780607819,1.8882978966809725,0.024210526315789474,0,0.05
1757393888.1309383,-0.123,-0.288,9.752,0.0390549292663551,1.8393079523957307,0.024511278195488716,0,0.05
1757393888.1567829,-0.123,-0.288,9.752,0.0390549292663551,1.8393079523957307,0.024511278195488716,0,0.05
1757393888.1820705,-0.143,-0.291,9.754,0.039704030022152656,1.9038964548225696,0.02551378446115288,0,0.05
1757393888.207867,-0.143,-0.291,9.754,0.039704030022152656,1.9038964548225696,0.02551378446115288,0,0.05
1757393888.2333124,-0.153,-0.286,9.752,0.04043429855951504,1.904965270118789,0.02601503759398496,0,0.05
1757393888.258708,-0.153,-0.286,9.752,0.04043429855951504,1.904965270118789,0.02601503759398496,0,0.05
1757393888.2841992,-0.164,-0.287,9.774,0.04125739327684191,1.9369808986014272,0.02656641604010025,0,0.05
1757393888.3095715,-0.164,-0.287,9.774,0.04125739327684191,1.9369808986014272,0.02656641604010025,0,0.05
1757393888.3348055,-0.191,-0.28,9.77,0.04234825852381654,1.9869092584364392,0.027919799498746865,0,0.05
1757393888.360166,-0.191,-0.28,9.77,0.04234825852381654,1.9869092584364392,0.027919799498746865,0,0.05
1757393888.385487,-0.191,-0.28,9.77,0.04234825852381654,1.9869092584364392,0.027919799498746865,0,0.05
1757393888.4108963,-0.2,-0.29,9.762,0.04351292911308086,2.0667184009950623,0.028370927318295745,0,0.05
1757393888.4362423,-0.2,-0.29,9.762,0.04351292911308086,2.0667184009950623,0.028370927318295745,0,0.05
1757393888.4615617,-0.213,-0.291,9.742,0.04479729344502857,2.1199783832993155,0.02902255639097744,0,0.05
1757393888.4867096,-0.213,-0.291,9.742,0.04479729344502857,2.1199783832993155,0.02902255639097744,0,0.05
1757393888.5121987,-0.217,-0.296,9.727,0.04609251566143901,2.160874758647007,0.029223057644110272,0,0.05
1757393888.538095,-0.217,-0.296,9.727,0.04609251566143901,2.160874758647007,0.029223057644110272,0,0.05
1757393888.5638106,-0.213,-0.299,9.734,0.0473068969601685,2.159842701998437,0.029423558897243105,0,0.05
1757393888.5893934,-0.213,-0.299,9.734,0.0473068969601685,2.159842701998437,0.029423558897243105,0,0.05
1757393888.6146529,-0.211,-0.301,9.727,0.04846901071818983,2.164213658320316,0.029523809523809518,0,0.05
1757393888.6399105,-0.211,-0.301,9.727,0.04846901071818983,2.164213658320316,0.029523809523809518,0,0.05
1757393888.6653059,-0.22,-0.298,9.731,0.049701559331674895,2.1799117968035864,0.02997493734335839,0,0.05
1757393888.6904373,-0.22,-0.298,9.731,0.049701559331674895,2.1799117968035864,0.02997493734335839,0,0.05
1757393888.7155712,-0.206,-0.283,9.732,0.050757610266835854,2.0598980004128244,0.030676691729323313,0,0.05
1757393888.741226,-0.206,-0.283,9.732,0.050757610266835854,2.0598980004128244,0.030676691729323313,0,0.05
1757393888.7667968,-0.219,-0.286,9.742,0.0519253069321694,2.1175910792205843,0.03132832080200502,0,0.05
1757393888.7923677,-0.219,-0.286,9.742,0.0519253069321694,2.1175910792205843,0.03132832080200502,0,0.05
1757393888.8175035,-0.226,-0.286,9.75,0.053140638874593894,2.14107821485805,0.03167919799498747,0,0.05
1757393888.8425958,-0.226,-0.286,9.75,0.053140638874593894,2.14107821485805,0.03167919799498747,0,0.05
1757393888.8678992,-0.226,-0.286,9.75,0.053140638874593894,2.14107821485805,0.03167919799498747,0,0.05
1757393888.8928452,-0.216,-0.29,9.755,0.05422699973260552,2.1228894270237544,0.032180451127819545,0,0.05
1757393888.9182312,-0.216,-0.29,9.755,0.05422699973260552,2.1228894270237544,0.032180451127819545,0,0.05
1757393888.9434018,-0.225,-0.286,9.748,0.055381675669845885,2.137882964583896,0.03263157894736842,0,0.05
1757393888.9687352,-0.225,-0.286,9.748,0.055381675669845885,2.137882964583896,0.03263157894736842,0,0.05
1757393888.9938111,-0.23,-0.297,9.737,0.056563062151902634,2.2093244455416032,0.03288220551378446,0,0.05
1757393889.019065,-0.23,-0.297,9.737,0.056563062151902634,2.2093244455416032,0.03288220551378446,0,0.05
1757393889.0446117,-0.217,-0.303,9.74,0.057594292251923716,2.191289977155569,0.033533834586466166,0,0.05
1757393889.069778,-0.217,-0.303,9.74,0.057594292251923716,2.191289977155569,0.033533834586466166,0,0.05
1757393889.0948944,-0.217,-0.303,9.74,0.057594292251923716,2.191289977155569,0.033533834586466166,0,0.05
1757393889.119781,-0.2,-0.304,9.728,0.05845598771725613,2.1422337850230737,0.0343859649122807,0,0.05
1757393889.144921,-0.187,-0.31,9.728,0.059199028708248246,2.131320111217335,0.0350375939849624,0,0.05
1757393889.170209,-0.187,-0.31,9.728,0.059199028708248246,2.131320111217335,0.0350375939849624,0,0.05
1757393889.1956646,-0.177,-0.304,9.747,0.05985689183377299,2.066936064535064,0.03553884711779449,0,0.05
1757393889.22148,-0.177,-0.304,9.747,0.05985689183377299,2.066936064535064,0.03553884711779449,0,0.05
1757393889.2471235,-0.177,-0.304,9.747,0.05985689183377299,2.066936064535064,0.03553884711779449,0,0.05
1757393889.272474,-0.172,-0.323,9.75,0.06047154289415808,2.1494412687255293,0.035789473684210524,0,0.05
1757393889.29854,-0.172,-0.323,9.75,0.06047154289415808,2.1494412687255293,0.035789473684210524,0,0.05
1757393889.3238378,-0.165,-0.32,9.737,0.06103171306787972,2.1176005392507995,0.03614035087719298,0,0.05
1757393889.350389,-0.165,-0.32,9.737,0.06103171306787972,2.1176005392507995,0.03614035087719298,0,0.05
1757393889.37727,-0.16,-0.327,9.742,0.061553797608271094,2.14006979811906,0.036390977443609016,0,0.05
1757393889.4044476,-0.16,-0.327,9.742,0.061553797608271094,2.14006979811906,0.036390977443609016,0,0.05
1757393889.4312391,-0.07,-0.357,9.874,0.0616532237599949,2.110053375842447,0.04090225563909774,0,0.05
1757393889.4581265,-0.07,-0.357,9.874,0.0616532237599949,2.110053375842447,0.04090225563909774,0,0.05
1757393889.4848547,0.111,-0.269,9.751,0.06190252418116728,1.7093860223680262,0.04997493734335839,0,0.05
1757393889.512665,0.111,-0.269,9.751,0.06190252418116728,1.7093860223680262,0.04997493734335839,0,0.05
1757393889.539612,0.005,-0.363,9.576,0.0619030290050495,2.1710927805181335,0.05528822055137844,0,0.05
1757393889.5667207,0.005,-0.363,9.576,0.0619030290050495,2.1710927805181335,0.05528822055137844,0,0.05
1757393889.5937288,-0.101,-0.24,9.71,0.062108674917438066,1.5360925477478247,0.060601503759398496,0,0.05
1757393889.6206577,-0.101,-0.24,9.71,0.062108674917438066,1.5360925477478247,0.060601503759398496,0,0.05
1757393889.6482036,-0.2,-0.05,9.769,0.0629085645997427,1.2089338310733937,0.0655639097744361,0,0.05
1757393889.675972,-0.2,-0.05,9.769,0.0629085645997427,1.2089338310733937,0.0655639097744361,0,0.05
1757393889.7031379,-0.189,-0.253,9.691,0.06361438516562115,1.8664368119416161,0.06611528822055139,0,0.05
1757393889.7299888,-0.189,-0.253,9.691,0.06361438516562115,1.8664368119416161,0.06611528822055139,0,0.05
1757393889.7571242,-0.173,-0.23,9.787,0.06419978582518793,1.6843762794810093,0.06691729323308271,0,0.05
1757393889.7840738,-0.173,-0.23,9.787,0.06419978582518793,1.6843762794810093,0.06691729323308271,0,0.05
1757393889.8105657,0.51,0.163,9.605,0.06907866892174458,3.1905562289224534,0.10115288220551379,0,0.05
1757393889.8366637,0.51,0.163,9.605,0.06907866892174458,3.1905562289224534,0.10115288220551379,0,0.05
1757393889.8634303,-0.572,0.042,9.879,0.0747651155285672,3.3226610896277067,0.15538847117794485,0,0.05
1757393889.890582,-0.572,0.042,9.879,0.0747651155285672,3.3226610896277067,0.15538847117794485,0,0.05
1757393889.9173353,-0.17,0.042,9.997,0.07524674411560942,1.0035128361077077,0.17553884711779447,0,0.05
1757393889.9460757,-0.17,0.042,9.997,0.07524674411560942,1.0035128361077077,0.17553884711779447,0,0.05
1757393889.973121,-0.088,-0.199,9.951,0.07537527777726594,1.2526327594553757,0.17964912280701753,0,0.05
1757393890.0001082,-0.088,-0.199,9.951,0.07537527777726594,1.2526327594553757,0.17964912280701753,0,0.05
1757393890.0262318,0.21,-0.232,9.857,0.07610310440448537,1.8183463522777374,0.1945864661654135,0,0.05
1757393890.0532787,0.21,-0.232,9.857,0.07610310440448537,1.8183463522777374,0.1945864661654135,0,0.05
1757393890.0793066,0.569,-0.305,9.884,0.08124706148532389,3.7370593128828786,0.2125814536340852,0,0.05
1757393890.1062102,0.569,-0.305,9.884,0.08124706148532389,3.7370593128828786,0.2125814536340852,0,0.05
1757393890.1329498,0.538,-0.336,9.918,0.08558443199554461,3.6593509575052865,0.21413533834586465,0,0.05
1757393890.159787,0.538,-0.336,9.918,0.08558443199554461,3.6593509575052865,0.21413533834586465,0,0.05
1757393890.187222,0.135,-0.364,9.908,0.0858502038436718,2.243889177269516,0.23433583959899748,0,0.05
1757393890.213542,0.135,-0.364,9.908,0.0858502038436718,2.243889177269516,0.23433583959899748,0,0.05
1757393890.2401478,0.163,-0.258,9.697,0.08623618729976414,1.8025765358474175,0.23573934837092733,0,0.05
1757393890.267513,0.163,-0.258,9.697,0.08623618729976414,1.8025765358474175,0.23573934837092733,0,0.05
1757393890.2940087,0.087,-0.289,9.683,0.08634583082002281,1.7852846427203732,0.23954887218045112,0,0.05
1757393890.3192458,0.087,-0.289,9.683,0.08634583082002281,1.7852846427203732,0.23954887218045112,0,0.05
1757393890.3446684,-0.047,-0.318,9.828,0.08637780386187183,1.8733641448864762,0.24626566416040102,0,0.05
1757393890.3718898,-0.047,-0.318,9.828,0.08637780386187183,1.8733641448864762,0.24626566416040102,0,0.05
1757393890.3970082,0.115,-0.367,9.748,0.08656897538957013,2.2593658650417763,0.2543859649122807,0,0.05
1757393890.424044,0.115,-0.367,9.748,0.08656897538957013,2.2593658650417763,0.2543859649122807,0,0.05
1757393890.4502943,0.009,-0.396,9.733,0.08657014496926756,2.330470643545752,0.25969924812030076,0,0.05
1757393890.4767954,0.009,-0.396,9.733,0.08657014496926756,2.330470643545752,0.25969924812030076,0,0.05
1757393890.5036592,0.082,-0.496,9.931,0.08666717948566227,2.8979845909156983,0.26335839598997496,0,0.05
1757393890.5307024,0.082,-0.496,9.931,0.08666717948566227,2.8979845909156983,0.26335839598997496,0,0.05
1757393890.5575478,0.115,-0.433,9.758,0.08685771410761396,2.6287287561796324,0.26501253132832076,0,0.05
1757393890.584474,0.115,-0.433,9.758,0.08685771410761396,2.6287287561796324,0.26501253132832076,0,0.05
1757393890.6114798,0.028,-0.395,9.662,0.0868689961954206,2.346919018368896,0.2693734335839599,0,0.05
1757393890.637729,0.028,-0.395,9.662,0.0868689961954206,2.346919018368896,0.2693734335839599,0,0.05
1757393890.6649892,0.041,-0.241,9.706,0.08689318155068325,1.4427899130754829,0.27002506265664156,0,0.05
1757393890.6915467,0.041,-0.241,9.706,0.08689318155068325,1.4427899130754829,0.27002506265664156,0,0.05
1757393890.7185812,-0.055,-0.391,9.915,0.08693668673235712,2.28050958916046,0.27483709273182955,0,0.05
1757393890.7454414,-0.055,-0.391,9.915,0.08693668673235712,2.28050958916046,0.27483709273182955,0,0.05
1757393890.7722394,-0.06,-0.297,9.703,0.08698843313912488,1.788620158609733,0.27508771929824555,0,0.05
1757393890.7998161,-0.06,-0.297,9.703,0.08698843313912488,1.788620158609733,0.27508771929824555,0,0.05
1757393890.8270195,-0.006,-0.381,9.851,0.08698895044774364,2.215157826543229,0.2777944862155388,0,0.05
1757393890.8545089,-0.006,-0.381,9.851,0.08698895044774364,2.215157826543229,0.2777944862155388,0,0.05
1757393890.8824258,0.087,-0.462,9.753,0.0870976463516667,2.7596709131071915,0.2824561403508771,0,0.05
1757393890.9105651,0.087,-0.462,9.753,0.0870976463516667,2.7596709131071915,0.2824561403508771,0,0.05
1757393890.9367363,-0.059,-0.479,9.731,0.08714759032813242,2.839322376265099,0.2897744360902255,0,0.05
1757393890.9638872,-0.059,-0.479,9.731,0.08714759032813242,2.839322376265099,0.2897744360902255,0,0.05
1757393890.9899156,-0.017,-0.366,9.735,0.08715173549620225,2.1554144894425784,0.2918796992481203,0,0.05
1757393891.0171845,-0.017,-0.366,9.735,0.08715173549620225,2.1554144894425784,0.2918796992481203,0,0.05
1757393891.0442843,-0.11,-0.265,9.711,0.08732511093608757,1.6923813045040177,0.29654135338345866,0,0.05
1757393891.0716283,-0.11,-0.265,9.711,0.08732511093608757,1.6923813045040177,0.29654135338345866,0,0.05
1757393891.0987618,-0.134,-0.292,9.631,0.08758176180004602,1.9106104940031647,0.29774436090225564,0,0.05
1757393891.1257908,-0.134,-0.292,9.631,0.08758176180004602,1.9106104940031647,0.29774436090225564,0,0.05
1757393891.152763,-0.134,-0.292,9.631,0.08758176180004602,1.9106104940031647,0.29774436090225564,0,0.05
1757393891.179826,-0.161,-0.24,9.628,0.08795093802797102,1.7193092975617454,0.29909774436090225,0,0.05
1757393891.206465,-0.177,-0.253,9.733,0.08839507904855337,1.8170350261390968,0.29989974937343356,0,0.05
1757393891.23336,-0.177,-0.253,9.733,0.08839507904855337,1.8170350261390968,0.29989974937343356,0,0.05
1757393891.2601366,-0.205,-0.251,9.641,0.08898737269972633,1.9252426218657828,0.3013032581453634,0,0.05
1757393891.2878513,-0.205,-0.251,9.641,0.08898737269972633,1.9252426218657828,0.3013032581453634,0,0.05
1757393891.3154023,-0.172,-0.109,9.697,0.08940197145477273,1.2029906370868588,0.30295739348370926,0,0.05
1757393891.3425498,-0.172,-0.109,9.697,0.08940197145477273,1.2029906370868588,0.30295739348370926,0,0.05
1757393891.3698518,-0.049,-0.054,9.684,0.08943553544313355,0.43141274821199227,0.3091228070175438,0,0.05
1757393891.3973768,-0.049,-0.054,9.684,0.08943553544313355,0.43141274821199227,0.3091228070175438,0,0.05
1757393891.424115,-0.188,-0.223,9.643,0.08992816577691329,1.7325028139142085,0.31609022556390975,0,0.05
1757393891.4504802,-0.188,-0.223,9.643,0.08992816577691329,1.7325028139142085,0.31609022556390975,0,0.05
1757393891.4769537,-0.168,-0.29,9.68,0.09031962688142593,1.9829424563964912,0.31709273182957387,0,0.05
1757393891.504072,-0.168,-0.29,9.68,0.09031962688142593,1.9829424563964912,0.31709273182957387,0,0.05
1757393891.5317268,-0.155,-0.31,9.843,0.0906515168102553,2.0166589285093224,0.31774436090225555,0,0.05
1757393891.5586257,-0.155,-0.31,9.843,0.0906515168102553,2.0166589285093224,0.31774436090225555,0,0.05
1757393891.5854352,-0.134,-0.303,9.881,0.09089877611937357,1.920396923990748,0.318796992481203,0,0.05
1757393891.6123872,-0.134,-0.303,9.881,0.09089877611937357,1.920396923990748,0.318796992481203,0,0.05
1757393891.639688,-0.261,-0.258,9.984,0.09183076826423701,2.1051458384032014,0.3251629072681704,0,0.05
1757393891.6666622,-0.261,-0.258,9.984,0.09183076826423701,2.1051458384032014,0.3251629072681704,0,0.05
1757393891.692728,-0.332,-0.085,10.147,0.09331907629204224,1.93439241721314,0.3287218045112782,0,0.05
1757393891.7204204,-0.332,-0.085,10.147,0.09331907629204224,1.93439241721314,0.3287218045112782,0,0.05
1757393891.7471266,-0.089,-0.057,10.045,0.0934251170724447,0.602813893097526,0.3409022556390977,0,0.05
1757393891.7746923,-0.089,-0.057,10.045,0.0934251170724447,0.602813893097526,0.3409022556390977,0,0.05
1757393891.801521,-0.125,-0.122,9.91,0.09363394149559229,1.0097596174007282,0.34270676691729324,0,0.05
1757393891.827708,-0.125,-0.122,9.91,0.09363394149559229,1.0097596174007282,0.34270676691729324,0,0.05
1757393891.8536677,-0.391,-0.199,9.846,0.09565311024739341,2.551353748801442,0.3560401002506265,0,0.05
1757393891.8804781,-0.391,-0.199,9.846,0.09565311024739341,2.551353748801442,0.3560401002506265,0,0.05
1757393891.9073896,-0.113,-0.182,9.858,0.09581983093285022,1.2449121111105077,0.3699749373433584,0,0.05
1757393891.934186,-0.113,-0.182,9.858,0.09581983093285022,1.2449121111105077,0.3699749373433584,0,0.05
1757393891.9607615,-0.16,-0.204,9.772,0.09615321107482577,1.5197552017220592,0.3723308270676692,0,0.05
1757393891.9874568,-0.16,-0.204,9.772,0.09615321107482577,1.5197552017220592,0.3723308270676692,0,0.05
1757393892.0144498,-0.334,-0.195,9.738,0.09759267390537057,2.274379251959083,0.38105263157894737,0,0.05
1757393892.042038,-0.334,-0.195,9.738,0.09759267390537057,2.274379251959083,0.38105263157894737,0,0.05
1757393892.0688448,-0.126,-0.124,9.809,0.09779580768110666,1.0324993605505088,0.3914786967418546,0,0.05
1757393892.0950947,-0.126,-0.124,9.809,0.09779580768110666,1.0324993605505088,0.3914786967418546,0,0.05
1757393892.1219726,0.013,-0.138,9.493,0.09779796777029674,0.8365384008833631,0.39844611528822055,0,0.05
1757393892.149222,0.013,-0.138,9.493,0.09779796777029674,0.8365384008833631,0.39844611528822055,0,0.05
1757393892.175739,-0.362,-0.173,9.464,0.09945879800198673,2.427529110066279,0.41724310776942347,0,0.05
1757393892.2030687,-0.362,-0.173,9.464,0.09945879800198673,2.427529110066279,0.41724310776942347,0,0.05
1757393892.2308433,-0.194,-0.016,9.462,0.09993068847956567,1.178561350141876,0.42566416040100247,0,0.05
1757393892.2584052,-0.194,-0.016,9.462,0.09993068847956567,1.178561350141876,0.42566416040100247,0,0.05
1757393892.2855668,-0.148,-0.065,9.435,0.10020430379978695,0.9815210911450599,0.42796992481203006,0,0.05
1757393892.312468,-0.148,-0.065,9.435,0.10020430379978695,0.9815210911450599,0.42796992481203006,0,0.05
1757393892.3391972,-0.294,-0.165,9.3,0.10127681126496825,2.0761335444471767,0.4352882205513784,0,0.05
1757393892.3657303,-0.294,-0.165,9.3,0.10127681126496825,2.0761335444471767,0.4352882205513784,0,0.05
1757393892.3926013,-0.297,-0.255,9.453,0.1023597332939081,2.371278064980429,0.43543859649122796,0,0.05
1757393892.4197628,-0.297,-0.255,9.453,0.1023597332939081,2.371278064980429,0.43543859649122796,0,0.05
1757393892.4454648,-0.196,-0.238,9.539,0.10282779293556776,1.851260441407482,0.44050125313283206,0,0.05
1757393892.4723094,-0.196,-0.238,9.539,0.10282779293556776,1.851260441407482,0.44050125313283206,0,0.05
1757393892.4998002,-0.144,-0.421,9.497,0.10307955665407181,2.6824158189110214,0.44310776942355884,0,0.05
1757393892.5259428,-0.144,-0.421,9.497,0.10307955665407181,2.6824158189110214,0.44310776942355884,0,0.05
1757393892.5519507,-0.144,-0.421,9.497,0.10307955665407181,2.6824158189110214,0.44310776942355884,0,0.05
1757393892.5779958,-0.288,-0.524,9.67,0.10408052171275854,3.538292673531741,0.4503258145363408,0,0.05
1757393892.6052408,-0.161,-0.447,9.658,0.10439136698022494,2.816307738332019,0.45669172932330815,0,0.05
1757393892.6314166,-0.161,-0.447,9.658,0.10439136698022494,2.816307738332019,0.45669172932330815,0,0.05
1757393892.6592207,-0.089,-0.456,9.622,0.10448617133381814,2.764414546630174,0.46030075187969927,0,0.05
1757393892.6866314,-0.089,-0.456,9.622,0.10448617133381814,2.764414546630174,0.46030075187969927,0,0.05
1757393892.7135446,-0.116,-0.258,9.668,0.10464702575802143,1.6759512307890159,0.4616541353383458,0,0.05
1757393892.739825,-0.116,-0.258,9.668,0.10464702575802143,1.6759512307890159,0.4616541353383458,0,0.05
1757393892.7663443,-0.102,-0.279,9.864,0.10477122696618571,1.724977280754508,0.4623558897243107,0,0.05
1757393892.793083,-0.102,-0.279,9.864,0.10477122696618571,1.724977280754508,0.4623558897243107,0,0.05
1757393892.81979,-0.005,-0.346,9.742,0.10477152523467434,2.034292516826832,0.46721804511278187,0,0.05
1757393892.847015,-0.005,-0.346,9.742,0.10477152523467434,2.034292516826832,0.46721804511278187,0,0.05
1757393892.8739307,-0.199,-0.446,9.793,0.10524293325444707,2.8550051393558324,0.4769423558897242,0,0.05
1757393892.9016392,-0.199,-0.446,9.793,0.10524293325444707,2.8550051393558324,0.4769423558897242,0,0.05
1757393892.928596,-0.199,-0.458,9.85,0.10571223912111595,2.902234451013705,0.4769423558897242,0,0.05
1757393892.9548059,-0.199,-0.458,9.85,0.10571223912111595,2.902234451013705,0.4769423558897242,0,0.05
1757393892.9817617,-0.052,-0.491,9.799,0.10574420787920254,2.8845443917165436,0.48431077694235575,0,0.05
1757393893.0087922,-0.052,-0.491,9.799,0.10574420787920254,2.8845443917165436,0.48431077694235575,0,0.05
1757393893.0357256,-0.109,-0.536,9.836,0.10588455978092368,3.1828864580389253,0.4871679197994986,0,0.05
1757393893.062536,-0.109,-0.536,9.836,0.10588455978092368,3.1828864580389253,0.4871679197994986,0,0.05
1757393893.0895724,-0.04,-0.538,9.678,0.10590344659169502,3.1905614412490357,0.4906265664160401,0,0.05
1757393893.1164815,-0.04,-0.538,9.678,0.10590344659169502,3.1905614412490357,0.4906265664160401,0,0.05
1757393893.1434464,-0.127,-0.601,9.888,0.1060936496685829,3.5548156950301673,0.49498746867167914,0,0.05
1757393893.1704187,-0.127,-0.601,9.888,0.1060936496685829,3.5548156950301673,0.49498746867167914,0,0.05
1757393893.1972568,-0.092,-0.558,10.01,0.10619332606148091,3.23359303034687,0.4967418546365914,0,0.05
1757393893.2242033,-0.092,-0.558,10.01,0.10619332606148091,3.23359303034687,0.4967418546365914,0,0.05
1757393893.2510505,-0.171,-0.519,9.979,0.10653696541576543,3.134356829312515,0.5007017543859649,0,0.05
1757393893.2784312,-0.171,-0.519,9.979,0.10653696541576543,3.134356829312515,0.5007017543859649,0,0.05
1757393893.305393,-0.263,-0.478,9.889,0.10734545868363506,3.157805255707921,0.5053132832080199,0,0.05
1757393893.3330338,-0.263,-0.478,9.889,0.10734545868363506,3.157805255707921,0.5053132832080199,0,0.05
1757393893.3598776,-0.264,-0.394,9.98,0.10815399900142389,2.720765451188641,0.5053634085213032,0,0.05
1757393893.3869843,-0.264,-0.394,9.98,0.10815399900142389,2.720765451188641,0.5053634085213032,0,0.05
1757393893.4136941,-0.02,-0.45,9.877,0.1081586219401856,2.61118585275812,0.5175939849624059,0,0.05
1757393893.4406009,-0.02,-0.45,9.877,0.1081586219401856,2.61118585275812,0.5175939849624059,0,0.05
1757393893.4666927,-0.212,-0.528,9.792,0.10867680295260806,3.325472094644106,0.527218045112782,0,0.05
1757393893.4937909,-0.212,-0.528,9.792,0.10867680295260806,3.325472094644106,0.527218045112782,0,0.05
1757393893.5206494,-0.169,-0.42,9.79,0.10900481640734963,2.647684698787724,0.5293734335839599,0,0.05
1757393893.5480416,-0.169,-0.42,9.79,0.10900481640734963,2.647684698787724,0.5293734335839599,0,0.05
1757393893.574997,-0.068,-0.394,9.741,0.10905782869652228,2.350418951813868,0.534436090225564,0,0.05
1757393893.602022,-0.068,-0.394,9.741,0.10905782869652228,2.350418951813868,0.534436090225564,0,0.05
1757393893.6289902,-0.131,-0.468,9.739,0.10925434773957511,2.856763751392278,0.5375939849624061,0,0.05
1757393893.6562014,-0.131,-0.468,9.739,0.10925434773957511,2.856763751392278,0.5375939849624061,0,0.05
1757393893.6830516,-0.028,-0.439,9.692,0.10926331726613467,2.5987073465439887,0.5427568922305764,0,0.05
1757393893.7098994,-0.028,-0.439,9.692,0.10926331726613467,2.5987073465439887,0.5427568922305764,0,0.05
1757393893.7369604,0.035,-0.37,9.577,0.10927733067750146,2.222344704901187,0.5459147869674186,0,0.05
1757393893.7643778,0.035,-0.37,9.577,0.10927733067750146,2.222344704901187,0.5459147869674186,0,0.05
1757393893.791287,-0.018,-0.318,9.618,0.10928103678131901,1.8967099449709137,0.5485714285714286,0,0.05
1757393893.8181953,-0.018,-0.318,9.618,0.10928103678131901,1.8967099449709137,0.5485714285714286,0,0.05
1757393893.8451843,-0.019,-0.196,9.666,0.109285165965011,1.1670860387074917,0.5486215538847118,0,0.05
1757393893.872169,-0.019,-0.196,9.666,0.109285165965011,1.1670860387074917,0.5486215538847118,0,0.05
1757393893.8989034,0.011,-0.246,9.695,0.10928654995011966,1.4549574992725736,0.5501253132832079,0,0.05
1757393893.9257526,0.011,-0.246,9.695,0.10928654995011966,1.4549574992725736,0.5501253132832079,0,0.05
1757393893.95299,-0.107,-0.203,9.718,0.10941742320124341,1.3526866960249513,0.5560401002506266,0,0.05
1757393893.9798965,-0.107,-0.203,9.718,0.10941742320124341,1.3526866960249513,0.5560401002506266,0,0.05
1757393894.0069628,-0.015,-0.259,9.798,0.10941999360263187,1.516738198050982,0.5606516290726816,0,0.05
1757393894.0336893,-0.015,-0.259,9.798,0.10941999360263187,1.516738198050982,0.5606516290726816,0,0.05
1757393894.0596132,-0.078,-0.312,9.701,0.10948947437996037,1.8987429207544078,0.5638095238095238,0,0.05
1757393894.0861146,-0.078,-0.312,9.701,0.10948947437996037,1.8987429207544078,0.5638095238095238,0,0.05
1757393894.113183,-0.121,-0.249,9.788,0.10965649775549098,1.6201167704601025,0.5659649122807018,0,0.05
1757393894.1407475,-0.121,-0.249,9.788,0.10965649775549098,1.6201167704601025,0.5659649122807018,0,0.05
1757393894.168131,-0.201,-0.26,9.836,0.1101160751207561,1.9136234055112715,0.5699749373433585,0,0.05
1757393894.194767,-0.201,-0.26,9.836,0.1101160751207561,1.9136234055112715,0.5699749373433585,0,0.05
1757393894.2224832,0.064,-0.306,9.746,0.11016256169860976,1.8372393250030712,0.5832581453634085,0,0.05
1757393894.2501378,0.064,-0.306,9.746,0.11016256169860976,1.8372393250030712,0.5832581453634085,0,0.05
1757393894.2777948,-0.007,-0.265,9.831,0.11016311769371816,1.5446036147543836,0.5868170426065162,0,0.05
1757393894.3044457,-0.007,-0.265,9.831,0.11016311769371816,1.5446036147543836,0.5868170426065162,0,0.05
1757393894.331582,-0.016,-0.003,9.863,0.1101660224388627,0.09456624441544713,0.5872681704260652,0,0.05
1757393894.3592904,-0.016,-0.003,9.863,0.1101660224388627,0.09456624441544713,0.5872681704260652,0,0.05
1757393894.386357,0.076,-0.086,9.865,0.11023154040473171,0.6665485854547276,0.5918796992481203,0,0.05
1757393894.4128761,0.076,-0.086,9.865,0.11023154040473171,0.6665485854547276,0.5918796992481203,0,0.05
1757393894.4394183,-0.016,-0.171,9.786,0.11023444334689589,1.0054529710154767,0.5964912280701754,0,0.05
1757393894.4665158,-0.016,-0.171,9.786,0.11023444334689589,1.0054529710154767,0.5964912280701754,0,0.05
1757393894.4933522,0.035,-0.083,9.807,0.11024833332073551,0.5262495605058906,0.599047619047619,0,0.05
1757393894.5187438,0.035,-0.083,9.807,0.11024833332073551,0.5262495605058906,0.599047619047619,0,0.05
1757393894.5442874,0.063,-0.148,9.846,0.11029332482067988,0.9359390418852204,0.600451127819549,0,0.05
1757393894.571893,0.063,-0.148,9.846,0.11029332482067988,0.9359390418852204,0.600451127819549,0,0.05
1757393894.5989428,0.03,-0.159,9.83,0.11030352442238643,0.9430245769471844,0.6021052631578948,0,0.05
1757393894.626382,0.03,-0.159,9.83,0.11030352442238643,0.9430245769471844,0.6021052631578948,0,0.05
1757393894.6538234,-0.042,-0.169,9.823,0.11032351290636098,1.0156250477534694,0.6057142857142858,0,0.05
1757393894.6801825,-0.042,-0.169,9.823,0.11032351290636098,1.0156250477534694,0.6057142857142858,0,0.05
1757393894.7075205,0.019,-0.163,9.749,0.11032760307375485,0.9643611924640305,0.6087719298245615,0,0.05
1757393894.7350066,0.019,-0.163,9.749,0.11032760307375485,0.9643611924640305,0.6087719298245615,0,0.05
1757393894.762121,0.273,-0.224,9.509,0.1111688018285706,2.1268172982333766,0.6215037593984963,0,0.05
1757393894.7894855,0.273,-0.224,9.509,0.1111688018285706,2.1268172982333766,0.6215037593984963,0,0.05
1757393894.816367,0.112,-0.02,9.531,0.11130975923071615,0.6839081645229762,0.6295739348370929,0,0.05
1757393894.8432922,0.112,-0.02,9.531,0.11130975923071615,0.6839081645229762,0.6295739348370929,0,0.05
1757393894.8703363,0.226,-0.126,9.639,0.11188186850423977,1.5376877101290558,0.6352882205513785,0,0.05
1757393894.8975897,0.226,-0.126,9.639,0.11188186850423977,1.5376877101290558,0.6352882205513785,0,0.05
1757393894.9252648,0.13,-0.256,9.665,0.1120705246708518,1.7015766748582626,0.6401002506265664,0,0.05
1757393894.9528234,0.13,-0.256,9.665,0.1120705246708518,1.7015766748582626,0.6401002506265664,0,0.05
1757393894.9798155,0.13,-0.256,9.665,0.1120705246708518,1.7015766748582626,0.6401002506265664,0,0.05
1757393895.006741,-0.001,-0.19,9.673,0.11207053582454221,1.125291958309249,0.6466666666666666,0,0.05
1757393895.0340018,0.154,-0.402,9.688,0.11233474529280778,2.544275032934399,0.6544360902255639,0,0.05
1757393895.0608954,0.154,-0.402,9.688,0.11233474529280778,2.544275032934399,0.6544360902255639,0,0.05
1757393895.087794,0.112,-0.389,9.613,0.1124742414955531,2.411294663730489,0.6565413533834584,0,0.05
1757393895.11513,0.112,-0.389,9.613,0.1124742414955531,2.411294663730489,0.6565413533834584,0,0.05
1757393895.142376,0.029,-0.25,9.642,0.11248358769171617,1.495200250312916,0.6607017543859648,0,0.05
1757393895.1695962,0.029,-0.25,9.642,0.11248358769171617,1.495200250312916,0.6607017543859648,0,0.05
1757393895.1965592,0.029,-0.25,9.642,0.11248358769171617,1.495200250312916,0.6607017543859648,0,0.05
1757393895.2237263,0.095,-0.1,9.685,0.11258383542942565,0.8159357846152957,0.6640100250626565,0,0.05
1757393895.250364,0.205,-0.239,9.614,0.11304946926014293,1.8758620625231295,0.6695238095238095,0,0.05
1757393895.2779915,0.205,-0.239,9.614,0.11304946926014293,1.8758620625231295,0.6695238095238095,0,0.05
1757393895.3048534,-0.153,-0.297,9.635,0.11330800942563592,1.9859305847963797,0.6874686716791979,0,0.05
1757393895.3310273,-0.153,-0.297,9.635,0.11330800942563592,1.9859305847963797,0.6874686716791979,0,0.05
1757393895.3578308,-0.072,-0.314,9.807,0.11336518424983925,1.8814260585158447,0.6915288220551378,0,0.05
1757393895.3849502,-0.072,-0.314,9.807,0.11336518424983925,1.8814260585158447,0.6915288220551378,0,0.05
1757393895.4120502,0.118,-0.292,9.721,0.11351861080897704,1.8556214118648382,0.7010526315789473,0,0.05
1757393895.4396942,0.118,-0.292,9.721,0.11351861080897704,1.8556214118648382,0.7010526315789473,0,0.05
1757393895.4668086,-0.187,-0.453,9.747,0.11390301795826133,2.878410307621636,0.7163408521303258,0,0.05
1757393895.4938977,-0.187,-0.453,9.747,0.11390301795826133,2.878410307621636,0.7163408521303258,0,0.05
1757393895.5208516,-0.074,-0.384,9.743,0.11396309709726214,2.2985081663912803,0.7220050125313281,0,0.05
1757393895.5472558,-0.074,-0.384,9.743,0.11396309709726214,2.2985081663912803,0.7220050125313281,0,0.05
1757393895.5736294,0.029,-0.329,9.818,0.11397232120124605,1.926692513051772,0.7271679197994987,0,0.05
1757393895.5999424,0.029,-0.329,9.818,0.11397232120124605,1.926692513051772,0.7271679197994987,0,0.05
1757393895.626949,-0.079,-0.368,9.757,0.11404074929603014,2.2091353527360265,0.7325814536340853,0,0.05
1757393895.6545017,-0.079,-0.368,9.757,0.11404074929603014,2.2091353527360265,0.7325814536340853,0,0.05
1757393895.6816638,-0.183,-0.312,9.883,0.11440723316294299,2.09603576254047,0.7377944862155388,0,0.05
1757393895.7089493,-0.183,-0.312,9.883,0.11440723316294299,2.09603576254047,0.7377944862155388,0,0.05
1757393895.7361734,-0.021,-0.301,9.874,0.11441205137571828,1.7503112214977432,0.7459147869674185,0,0.05
1757393895.7634199,-0.021,-0.301,9.874,0.11441205137571828,1.7503112214977432,0.7459147869674185,0,0.05
1757393895.7903314,-0.059,-0.291,9.789,0.11445007645257385,1.7373682676798345,0.7478195488721805,0,0.05
1757393895.816376,-0.059,-0.291,9.789,0.11445007645257385,1.7373682676798345,0.7478195488721805,0,0.05
1757393895.8424463,-0.059,-0.291,9.789,0.11445007645257385,1.7373682676798345,0.7478195488721805,0,0.05
1757393895.869073,-0.059,-0.291,9.789,0.11445007645257385,1.7373682676798345,0.7478195488721805,0,0.05
1757393895.8964689,-0.059,-0.291,9.789,0.11445007645257385,1.7373682676798345,0.7478195488721805,0,0.05
1757393895.922817,-0.1,-0.065,9.808,0.11455924231593015,0.6967017592987896,0.7498746867167921,0,0.05
1757393895.949343,-0.175,0.063,9.903,0.11489291753628682,1.0759824453796007,0.7536340852130327,0,0.05
1757393895.9762897,-0.093,-0.045,9.809,0.11498697752354395,0.6034557614709181,0.7577443609022557,0,0.05
1757393896.0034544,-0.176,-0.178,9.751,0.11532321969143941,1.4705279958161606,0.7619047619047619,0,0.05
1757393896.0307047,-0.176,-0.178,9.751,0.11532321969143941,1.4705279958161606,0.7619047619047619,0,0.05
1757393896.057313,-0.17,-0.202,9.737,0.1156360454183729,1.5531732967841674,0.7622055137844612,0,0.05
1757393896.084388,-0.17,-0.202,9.737,0.1156360454183729,1.5531732967841674,0.7622055137844612,0,0.05
1757393896.1114933,-0.001,-0.231,9.641,0.11563605622815058,1.3725668633810286,0.7706766917293233,0,0.05
1757393896.1394253,-0.001,-0.231,9.641,0.11563605622815058,1.3725668633810286,0.7706766917293233,0,0.05
1757393896.1663115,-0.192,-0.395,9.68,0.11603386359162571,2.5977853837743115,0.7802506265664159,0,0.05
1757393896.1931996,-0.192,-0.395,9.68,0.11603386359162571,2.5977853837743115,0.7802506265664159,0,0.05
1757393896.2202096,-0.281,-0.4,9.568,0.11688139287328843,2.9247417955715513,0.7847117794486216,0,0.05
1757393896.246539,-0.281,-0.4,9.568,0.11688139287328843,2.9247417955715513,0.7847117794486216,0,0.05
1757393896.2733903,-0.281,-0.4,9.568,0.11688139287328843,2.9247417955715513,0.7847117794486216,0,0.05
1757393896.299485,-0.19,-0.468,9.707,0.11726683248045884,2.978665651072451,0.7892731829573933,0,0.05
1757393896.3270109,-0.289,-0.434,9.537,0.11815376633861487,3.1294276744168537,0.7942355889724311,0,0.05
1757393896.3544147,-0.289,-0.434,9.537,0.11815376633861487,3.1294276744168537,0.7942355889724311,0,0.05
1757393896.3814535,-0.274,-0.391,9.44,0.1189453761186201,2.89539085789241,0.7949874686716791,0,0.05
1757393896.4084153,-0.274,-0.391,9.44,0.1189453761186201,2.89539085789241,0.7949874686716791,0,0.05
1757393896.4355092,-0.238,-0.46,9.721,0.11953916722145926,3.0497642485061025,0.7967919799498746,0,0.05
1757393896.4622571,-0.238,-0.46,9.721,0.11953916722145926,3.0497642485061025,0.7967919799498746,0,0.05
1757393896.4889755,-0.073,-0.45,9.668,0.11959487865289216,2.699712348023762,0.805062656641604,0,0.05
1757393896.5164263,-0.073,-0.45,9.668,0.11959487865289216,2.699712348023762,0.805062656641604,0,0.05
1757393896.5435584,-0.333,-0.44,9.7,0.12074832296972078,3.255883655620949,0.8180952380952381,0,0.05
1757393896.5710897,-0.333,-0.44,9.7,0.12074832296972078,3.255883655620949,0.8180952380952381,0,0.05
1757393896.5997028,-0.265,-0.361,9.881,0.1214731245996414,2.594965836015793,0.8215037593984962,0,0.05
1757393896.626776,-0.265,-0.361,9.881,0.1214731245996414,2.594965836015793,0.8215037593984962,0,0.05
1757393896.6544516,-0.182,-0.336,9.916,0.12181350499841961,2.2068735138924507,0.8256641604010027,0,0.05
1757393896.6814241,-0.182,-0.336,9.916,0.12181350499841961,2.2068735138924507,0.8256641604010027,0,0.05
1757393896.7086055,-0.523,-0.206,9.921,0.12458873343926408,3.242818164770738,0.8427568922305764,0,0.05
1757393896.7356873,-0.523,-0.206,9.921,0.12458873343926408,3.242818164770738,0.8427568922305764,0,0.05
1757393896.7629592,-0.523,-0.206,9.921,0.12458873343926408,3.242818164770738,0.8427568922305764,0,0.05
1757393896.7898653,-0.247,-0.308,9.879,0.12519934105257902,2.2885691701884463,0.8565914786967418,0,0.05
1757393896.8165054,-0.24,-0.306,9.914,0.12577310920860627,2.24635663159658,0.8569423558897242,0,0.05
1757393896.8443103,-0.24,-0.306,9.914,0.12577310920860627,2.24635663159658,0.8569423558897242,0,0.05
1757393896.872192,-0.209,-0.26,9.759,0.12620648755115563,1.9577568819078548,0.8584962406015036,0,0.05
1757393896.8991346,-0.209,-0.26,9.759,0.12620648755115563,1.9577568819078548,0.8584962406015036,0,0.05
1757393896.9253285,-0.236,-0.231,9.777,0.1267569228878644,1.9345444456878245,0.8598496240601503,0,0.05
1757393896.952431,-0.236,-0.231,9.777,0.1267569228878644,1.9345444456878245,0.8598496240601503,0,0.05
1757393896.9796782,0.016,-0.176,9.867,0.12675944737967265,1.0261030266089262,0.8724812030075186,0,0.05
1757393897.0070746,0.016,-0.176,9.867,0.12675944737967265,1.0261030266089262,0.8724812030075186,0,0.05
1757393897.0340712,0.016,-0.176,9.867,0.12675944737967265,1.0261030266089262,0.8724812030075186,0,0.05
1757393897.0606215,0.016,-0.176,9.867,0.12675944737967265,1.0261030266089262,0.8724812030075186,0,0.05
1757393897.0877419,0.016,-0.176,9.867,0.12675944737967265,1.0261030266089262,0.8724812030075186,0,0.05
1757393897.1151028,0.016,-0.176,9.867,0.12675944737967265,1.0261030266089262,0.8724812030075186,0,0.05
1757393897.1428766,-0.414,-0.116,9.889,0.1284384969547682,2.4894815642492656,0.8940350877192982,0,0.25
1757393897.1713192,-0.274,-0.061,9.761,0.12916709139715116,1.6472650317067536,0.9010526315789472,0,0.25
1757393897.1992073,-0.135,-0.086,9.702,0.12934334153716612,0.9451919220397889,0.9080200501253132,0,0.25
1757393897.2267704,-0.197,-0.232,9.649,0.1297178572903515,1.8066716053150185,0.9111278195488722,0,0.25
1757393897.253785,-0.211,-0.199,9.622,0.1301461678267939,1.7265556903757575,0.9118295739348371,0,0.25
1757393897.2806478,-0.211,-0.199,9.622,0.1301461678267939,1.7265556903757575,0.9118295739348371,0,0.25
1757393897.3072,-0.17,-0.165,9.759,0.1304234449782707,1.3906255404883343,0.9138847117794486,0,0.25
1757393897.3344436,-0.17,-0.165,9.759,0.1304234449782707,1.3906255404883343,0.9138847117794486,0,0.25
1757393897.362271,-0.19,-0.267,9.831,0.13076897567848422,1.9091676220458045,0.9148872180451129,0,0.25
1757393897.3895106,-0.19,-0.267,9.831,0.13076897567848422,1.9091676220458045,0.9148872180451129,0,0.25
1757393897.4161751,-0.19,-0.267,9.831,0.13076897567848422,1.9091676220458045,0.9148872180451129,0,0.25
1757393897.4435315,-0.183,-0.349,9.87,0.13108870088607943,2.286370551412452,0.9152380952380953,0,0.25
1757393897.4709954,-0.183,-0.349,9.87,0.13108870088607943,2.286370551412452,0.9152380952380953,0,0.25
1757393897.4973722,-0.244,-0.282,9.889,0.1316551840984623,2.159561817262746,0.9182957393483707,0,0.25
1757393897.524559,-0.247,-0.221,9.783,0.13223316528012177,1.9403699265551164,0.9184461152882205,0,0.25
1757393897.5514026,-0.247,-0.221,9.783,0.13223316528012177,1.9403699265551164,0.9184461152882205,0,0.25
1757393897.577715,-0.208,-0.266,9.732,0.13264150934002522,1.9871784298687731,0.9204010025062656,0,0.25
1757393897.605546,-0.208,-0.266,9.732,0.13264150934002522,1.9871784298687731,0.9204010025062656,0,0.25
1757393897.6325943,-0.199,-0.238,9.493,0.13301418157474787,1.8717752595949284,0.9208521303258145,0,0.25
1757393897.6598032,-0.199,-0.238,9.493,0.13301418157474787,1.8717752595949284,0.9208521303258145,0,0.25
1757393897.6860628,-0.199,-0.238,9.493,0.13301418157474787,1.8717752595949284,0.9208521303258145,0,0.25
1757393897.7125568,-0.327,-0.329,9.728,0.13401527897967455,2.7299902839769845,0.9272681704260654,0,0.25
1757393897.7398245,-0.319,-0.205,9.65,0.1349610962462887,2.2502472784997187,0.9276691729323308,0,0.25
1757393897.7667384,-0.319,-0.205,9.65,0.1349610962462887,2.2502472784997187,0.9276691729323308,0,0.25
1757393897.7938209,-0.24,-0.187,9.659,0.13549353305600972,1.8041792257485807,0.9316290726817044,0,0.25
1757393897.8210478,-0.24,-0.187,9.659,0.13549353305600972,1.8041792257485807,0.9316290726817044,0,0.25
1757393897.8487499,-0.051,-0.139,9.664,0.13551752654177246,0.8777519861049878,0.9411027568922306,0,0.25
1757393897.8760242,-0.051,-0.139,9.664,0.13551752654177246,0.8777519861049878,0.9411027568922306,0,0.25
1757393897.9028826,0.174,-0.262,9.535,0.13579650216408376,1.889237484859662,0.9523809523809523,0,0.25
1757393897.929636,0.174,-0.262,9.535,0.13579650216408376,1.889237484859662,0.9523809523809523,0,0.25
1757393897.956081,-0.083,-0.349,9.606,0.13585990026494205,2.1387039857069223,0.9652631578947368,0,0.25
1757393897.9830496,-0.083,-0.349,9.606,0.13585990026494205,2.1387039857069223,0.9652631578947368,0,0.25
1757393898.0096533,0.16,-0.41,9.679,0.136095233200873,2.6035019274454445,0.9774436090225563,0,0.25
1757393898.0372381,0.16,-0.41,9.679,0.136095233200873,2.6035019274454445,0.9774436090225563,0,0.25
1757393898.0648088,0.161,-0.489,9.551,0.1363331030967901,3.0853970186702115,0.9774937343358394,0,0.25
1757393898.0918398,0.161,-0.489,9.551,0.1363331030967901,3.0853970186702115,0.9774937343358394,0,0.25
1757393898.1188736,0.091,-0.492,9.656,0.1364090081336273,2.966242096838921,0.9810025062656641,0,0.25
1757393898.1458695,0.091,-0.492,9.656,0.1364090081336273,2.966242096838921,0.9810025062656641,0,0.25
1757393898.1729188,0.24,-0.503,9.818,0.13693581525663767,3.2489332933560604,0.9884711779448621,0,0.25
1757393898.2001944,0.24,-0.503,9.818,0.13693581525663767,3.2489332933560604,0.9884711779448621,0,0.25
1757393898.227231,0.104,-0.557,9.817,0.1370345120763379,3.3033815550902412,0.9952882205513783,0,0.25
1757393898.2542996,0.104,-0.557,9.817,0.1370345120763379,3.3033815550902412,0.9952882205513783,0,0.25
1757393898.2811224,0.163,-0.517,9.794,0.13727665497090175,3.168023490123333,0.9982456140350876,0,0.25
1757393898.3081708,0.163,-0.517,9.794,0.13727665497090175,3.168023490123333,0.9982456140350876,0,0.25
1757393898.3350248,0.125,-0.444,9.744,0.13741885787620273,2.710237083782289,1.0001503759398496,0,0.25
1757393898.3619769,0.125,-0.444,9.744,0.13741885787620273,2.710237083782289,1.0001503759398496,0,0.25
1757393898.3882546,0.215,-0.354,9.766,0.1378386919554883,2.4284530410398344,1.0046616541353381,0,0.25
1757393898.414696,0.215,-0.354,9.766,0.1378386919554883,2.4284530410398344,1.0046616541353381,0,0.25
1757393898.4414551,-0.08,-0.335,9.902,0.1378967185976519,1.9921075049978452,1.0194486215538847,0,0.25
1757393898.4676406,-0.08,-0.335,9.902,0.1378967185976519,1.9921075049978452,1.0194486215538847,0,0.25
1757393898.4946487,-0.025,-0.263,9.87,0.13790238395328777,1.5332424691154265,1.022205513784461,0,0.25
1757393898.5215893,-0.025,-0.263,9.87,0.13790238395328777,1.5332424691154265,1.022205513784461,0,0.25
1757393898.5488393,0.028,-0.323,9.953,0.1379094902463206,1.8657064262616803,1.0248621553884711,0,0.25
1757393898.5752254,0.028,-0.323,9.953,0.1379094902463206,1.8657064262616803,1.0248621553884711,0,0.25
1757393898.6020472,-0.233,-0.386,9.983,0.1384006864144828,2.585944505801658,1.0379448621553884,0,0.25
1757393898.6295733,-0.233,-0.386,9.983,0.1384006864144828,2.585944505801658,1.0379448621553884,0,0.25
1757393898.656259,-0.152,-0.386,9.996,0.13860919882893777,2.3764991665454214,1.0420050125313283,0,0.25
1757393898.6828966,-0.152,-0.386,9.996,0.13860919882893777,2.3764991665454214,1.0420050125313283,0,0.25
1757393898.7098238,0.049,-0.29,9.932,0.1386308497413184,1.6961708304309735,1.0520802005012533,0,0.25
1757393898.736925,0.049,-0.29,9.932,0.1386308497413184,1.6961708304309735,1.0520802005012533,0,0.25
1757393898.7626984,0.049,-0.29,9.932,0.1386308497413184,1.6961708304309735,1.0520802005012533,0,0.25
1757393898.7894099,0.011,-0.515,9.908,0.13863194076402452,2.9761311828560513,1.053984962406015,0,0.25
1757393898.8158474,-0.2,-0.362,9.942,0.13899214006554472,2.382058782145796,1.0645614035087718,0,0.25
1757393898.8431938,-0.2,-0.362,9.942,0.13899214006554472,2.382058782145796,1.0645614035087718,0,0.25
1757393898.8701243,0.108,-0.34,9.909,0.13909699852980295,2.0618547189869267,1.08,0,0.25
1757393898.8976195,0.108,-0.34,9.909,0.13909699852980295,2.0618547189869267,1.08,0,0.25
1757393898.9249303,0.034,-0.443,9.826,0.1391073865759831,2.5889831575681357,1.0837092731829574,0,0.25
1757393898.952233,0.034,-0.443,9.826,0.1391073865759831,2.5889831575681357,1.0837092731829574,0,0.25
1757393898.979979,0.035,-0.458,10.056,0.13911839382339058,2.6153240160623,1.0837593984962404,0,0.25
1757393899.0071754,0.035,-0.458,10.056,0.13911839382339058,2.6153240160623,1.0837593984962404,0,0.25
1757393899.0342057,0.09,-0.188,10.026,0.13919115453217565,1.1909602882996846,1.0865162907268169,0,0.25
1757393899.0610843,0.09,-0.188,10.026,0.13919115453217565,1.1909602882996846,1.0865162907268169,0,0.25
1757393899.0876591,0.092,-0.322,9.811,0.13926714436650162,1.9549539962367295,1.0866165413533833,0,0.25
1757393899.1149673,0.092,-0.322,9.811,0.13926714436650162,1.9549539962367295,1.0866165413533833,0,0.25
1757393899.1419663,-0.012,-0.421,9.696,0.13926843684051315,2.4872277179254816,1.0918295739348371,0,0.25
1757393899.1689181,-0.012,-0.421,9.696,0.13926843684051315,2.4872277179254816,1.0918295739348371,0,0.25
1757393899.196011,0.122,-0.367,9.62,0.13940196375948224,2.3021857059067625,1.098546365914787,0,0.25
1757393899.2234693,0.122,-0.367,9.62,0.13940196375948224,2.3021857059067625,1.098546365914787,0,0.25
1757393899.2506065,0.07,-0.4,9.63,0.13944589452543948,2.414623693561318,1.1011528822055137,0,0.25
1757393899.2777548,0.07,-0.4,9.63,0.13944589452543948,2.414623693561318,1.1011528822055137,0,0.25
1757393899.3034575,0.138,-0.589,9.364,0.1396165015318748,3.6963909211182493,1.1045614035087719,0,0.25
1757393899.329914,0.138,-0.589,9.364,0.1396165015318748,3.6963909211182493,1.1045614035087719,0,0.25
1757393899.3572302,-0.119,-0.507,9.713,0.1397432288162829,3.0690675615145135,1.1174436090225564,0,0.25
1757393899.3844562,-0.119,-0.507,9.713,0.1397432288162829,3.0690675615145135,1.1174436090225564,0,0.25
1757393899.4115264,0.05,-0.476,9.676,0.13976558947037,2.8318010686636526,1.1259147869674184,0,0.25
1757393899.439149,0.05,-0.476,9.676,0.13976558947037,2.8318010686636526,1.1259147869674184,0,0.25
1757393899.4662457,-0.054,-0.363,9.606,0.13979166641828117,2.187905198097068,1.131127819548872,0,0.25
1757393899.4930212,-0.054,-0.363,9.606,0.13979166641828117,2.187905198097068,1.131127819548872,0,0.25
1757393899.520357,-0.15,-0.452,9.475,0.13999271409612715,2.877421224866981,1.1359398496240598,0,0.25
1757393899.5474,-0.15,-0.452,9.475,0.13999271409612715,2.877421224866981,1.1359398496240598,0,0.25
1757393899.574008,-0.108,-0.328,9.565,0.14009682366135215,2.067638586900798,1.1380451127819549,0,0.25
1757393899.6011856,-0.108,-0.328,9.565,0.14009682366135215,2.067638586900798,1.1380451127819549,0,0.25
1757393899.6283014,0.041,-0.394,9.739,0.14011182141418332,2.3291847449511582,1.1455137844611527,0,0.25
1757393899.655647,0.041,-0.394,9.739,0.14011182141418332,2.3291847449511582,1.1455137844611527,0,0.25
1757393899.6827714,-0.131,-0.348,9.635,0.14026483878720283,2.210098195380984,1.1541353383458646,0,0.25
1757393899.709944,-0.131,-0.348,9.635,0.14026483878720283,2.210098195380984,1.1541353383458646,0,0.25
1757393899.7371488,-0.106,-0.368,9.732,0.14036493507995507,2.2534729865577954,1.1553884711779447,0,0.25
1757393899.7640023,-0.106,-0.368,9.732,0.14036493507995507,2.2534729865577954,1.1553884711779447,0,0.25
1757393899.7909741,-0.068,-0.323,9.836,0.14040610741702086,1.9220326426772048,1.1572932330827064,0,0.25
1757393899.8173869,-0.068,-0.323,9.836,0.14040610741702086,1.9220326426772048,1.1572932330827064,0,0.25
1757393899.843863,-0.083,-0.191,9.581,0.14046742504936865,1.2451971594638027,1.1580451127819547,0,0.25
1757393899.8708146,-0.083,-0.191,9.581,0.14046742504936865,1.2451971594638027,1.1580451127819547,0,0.25
1757393899.8979566,-0.061,-0.306,9.62,0.14050053380681513,1.857714317090764,1.1591478696741855,0,0.25
1757393899.9251146,-0.061,-0.306,9.62,0.14050053380681513,1.857714317090764,1.1591478696741855,0,0.25
1757393899.952313,0.052,-0.364,9.703,0.14052458859573294,2.1701871564051975,1.1648120300751879,0,0.25
1757393899.9795122,0.052,-0.364,9.703,0.14052458859573294,2.1701871564051975,1.1648120300751879,0,0.25
1757393900.0066247,-0.037,-0.312,9.508,0.14053676565226625,1.8926165610854333,1.1692731829573935,0,0.25
1757393900.033137,-0.037,-0.312,9.508,0.14053676565226625,1.8926165610854333,1.1692731829573935,0,0.25
1757393900.0594685,-0.197,-0.212,9.622,0.1408815282427047,1.722767059133936,1.1772932330827066,0,0.25
1757393900.0866833,-0.197,-0.212,9.622,0.1408815282427047,1.722767059133936,1.1772932330827066,0,0.25
1757393900.113746,-0.197,-0.212,9.622,0.1408815282427047,1.722767059133936,1.1772932330827066,0,0.25
1757393900.141035,0.079,-0.13,9.599,0.14093689190556177,0.9079278718901619,1.1911278195488721,0,0.25
1757393900.1686914,-0.05,-0.09,9.583,0.14095906320630824,0.6155415419663274,1.197593984962406,0,0.25
1757393900.1961114,-0.05,-0.09,9.583,0.14095906320630824,0.6155415419663274,1.197593984962406,0,0.25
1757393900.2234557,-0.052,-0.155,9.634,0.14098303976010731,0.9722224852418738,1.1976942355889724,0,0.25
1757393900.2506063,-0.052,-0.155,9.634,0.14098303976010731,0.9722224852418738,1.1976942355889724,0,0.25
1757393900.277874,0.033,-0.17,9.582,0.14099269484622245,1.0353809755603254,1.201954887218045,0,0.25
1757393900.3045192,0.033,-0.17,9.582,0.14099269484622245,1.0353809755603254,1.201954887218045,0,0.25
1757393900.3308434,-0.002,-0.224,9.658,0.14099273030904821,1.3286876526519884,1.2037092731829573,0,0.25
1757393900.358044,-0.002,-0.224,9.658,0.14099273030904821,1.3286876526519884,1.2037092731829573,0,0.25
1757393900.3855867,-0.04,-0.296,9.747,0.14100691472406593,1.7552425982118702,1.2056140350877191,0,0.25
1757393900.413699,-0.04,-0.296,9.747,0.14100691472406593,1.7552425982118702,1.2056140350877191,0,0.25
1757393900.440961,-0.037,-0.231,9.865,0.14101905013153365,1.3584913380034136,1.2057644110275687,0,0.25
1757393900.4683125,-0.037,-0.231,9.865,0.14101905013153365,1.3584913380034136,1.2057644110275687,0,0.25
1757393900.4946322,-0.181,-0.301,9.861,0.14130914690847157,2.0398997298990746,1.2129824561403508,0,0.25
1757393900.5210865,-0.181,-0.301,9.861,0.14130914690847157,2.0398997298990746,1.2129824561403508,0,0.25
1757393900.5471761,-0.032,-0.264,9.781,0.1413182047720675,1.5574120127793363,1.2204511278195487,0,0.25
1757393900.5745373,-0.032,-0.264,9.781,0.1413182047720675,1.5574120127793363,1.2204511278195487,0,0.25
1757393900.6010401,-0.127,-0.124,9.883,0.14146079845667492,1.0289088224557004,1.2252130325814532,0,0.25
1757393900.6288157,-0.127,-0.124,9.883,0.14146079845667492,1.0289088224557004,1.2252130325814532,0,0.25
1757393900.6563575,-0.195,-0.138,9.823,0.14179640333943594,1.393134417538135,1.2286215538847116,0,0.25
1757393900.6836486,-0.195,-0.138,9.823,0.14179640333943594,1.393134417538135,1.2286215538847116,0,0.25
1757393900.710778,-0.203,-0.097,9.703,0.14215921531859974,1.3282850305832876,1.2290225563909773,0,0.25
1757393900.7378485,-0.203,-0.097,9.703,0.14215921531859974,1.3282850305832876,1.2290225563909773,0,0.25
1757393900.7646747,-0.31,-0.02,9.885,0.1430017220176037,1.7999759780541515,1.2343859649122806,0,0.25
1757393900.79176,-0.31,-0.02,9.885,0.1430017220176037,1.7999759780541515,1.2343859649122806,0,0.25
1757393900.818703,-0.118,-0.068,9.846,0.14312338208692527,0.7924714944133686,1.2440100250626565,0,0.25
1757393900.8459558,-0.118,-0.068,9.846,0.14312338208692527,0.7924714944133686,1.2440100250626565,0,0.25
1757393900.8728178,-0.353,-0.174,9.833,0.14420757608392148,2.291973195788211,1.2557894736842103,0,0.25
1757393900.8982074,-0.353,-0.174,9.833,0.14420757608392148,2.291973195788211,1.2557894736842103,0,0.25
1757393900.9253008,-0.325,-0.192,9.756,0.14512025186031066,2.2157712835531065,1.2571929824561403,0,0.25
1757393900.9520233,-0.325,-0.192,9.756,0.14512025186031066,2.2157712835531065,1.2571929824561403,0,0.25
1757393900.979279,-0.27,-0.32,9.699,0.14574682672360315,2.471821357162823,1.2599498746867168,0,0.25
1757393901.0065758,-0.27,-0.32,9.699,0.14574682672360315,2.471821357162823,1.2599498746867168,0,0.25
1757393901.0336895,-0.015,-0.498,9.638,0.14574875642694177,2.959208510455176,1.2727318295739347,0,0.25
1757393901.0611472,-0.015,-0.498,9.638,0.14574875642694177,2.959208510455176,1.2727318295739347,0,0.25
1757393901.0884368,-0.292,-0.657,9.862,0.14647818950273792,4.1696416355137425,1.2866165413533834,0,0.25
1757393901.1159978,-0.292,-0.657,9.862,0.14647818950273792,4.1696416355137425,1.2866165413533834,0,0.25
1757393901.1430843,0.098,-0.464,9.725,0.1465601241811701,2.7917971197963425,1.3061654135338345,0,0.25
1757393901.1694462,0.098,-0.464,9.725,0.1465601241811701,2.7917971197963425,1.3061654135338345,0,0.25
1757393901.195763,-0.021,-0.499,9.645,0.14656388538790857,2.964267996265487,1.3121303258145363,0,0.25
1757393901.2226713,-0.021,-0.499,9.645,0.14656388538790857,2.964267996265487,1.3121303258145363,0,0.25
1757393901.2490275,-0.159,-0.537,9.742,0.14677934118941943,3.2901781494038844,1.319047619047619,0,0.25
1757393901.276031,-0.159,-0.537,9.742,0.14677934118941943,3.2901781494038844,1.319047619047619,0,0.25
1757393901.303692,-0.049,-0.577,9.806,0.14679978712518627,3.3795810917826405,1.3245614035087718,0,0.25
1757393901.3310497,-0.049,-0.577,9.806,0.14679978712518627,3.3795810917826405,1.3245614035087718,0,0.25
1757393901.3582861,-0.024,-0.528,9.594,0.14680469168252083,3.1533068820385846,1.3258145363408522,0,0.25
1757393901.3857152,-0.024,-0.528,9.594,0.14680469168252083,3.1533068820385846,1.3258145363408522,0,0.25
1757393901.4130886,-0.085,-0.573,9.672,0.14686619760857159,3.427433919740003,1.3288721804511279,0,0.25
1757393901.4401977,-0.085,-0.573,9.672,0.14686619760857159,3.427433919740003,1.3288721804511279,0,0.25
1757393901.4674034,-0.189,-0.397,9.774,0.14716991030777996,2.575770787885236,1.3340852130325813,0,0.25
1757393901.494566,-0.189,-0.397,9.774,0.14716991030777996,2.575770787885236,1.3340852130325813,0,0.25
1757393901.521141,-0.144,-0.298,9.713,0.14734592800617194,1.9515856291983138,1.336340852130326,0,0.25
1757393901.5479608,-0.144,-0.298,9.713,0.14734592800617194,1.9515856291983138,1.336340852130326,0,0.25
1757393901.5752075,-0.538,-0.219,9.671,0.1497812822084255,3.437206138768928,1.3560902255639098,0,0.25
1757393901.6026216,-0.538,-0.219,9.671,0.1497812822084255,3.437206138768928,1.3560902255639098,0,0.25
1757393901.6298225,-0.318,-0.143,9.837,0.1506228485323525,2.0300033333587706,1.3671177944862156,0,0.25
1757393901.656376,-0.318,-0.143,9.837,0.1506228485323525,2.0300033333587706,1.3671177944862156,0,0.25
1757393901.6830034,-0.214,-0.253,9.775,0.1510024254772088,1.9415592406058024,1.3723308270676693,0,0.25
1757393901.7102542,-0.214,-0.253,9.775,0.1510024254772088,1.9415592406058024,1.3723308270676693,0,0.25
1757393901.7374837,-0.428,-0.252,9.639,0.1525112864675923,2.9497196257052063,1.3830576441102758,0,0.25
1757393901.7647212,-0.428,-0.252,9.639,0.1525112864675923,2.9497196257052063,1.3830576441102758,0,0.25
1757393901.791956,-0.37,-0.319,9.891,0.153629237126271,2.8276156542226234,1.385964912280702,0,0.25
1757393901.8195195,-0.37,-0.319,9.891,0.153629237126271,2.8276156542226234,1.385964912280702,0,0.25
1757393901.8467708,-0.175,-0.351,9.871,0.1538782148323797,2.2753487189254935,1.3957393483709273,0,0.25
1757393901.8741314,-0.175,-0.351,9.871,0.1538782148323797,2.2753487189254935,1.3957393483709273,0,0.25
1757393901.9006562,-0.253,-0.346,9.71,0.15439730405677424,2.527584451296251,1.3996491228070176,0,0.25
1757393901.9272568,-0.253,-0.346,9.71,0.15439730405677424,2.527584451296251,1.3996491228070176,0,0.25
1757393901.9538863,-0.251,-0.254,9.678,0.15490652019847323,2.1131196392660248,1.399749373433584,0,0.25
1757393901.980897,-0.251,-0.254,9.678,0.15490652019847323,2.1131196392660248,1.399749373433584,0,0.25
1757393902.008241,0.004,-0.22,9.512,0.15490664930854325,1.3251584079023977,1.412531328320802,0,0.25
1757393902.036339,0.004,-0.22,9.512,0.15490664930854325,1.3251584079023977,1.412531328320802,0,0.25
1757393902.063478,-0.167,-0.375,9.35,0.15513153290031012,2.513912758543435,1.4211027568922305,0,0.25
1757393902.0910223,-0.167,-0.375,9.35,0.15513153290031012,2.513912758543435,1.4211027568922305,0,0.25
1757393902.1182384,-0.126,-0.426,9.444,0.15525940390198592,2.693192524913505,1.4231578947368422,0,0.25
1757393902.1453006,-0.126,-0.426,9.444,0.15525940390198592,2.693192524913505,1.4231578947368422,0,0.25
1757393902.1714034,-0.089,-0.246,9.423,0.1553231631148426,1.5902572458889372,1.4250125313283206,0,0.25
1757393902.1988657,-0.089,-0.246,9.423,0.1553231631148426,1.5902572458889372,1.4250125313283206,0,0.25
1757393902.225989,-0.045,-0.304,9.412,0.15533945892785903,1.8701082249806262,1.427218045112782,0,0.25
1757393902.252898,-0.045,-0.304,9.412,0.15533945892785903,1.8701082249806262,1.427218045112782,0,0.25
1757393902.2794619,-0.174,-0.325,9.715,0.15558289591082947,2.1731156252222883,1.4336842105263157,0,0.25
1757393902.3064528,-0.174,-0.325,9.715,0.15558289591082947,2.1731156252222883,1.4336842105263157,0,0.25
1757393902.3334494,-0.299,-0.281,9.763,0.1562995201528143,2.4066108530768147,1.4399498746867168,0,0.25
1757393902.3608902,-0.299,-0.281,9.763,0.1562995201528143,2.4066108530768147,1.4399498746867168,0,0.25
1757393902.3876357,-0.219,-0.346,9.728,0.15668261709583484,2.4103466909182507,1.4439598997493734,0,0.25
1757393902.4139564,-0.219,-0.346,9.728,0.15668261709583484,2.4103466909182507,1.4439598997493734,0,0.25
1757393902.4410245,-0.214,-0.528,9.991,0.15704754853228367,3.2636568440261855,1.4442105263157894,0,0.25
1757393902.467452,-0.214,-0.528,9.991,0.15704754853228367,3.2636568440261855,1.4442105263157894,0,0.25
1757393902.494853,-0.365,-0.281,10.022,0.15810438007847855,2.63160712111241,1.4517794486215538,0,0.25
1757393902.5222642,-0.365,-0.281,10.022,0.15810438007847855,2.63160712111241,1.4517794486215538,0,0.25
1757393902.549365,-0.081,-0.153,9.811,0.15815624394882422,1.010898752364542,1.4660150375939849,0,0.25
1757393902.5759609,-0.081,-0.153,9.811,0.15815624394882422,1.010898752364542,1.4660150375939849,0,0.25
1757393902.6031756,-0.244,-0.309,9.892,0.1586260933768464,2.279286975940006,1.474185463659148,0,0.25
1757393902.63037,-0.244,-0.309,9.892,0.1586260933768464,2.279286975940006,1.474185463659148,0,0.25
1757393902.6576507,-0.264,-0.229,9.871,0.15917436194312198,2.027700182390043,1.4751879699248118,0,0.25
1757393902.6852078,-0.264,-0.229,9.871,0.15917436194312198,2.027700182390043,1.4751879699248118,0,0.25
1757393902.7126584,-0.171,-0.169,9.736,0.15940382680475396,1.4145726171565263,1.4798496240601502,0,0.25
1757393902.7398503,-0.171,-0.169,9.736,0.15940382680475396,1.4145726171565263,1.4798496240601502,0,0.25
1757393902.7669632,-0.007,-0.207,9.815,0.15940421104851654,1.2088889253401178,1.4880701754385965,0,0.25
1757393902.794233,-0.007,-0.207,9.815,0.15940421104851654,1.2088889253401178,1.4880701754385965,0,0.25
1757393902.8224354,-0.167,-0.206,9.838,0.15962275840242832,1.544064831745477,1.4960902255639097,0,0.25
1757393902.8501308,-0.167,-0.206,9.838,0.15962275840242832,1.544064831745477,1.4960902255639097,0,0.25
1757393902.8774548,-0.129,-0.149,9.832,0.1597530203157361,1.1483476792429828,1.4979949874686715,0,0.25
1757393902.905176,-0.129,-0.149,9.832,0.1597530203157361,1.1483476792429828,1.4979949874686715,0,0.25
1757393902.9318712,-0.081,-0.359,10.04,0.15980434912730004,2.0992840141458546,1.5004010025062655,0,0.25
1757393902.958751,-0.081,-0.359,10.04,0.15980434912730004,2.0992840141458546,1.5004010025062655,0,0.25
1757393902.986242,-0.157,-0.223,9.881,0.15999703903510215,1.5810067906417824,1.5042105263157897,0,0.25
1757393903.0136924,-0.157,-0.223,9.881,0.15999703903510215,1.5810067906417824,1.5042105263157897,0,0.25
1757393903.0398057,-0.017,-0.328,9.809,0.15999929687345502,1.9177502682596046,1.5112280701754386,0,0.25
1757393903.0674372,-0.017,-0.328,9.809,0.15999929687345502,1.9177502682596046,1.5112280701754386,0,0.25
1757393903.0946145,0.084,-0.405,9.905,0.16005441262270778,2.391204913771509,1.5162907268170427,0,0.25
1757393903.1228929,0.084,-0.405,9.905,0.16005441262270778,2.391204913771509,1.5162907268170427,0,0.25
1757393903.150434,-0.189,-0.407,9.905,0.16033314535678517,2.59399222415838,1.5299749373433584,0,0.25
1757393903.17666,-0.189,-0.407,9.905,0.16033314535678517,2.59399222415838,1.5299749373433584,0,0.25
1757393903.203369,-0.162,-0.301,9.968,0.16053762020162127,1.9640363347692755,1.531328320802005,0,0.25
1757393903.2301939,-0.162,-0.301,9.968,0.16053762020162127,1.9640363347692755,1.531328320802005,0,0.25
1757393903.2582293,0.178,-0.452,9.845,0.160784133234595,2.8248785021964475,1.5483709273182957,0,0.25
1757393903.2856266,0.178,-0.452,9.845,0.160784133234595,2.8248785021964475,1.5483709273182957,0,0.25
1757393903.3141146,-0.034,-0.415,9.81,0.1607931201886449,2.4304896094871316,1.558997493734336,0,0.25
1757393903.3418205,-0.034,-0.415,9.81,0.1607931201886449,2.4304896094871316,1.558997493734336,0,0.25
1757393903.3692791,-0.015,-0.241,9.766,0.16079486932113227,1.4163613271904933,1.5599498746867166,0,0.25
1757393903.3959982,-0.015,-0.241,9.766,0.16079486932113227,1.4163613271904933,1.5599498746867166,0,0.25
1757393903.423602,0.076,-0.365,9.853,0.16083976498366317,2.1669853079147106,1.5645112781954889,0,0.25
1757393903.451208,0.041,-0.45,9.807,0.16085282869753953,2.63807459699588,1.566265664160401,0,0.25
1757393903.4789407,0.041,-0.45,9.807,0.16085282869753953,2.63807459699588,1.566265664160401,0,0.25
1757393903.5062492,-0.157,-0.311,9.874,0.16104426410151962,2.0207150162584697,1.5761904761904761,0,0.25
1757393903.5332136,-0.157,-0.311,9.874,0.16104426410151962,2.0207150162584697,1.5761904761904761,0,0.25
1757393903.5607908,0.091,-0.193,9.833,0.1611085270865574,1.2431320488865516,1.5886215538847115,0,0.25
1757393903.5884242,0.091,-0.193,9.833,0.1611085270865574,1.2431320488865516,1.5886215538847115,0,0.25
1757393903.6161253,-0.018,-0.288,9.924,0.16111104090036785,1.6655305082804273,1.594085213032581,0,0.25
1757393903.6437793,-0.018,-0.288,9.924,0.16111104090036785,1.6655305082804273,1.594085213032581,0,0.25
1757393903.67092,-0.051,-0.352,9.813,0.1611312198178863,2.075795691574227,1.5957393483709272,0,0.25
1757393903.6986387,-0.051,-0.352,9.813,0.1611312198178863,2.075795691574227,1.5957393483709272,0,0.25
1757393903.726106,0.003,-0.218,9.766,0.1611312896367431,1.2788847025730925,1.5984461152882201,0,0.25
1757393903.7528305,0.003,-0.218,9.766,0.1611312896367431,1.2788847025730925,1.5984461152882201,0,0.25
1757393903.780307,0.114,-0.364,9.748,0.16123207652325264,2.240810671377854,1.6040100250626566,0,0.25
1757393903.8083072,0.114,-0.364,9.748,0.16123207652325264,2.240810671377854,1.6040100250626566,0,0.25
1757393903.8359368,-0.117,-0.479,9.694,0.16133816969334938,2.9118216687161724,1.6155889724310777,0,0.25
1757393903.8633614,-0.117,-0.479,9.694,0.16133816969334938,2.9118216687161724,1.6155889724310777,0,0.25
1757393903.8908727,-0.324,-0.279,9.657,0.16214945266635963,2.535158646434074,1.6259649122807018,0,0.25
1757393903.9180586,-0.324,-0.279,9.657,0.16214945266635963,2.535158646434074,1.6259649122807018,0,0.25
1757393903.9447818,-0.324,-0.279,9.657,0.16214945266635963,2.535158646434074,1.6259649122807018,0,0.25
1757393903.971533,-0.015,-0.162,9.722,0.16215118716802537,0.9587276374181904,1.6414536340852128,0,0.25
1757393903.9985456,-0.111,-0.119,9.667,0.16224614016980496,0.9644179526672857,1.646265664160401,0,0.25
1757393904.0254495,-0.111,-0.119,9.667,0.16224614016980496,0.9644179526672857,1.646265664160401,0,0.25
1757393904.0527985,-0.153,-0.15,9.676,0.16242639102067127,1.2685416146221555,1.6483709273182958,0,0.25
1757393904.08079,-0.153,-0.15,9.676,0.16242639102067127,1.2685416146221555,1.6483709273182958,0,0.25
1757393904.1081727,0.055,-0.163,9.817,0.1624496691286258,1.0039249051257078,1.658796992481203,0,0.25
1757393904.1350265,0.055,-0.163,9.817,0.1624496691286258,1.0039249051257078,1.658796992481203,0,0.25
1757393904.161139,-0.13,-0.298,9.784,0.16257965739907315,1.9032337153087622,1.6680701754385963,0,0.25
1757393904.188374,-0.13,-0.298,9.784,0.16257965739907315,1.9032337153087622,1.6680701754385963,0,0.25
1757393904.2155008,-0.13,-0.298,9.784,0.16257965739907315,1.9032337153087622,1.6680701754385963,0,0.25
1757393904.242766,-0.263,-0.221,9.825,0.16311059898118208,2.002500325090523,1.6747368421052629,0,0.25
1757393904.2700338,0.064,-0.141,9.779,0.1631419857057036,0.9071713270071698,1.6911278195488721,0,0.25
1757393904.2975876,0.064,-0.141,9.779,0.1631419857057036,0.9071713270071698,1.6911278195488721,0,0.25
1757393904.3253481,0.1,-0.168,9.665,0.16321858809584158,1.1588563728845016,1.6929323308270676,0,0.25
1757393904.3526633,0.1,-0.168,9.665,0.16321858809584158,1.1588563728845016,1.6929323308270676,0,0.25
1757393904.3794174,-0.121,-0.191,9.785,0.1633306768491455,1.3236965705238326,1.7040100250626569,0,0.25
1757393904.4059484,-0.121,-0.191,9.785,0.1633306768491455,1.3236965705238326,1.7040100250626569,0,0.25
1757393904.4322538,-0.034,-0.162,9.804,0.16333952369221602,0.967282540809164,1.7083709273182957,0,0.25
1757393904.4606175,-0.034,-0.162,9.804,0.16333952369221602,0.967282540809164,1.7083709273182957,0,0.25
1757393904.4877803,-0.094,-0.011,9.658,0.1634071295874204,0.5614393109487288,1.7113784461152883,0,0.25
1757393904.5132675,-0.094,-0.011,9.658,0.1634071295874204,0.5614393109487288,1.7113784461152883,0,0.25
1757393904.539047,-0.177,0.003,9.675,0.16364660858080746,1.0482354391067759,1.7155388471177948,0,0.25
1757393904.5663416,-0.177,0.003,9.675,0.16364660858080746,1.0482354391067759,1.7155388471177948,0,0.25
1757393904.5936422,-0.155,0.21,9.693,0.1638300186168579,1.5424558542680247,1.7166416040100252,0,0.25
1757393904.6208906,-0.155,0.21,9.693,0.1638300186168579,1.5424558542680247,1.7166416040100252,0,0.25
1757393904.6468825,-0.022,0.027,9.674,0.1638337114271663,0.20627427694795492,1.7233082706766918,0,0.25
1757393904.6734037,-0.022,0.027,9.674,0.1638337114271663,0.20627427694795492,1.7233082706766918,0,0.25
1757393904.700608,-0.276,0.045,9.671,0.16441388323374642,1.6562900971818277,1.7360401002506267,0,0.25
1757393904.728107,-0.276,0.045,9.671,0.16441388323374642,1.6562900971818277,1.7360401002506267,0,0.25
1757393904.755182,-0.219,0.1,9.627,0.1647781159620415,1.4325476774603496,1.7388972431077696,0,0.25
1757393904.7827291,-0.219,0.1,9.627,0.1647781159620415,1.4325476774603496,1.7388972431077696,0,0.25
1757393904.8095067,-0.12,-0.063,9.662,0.16488731758385786,0.8036554123450647,1.7438596491228069,0,0.25
1757393904.8370612,-0.12,-0.063,9.662,0.16488731758385786,0.8036554123450647,1.7438596491228069,0,0.25
1757393904.864417,-0.332,-0.172,9.945,0.16572081190966934,2.1531750762996906,1.754486215538847,0,0.25
1757393904.8925364,-0.332,-0.172,9.945,0.16572081190966934,2.1531750762996906,1.754486215538847,0,0.25
1757393904.9201953,-0.312,-0.152,9.835,0.16645343943577737,2.0210073634367394,1.7554887218045112,0,0.25
1757393904.9478817,-0.312,-0.152,9.835,0.16645343943577737,2.0210073634367394,1.7554887218045112,0,0.25
1757393904.97567,-0.251,-0.175,9.863,0.1669258817559458,1.776939179017313,1.7585463659147869,0,0.25
1757393905.0029647,-0.251,-0.175,9.863,0.1669258817559458,1.776939179017313,1.7585463659147869,0,0.25
1757393905.0304463,-0.27,-0.165,9.8,0.16747089299337958,1.8493408679444676,1.759498746867168,0,0.25
1757393905.058703,-0.27,-0.165,9.8,0.16747089299337958,1.8493408679444676,1.759498746867168,0,0.25
1757393905.0865505,-0.264,-0.133,9.608,0.16799029733886417,1.7622645448525773,1.7597994987468675,0,0.25
1757393905.1146898,-0.264,-0.133,9.608,0.16799029733886417,1.7622645448525773,1.7597994987468675,0,0.25
1757393905.1424408,-0.254,-0.346,9.626,0.16846967086095943,2.5531229288870514,1.760300751879699,0,0.25
1757393905.1692278,-0.254,-0.346,9.626,0.16846967086095943,2.5531229288870514,1.760300751879699,0,0.25
1757393905.1955705,-0.266,-0.311,9.872,0.16899384604180118,2.3738128776131253,1.7609022556390979,0,0.25
1757393905.2232964,-0.266,-0.311,9.872,0.16899384604180118,2.3738128776131253,1.7609022556390979,0,0.25
1757393905.2506497,-0.269,-0.547,9.939,0.16952823511144097,3.5095919312583637,1.7610526315789472,0,0.25
1757393905.2780902,-0.269,-0.547,9.939,0.16952823511144097,3.5095919312583637,1.7610526315789472,0,0.25
1757393905.3047905,-0.335,-0.43,9.895,0.1703537055658021,3.153099664300242,1.7643609022556392,0,0.25
1757393905.3323383,-0.335,-0.43,9.895,0.1703537055658021,3.153099664300242,1.7643609022556392,0,0.25
1757393905.3607686,-0.257,-0.626,9.955,0.17083766417274618,3.8887583767128553,1.7682706766917293,0,0.25
1757393905.388095,-0.257,-0.626,9.955,0.17083766417274618,3.8887583767128553,1.7682706766917293,0,0.25
1757393905.415893,-0.359,-0.528,9.895,0.17177808358460633,3.6919591341546134,1.7733834586466164,0,0.25
1757393905.4429543,-0.359,-0.528,9.895,0.17177808358460633,3.6919591341546134,1.7733834586466164,0,0.25
1757393905.4704545,-0.35,-0.448,9.92,0.17266719433638805,3.2800052315480603,1.7738345864661653,0,0.25
1757393905.4979625,-0.35,-0.448,9.92,0.17266719433638805,3.2800052315480603,1.7738345864661653,0,0.25
1757393905.5252206,-0.315,-0.359,9.806,0.17338403184837986,2.7884061892843066,1.7755889724310776,0,0.25
1757393905.5531795,-0.315,-0.359,9.806,0.17338403184837986,2.7884061892843066,1.7755889724310776,0,0.25
1757393905.5805755,-0.349,-0.361,9.87,0.17425993515435498,2.9123033459747676,1.7772932330827067,0,0.25
1757393905.60872,-0.349,-0.361,9.87,0.17425993515435498,2.9123033459747676,1.7772932330827067,0,0.25
1757393905.6361701,-0.572,-0.168,9.799,0.1765912936698749,3.4815248727380284,1.7884711779448623,0,0.25
1757393905.6633916,-0.572,-0.168,9.799,0.1765912936698749,3.4815248727380284,1.7884711779448623,0,0.25
1757393905.6909194,-0.281,-0.168,9.946,0.17714933671905184,1.8853170781728346,1.8030576441102757,0,0.25
1757393905.7187016,-0.444,-0.181,10.172,0.1785349475592944,2.698743393081515,1.8112280701754384,0,0.25
1757393905.7455676,-0.444,-0.181,10.172,0.1785349475592944,2.698743393081515,1.8112280701754384,0,0.25
1757393905.7728157,-0.525,-0.16,9.989,0.1804543986717974,3.144920472684387,1.8152882205513783,0,0.25
1757393905.7999809,-0.525,-0.16,9.989,0.1804543986717974,3.144920472684387,1.8152882205513783,0,0.25
1757393905.8275023,-0.48,-0.037,10.015,0.1820433739524732,2.752106088029332,1.8175438596491227,0,0.25
1757393905.8554702,-0.48,-0.037,10.015,0.1820433739524732,2.752106088029332,1.8175438596491227,0,0.25
1757393905.8831081,-0.315,-0.019,10.019,0.18272343172127653,1.8040719024639922,1.8258145363408522,0,0.25
1757393905.910036,-0.315,-0.019,10.019,0.18272343172127653,1.8040719024639922,1.8258145363408522,0,0.25
1757393905.9376307,-0.541,-0.091,10.139,0.18471479366850937,3.0971344235119083,1.8371428571428572,0,0.25
1757393905.9660156,-0.541,-0.091,10.139,0.18471479366850937,3.0971344235119083,1.8371428571428572,0,0.25
1757393905.9937298,-0.353,-0.015,10.052,0.18555613032179777,2.0130651973041434,1.8465664160400999,0,0.25
1757393906.0207002,-0.353,-0.015,10.052,0.18555613032179777,2.0130651973041434,1.8465664160400999,0,0.25
1757393906.0470908,-0.319,0.031,10.099,0.18624038230201312,1.8177336750268878,1.8482706766917292,0,0.25
1757393906.0739782,-0.319,0.031,10.099,0.18624038230201312,1.8177336750268878,1.8482706766917292,0,0.25
1757393906.100872,-0.319,0.031,10.099,0.18624038230201312,1.8177336750268878,1.8482706766917292,0,0.25
1757393906.1278338,-0.413,0.044,10.067,0.18738170268198548,2.362529148877861,1.8529824561403507,0,0.25
1757393906.1552284,-0.328,0.034,10.035,0.188098013014492,1.8821042349219828,1.8572431077694234,0,0.25
1757393906.1834302,-0.328,0.034,10.035,0.188098013014492,1.8821042349219828,1.8572431077694234,0,0.25
1757393906.2110052,-0.212,-0.195,10.037,0.18839645033811014,1.6438320837904736,1.8630576441102757,0,0.25
1757393906.2385654,-0.212,-0.195,10.037,0.18839645033811014,1.6438320837904736,1.8630576441102757,0,0.25
1757393906.2663293,-0.31,-0.223,9.983,0.1890329931519892,2.1906440465464003,1.8679699248120298,0,0.25
1757393906.2940598,-0.31,-0.223,9.983,0.1890329931519892,2.1906440465464003,1.8679699248120298,0,0.25
1757393906.3213747,-0.502,-0.283,10.182,0.19069211441483364,3.2393384204862294,1.877593984962406,0,0.25
1757393906.348835,-0.502,-0.283,10.182,0.19069211441483364,3.2393384204862294,1.877593984962406,0,0.25
1757393906.3750045,-0.154,-0.158,10.112,0.19084751111816997,1.2499480155322755,1.8950375939849622,0,0.25
1757393906.4016733,-0.154,-0.158,10.112,0.19084751111816997,1.2499480155322755,1.8950375939849622,0,0.25
1757393906.4287977,-0.149,-0.155,10.155,0.19099286635892976,1.212888792360087,1.8952882205513781,0,0.25
1757393906.4558783,-0.149,-0.155,10.155,0.19099286635892976,1.212888792360087,1.8952882205513781,0,0.25
1757393906.4832766,-0.269,-0.148,10.092,0.19146586510393962,1.7425558015185751,1.901303258145363,0,0.25
1757393906.5096467,-0.269,-0.148,10.092,0.19146586510393962,1.7425558015185751,1.901303258145363,0,0.25
1757393906.5368223,-0.307,-0.152,9.983,0.19208019158674328,1.965342661435404,1.9032080200501251,0,0.25
1757393906.5641353,-0.307,-0.152,9.983,0.19208019158674328,1.965342661435404,1.9032080200501251,0,0.25
1757393906.5915763,-0.24,-0.118,9.965,0.1924546699875064,1.5373295989662352,1.9065664160401001,0,0.25
1757393906.619435,-0.24,-0.118,9.965,0.1924546699875064,1.5373295989662352,1.9065664160401001,0,0.25
1757393906.6468475,-0.302,-0.114,10.06,0.193046134382432,1.8378477318391955,1.9096741854636587,0,0.25
1757393906.6742244,-0.302,-0.114,10.06,0.193046134382432,1.8378477318391955,1.9096741854636587,0,0.25
1757393906.7015393,-0.322,-0.115,9.852,0.19371633901145252,1.9876866776067073,1.910676691729323,0,0.25
1757393906.7290463,-0.322,-0.115,9.852,0.19371633901145252,1.9876866776067073,1.910676691729323,0,0.25
1757393906.7565186,-0.184,-0.208,9.842,0.1939346797249012,1.616246382892217,1.9175939849624057,0,0.25
1757393906.7827156,-0.184,-0.208,9.842,0.1939346797249012,1.616246382892217,1.9175939849624057,0,0.25
1757393906.8103714,-0.154,-0.256,9.857,0.19408748027629188,1.7360168075490205,1.9190977443609023,0,0.25
1757393906.8378549,-0.154,-0.256,9.857,0.19408748027629188,1.7360168075490205,1.9190977443609023,0,0.25
1757393906.8655243,-0.205,-0.225,9.706,0.1943579494129324,1.7962333057245299,1.9216541353383458,0,0.25
1757393906.8922925,-0.205,-0.225,9.706,0.1943579494129324,1.7962333057245299,1.9216541353383458,0,0.25
1757393906.9203181,-0.131,-0.433,9.706,0.19446828790319515,2.6685419518940168,1.9253634085213034,0,0.25
1757393906.9479015,-0.131,-0.433,9.706,0.19446828790319515,2.6685419518940168,1.9253634085213034,0,0.25
1757393906.9754186,-0.159,-0.618,9.743,0.19463072085362063,3.7472842126711057,1.926766917293233,0,0.25
1757393907.002834,-0.159,-0.618,9.743,0.19463072085362063,3.7472842126711057,1.926766917293233,0,0.25
1757393907.0303042,-0.173,-0.351,9.698,0.19482284260322247,2.3106547542096285,1.9274686716791982,0,0.25
1757393907.0578864,-0.173,-0.351,9.698,0.19482284260322247,2.3106547542096285,1.9274686716791982,0,0.25
1757393907.085219,-0.079,-0.176,9.725,0.1948628812780926,1.136440614020151,1.9321804511278198,0,0.25
1757393907.1126938,-0.079,-0.176,9.725,0.1948628812780926,1.136440614020151,1.9321804511278198,0,0.25
1757393907.1401763,0.022,-0.34,9.804,0.19486598600063584,1.990356027507897,1.9372431077694237,0,0.25
1757393907.166824,0.022,-0.34,9.804,0.19486598600063584,1.990356027507897,1.9372431077694237,0,0.25
1757393907.1936889,-0.097,-0.387,9.735,0.19492633223861777,2.3468494211492423,1.9432080200501252,0,0.25
1757393907.221174,-0.097,-0.387,9.735,0.19492633223861777,2.3468494211492423,1.9432080200501252,0,0.25
1757393907.248545,-0.081,-0.274,9.74,0.19496840128595197,1.6802838957499908,1.9440100250626566,0,0.25
1757393907.2757628,-0.081,-0.274,9.74,0.19496840128595197,1.6802838957499908,1.9440100250626566,0,0.25
1757393907.3033752,-0.114,-0.371,9.908,0.1950517046836556,2.2432644456665303,1.9456641604010023,0,0.25
1757393907.3296251,-0.114,-0.371,9.908,0.1950517046836556,2.2432644456665303,1.9456641604010023,0,0.25
1757393907.356947,-0.271,-0.368,10.028,0.19552178906710116,2.6094004662792933,1.9535338345864663,0,0.25
1757393907.383313,-0.271,-0.368,10.028,0.19552178906710116,2.6094004662792933,1.9535338345864663,0,0.25
1757393907.4100056,-0.026,-0.178,9.938,0.19552611078830368,1.0370040940476761,1.965814536340852,0,0.25
1757393907.436351,-0.026,-0.178,9.938,0.19552611078830368,1.0370040940476761,1.965814536340852,0,0.25
1757393907.463657,0.039,-0.309,9.816,0.19553583431177007,1.817325631734949,1.9639097744360903,0,0.25
1757393907.4909847,0.039,-0.309,9.816,0.19553583431177007,1.817325631734949,1.9639097744360903,0,0.25
1757393907.518755,-0.059,-0.34,9.962,0.1954902619058044,1.9839179952342996,1.9682706766917295,0,0.25
1757393907.5472412,-0.059,-0.34,9.962,0.1954902619058044,1.9839179952342996,1.9682706766917295,0,0.25
1757393907.574965,-0.179,-0.164,9.789,0.19561200116557265,1.420657219502404,1.9733333333333334,0,0.25
1757393907.603008,-0.179,-0.164,9.789,0.19561200116557265,1.420657219502404,1.9733333333333334,0,0.25
1757393907.6312976,-0.05,-0.262,9.812,0.19551491631075107,1.5571386724451344,1.9786967418546366,0,0.25
1757393907.65918,-0.05,-0.262,9.812,0.19551491631075107,1.5571386724451344,1.9786967418546366,0,0.25
1757393907.6858008,-0.323,-0.348,9.953,0.1960276574874066,2.7311670287256407,1.9918796992481203,0,0.25
1757393907.7135766,-0.323,-0.348,9.953,0.1960276574874066,2.7311670287256407,1.9918796992481203,0,0.25
1757393907.7414856,-0.062,-0.276,9.749,0.19587850826468942,1.662034358254541,2.004511278195489,0,0.25
1757393907.7683966,-0.062,-0.276,9.749,0.19587850826468942,1.662034358254541,2.004511278195489,0,0.25
1757393907.7956092,-0.052,-0.374,9.704,0.19570247826739445,2.2283433225862255,2.004511278195489,0,0.25
1757393907.8235688,-0.052,-0.374,9.704,0.19570247826739445,2.2283433225862255,2.004511278195489,0,0.25
1757393907.850975,-0.145,-0.528,9.896,0.19562050633816486,3.166960722648207,2.008771929824561,0,0.25
1757393907.878407,-0.287,-0.413,9.749,0.1959486284718523,2.9531450785300826,2.0158897243107767,0,0.25
1757393907.9059615,-0.287,-0.413,9.749,0.1959486284718523,2.9531450785300826,2.0158897243107767,0,0.25
1757393907.9333038,-0.143,-0.425,9.696,0.1958814628799775,2.647882123182155,2.0228571428571427,0,0.25
1757393907.9610484,-0.143,-0.425,9.696,0.1958814628799775,2.647882123182155,2.0228571428571427,0,0.25
1757393907.987864,-0.245,-0.388,9.912,0.19605536845493418,2.6506267567194683,2.0275689223057642,0,0.25
1757393908.0143733,-0.245,-0.388,9.912,0.19605536845493418,2.6506267567194683,2.0275689223057642,0,0.25
1757393908.0413268,-0.245,-0.388,9.912,0.19605536845493418,2.6506267567194683,2.0275689223057642,0,0.25
1757393908.06869,-0.349,-0.267,9.816,0.19664024893190102,2.5631741916704973,2.0326315789473686,0,0.25
1757393908.0967517,-0.175,-0.184,9.681,0.1966380176873231,1.5025146843843369,2.041052631578947,0,0.25
1757393908.124213,-0.175,-0.184,9.681,0.1966380176873231,1.5025146843843369,2.041052631578947,0,0.25
1757393908.1522205,-0.102,-0.323,9.677,0.1965204060651209,2.0046972489717616,2.0444611528822056,0,0.25
1757393908.1801062,-0.102,-0.323,9.677,0.1965204060651209,2.0046972489717616,2.0444611528822056,0,0.25
1757393908.2088802,-0.096,-0.343,9.659,0.1964058234880015,2.11185765309157,2.044711779448621,0,0.25
1757393908.2363138,-0.096,-0.343,9.659,0.1964058234880015,2.11185765309157,2.044711779448621,0,0.25
1757393908.263021,-0.135,-0.327,9.586,0.19634642853894746,2.113540259520459,2.0462155388471173,0,0.25
1757393908.2914195,-0.135,-0.327,9.586,0.19634642853894746,2.113540259520459,2.0462155388471173,0,0.25
1757393908.3190851,-0.109,-0.496,9.63,0.1962651268055535,3.018682176201362,2.0464661654135337,0,0.25
1757393908.3464775,-0.109,-0.496,9.63,0.1962651268055535,3.018682176201362,2.0464661654135337,0,0.25
1757393908.3737814,-0.086,-0.463,9.678,0.1961944188808642,2.785743413661176,2.0466666666666664,0,0.25
1757393908.4016147,-0.086,-0.463,9.678,0.1961944188808642,2.785743413661176,2.0466666666666664,0,0.25
1757393908.4293478,-0.285,-0.416,9.695,0.196624235535704,2.977423404170894,2.0564411027568923,0,0.25
1757393908.4570076,-0.285,-0.416,9.695,0.196624235535704,2.977423404170894,2.0564411027568923,0,0.25
1757393908.4853036,-0.245,-0.493,9.657,0.1969125440392257,3.262758559840543,2.0576441102756893,0,0.25
1757393908.5125277,-0.245,-0.493,9.657,0.1969125440392257,3.262758559840543,2.0576441102756893,0,0.25
1757393908.5389032,-0.236,-0.65,9.663,0.19719591146877258,4.093302827165086,2.0569924812030074,0,0.25
1757393908.566591,-0.236,-0.65,9.663,0.19719591146877258,4.093302827165086,2.0569924812030074,0,0.25
1757393908.5937276,-0.203,-0.566,9.546,0.19741334174771472,3.6043004802510286,2.058095238095238,0,0.25
1757393908.6210268,-0.203,-0.566,9.546,0.19741334174771472,3.6043004802510286,2.058095238095238,0,0.25
1757393908.6487699,-0.347,-0.531,9.642,0.1981415907880019,3.7639420266810646,2.063859649122807,0,0.25
1757393908.6766255,-0.347,-0.531,9.642,0.1981415907880019,3.7639420266810646,2.063859649122807,0,0.25
1757393908.704882,-0.354,-0.421,9.76,0.19891897219722407,3.2256500361961677,2.0634085213032582,0,0.25
1757393908.732379,-0.354,-0.421,9.76,0.19891897219722407,3.2256500361961677,2.0634085213032582,0,0.25
1757393908.75997,-0.6,-0.195,9.639,0.20116395054780567,3.744784303692719,2.0754385964912276,0,0.25
1757393908.7874298,-0.6,-0.195,9.639,0.20116395054780567,3.744784303692719,2.0754385964912276,0,0.25
1757393908.8146553,-0.436,-0.12,9.654,0.20233500067956606,2.6818865958996754,2.0834586466165415,0,0.25
1757393908.8421097,-0.436,-0.12,9.654,0.20233500067956606,2.6818865958996754,2.0834586466165415,0,0.25
1757393908.8692536,-0.502,-0.238,9.802,0.20388074945908943,3.243958327910815,2.0863659147869673,0,0.25
1757393908.8963883,-0.502,-0.238,9.802,0.20388074945908943,3.243958327910815,2.0863659147869673,0,0.25
1757393908.9232087,-0.557,-0.2,9.725,0.20576578918761007,3.482460622486535,2.088671679197995,0,0.25
1757393908.9513059,-0.557,-0.2,9.725,0.20576578918761007,3.482460622486535,2.088671679197995,0,0.25
1757393908.9788074,-0.442,-0.205,9.699,0.2069364153550554,2.8758157015405907,2.094335839598997,0,0.25
1757393909.0074635,-0.442,-0.205,9.699,0.2069364153550554,2.8758157015405907,2.094335839598997,0,0.25
1757393909.0350666,-0.425,-0.108,9.754,0.20801298637344737,2.574096194666206,2.094285714285714,0,0.25
1757393909.0628815,-0.425,-0.108,9.754,0.20801298637344737,2.574096194666206,2.094285714285714,0,0.25
1757393909.0900412,-0.52,-0.161,9.799,0.20960866513577153,3.179625263730776,2.0989974937343354,0,0.25
1757393909.117328,-0.52,-0.161,9.799,0.20960866513577153,3.179625263730776,2.0989974937343354,0,0.25
1757393909.1439855,-0.384,-0.23,9.718,0.21046408244638798,2.6371818219424896,2.105563909774436,0,0.25
1757393909.1709006,-0.384,-0.23,9.718,0.21046408244638798,2.6371818219424896,2.105563909774436,0,0.25
1757393909.1989832,-0.341,-0.233,9.752,0.2111277871337641,2.4250506963882574,2.107518796992481,0,0.25
1757393909.2264478,-0.341,-0.233,9.752,0.2111277871337641,2.4250506963882574,2.107518796992481,0,0.25
1757393909.253738,-0.516,-0.243,9.813,0.21266953825125026,3.3264260320090173,2.1157894736842104,0,0.25
1757393909.279291,-0.516,-0.243,9.813,0.21266953825125026,3.3264260320090173,2.1157894736842104,0,0.25
1757393909.3049417,-0.449,-0.261,9.732,0.213813785804377,3.0546887246492664,2.118997493734336,0,0.25
1757393909.3304706,-0.449,-0.261,9.732,0.213813785804377,3.0546887246492664,2.118997493734336,0,0.25
1757393909.3565137,-0.417,-0.419,9.818,0.2147934705711512,3.445626030724293,2.1203508771929824,0,0.25
1757393909.3827887,-0.417,-0.419,9.818,0.2147934705711512,3.445626030724293,2.1203508771929824,0,0.25
1757393909.4097168,-0.578,-0.385,9.829,0.21669018205724042,4.041613873155935,2.1279197994987467,0,0.25
1757393909.437382,-0.578,-0.385,9.829,0.21669018205724042,4.041613873155935,2.1279197994987467,0,0.25
1757393909.4639614,-0.459,-0.229,9.671,0.21785356894024022,3.036148855406541,2.1334335839598997,0,0.25
1757393909.4912589,-0.459,-0.229,9.671,0.21785356894024022,3.036148855406541,2.1334335839598997,0,0.25
1757393909.5186517,-0.5,-0.21,9.737,0.21922516963159133,3.187839984926464,2.1350877192982454,0,0.25
1757393909.5458379,-0.5,-0.21,9.737,0.21922516963159133,3.187839984926464,2.1350877192982454,0,0.25
1757393909.5733337,-0.516,-0.131,9.818,0.22067082385308667,3.10375515484308,2.1353383458646618,0,0.25
1757393909.600996,-0.516,-0.131,9.818,0.22067082385308667,3.10375515484308,2.1353383458646618,0,0.25
1757393909.6285567,-0.532,-0.118,9.85,0.222187246483681,3.166533756176255,2.135989974937343,0,0.25
1757393909.6560817,-0.532,-0.118,9.85,0.222187246483681,3.166533756176255,2.135989974937343,0,0.25
1757393909.68349,-0.542,-0.172,9.837,0.22375736859375156,3.3083543081990943,2.136190476190476,0,0.25
1757393909.7109737,-0.542,-0.172,9.837,0.22375736859375156,3.3083543081990943,2.136190476190476,0,0.25
1757393909.738431,-0.472,-0.279,9.904,0.2249144226144691,3.1687024435518043,2.1386967418546363,0,0.25
1757393909.765693,-0.472,-0.279,9.904,0.2249144226144691,3.1687024435518043,2.1386967418546363,0,0.25
1757393909.7931192,-0.411,-0.319,9.789,0.2257380727746208,3.0423247109311897,2.14125313283208,0,0.25
1757393909.8205621,-0.411,-0.319,9.789,0.2257380727746208,3.0423247109311897,2.14125313283208,0,0.25
1757393909.8476005,-0.494,-0.26,9.754,0.22695648261285686,3.275594863372814,2.1448621553884712,0,0.25
1757393909.8748865,-0.494,-0.26,9.754,0.22695648261285686,3.275594863372814,2.1448621553884712,0,0.25
1757393909.9021692,-0.502,-0.289,9.952,0.228192933720569,3.3310795718525363,2.14390977443609,0,0.25
1757393909.9295871,-0.422,-0.233,9.836,0.2289672956996261,2.80575406340212,2.147468671679198,0,0.25
1757393909.9573298,-0.422,-0.233,9.836,0.2289672956996261,2.80575406340212,2.147468671679198,0,0.25
1757393909.9846466,-0.387,-0.201,9.726,0.22956577488815705,2.567252553303216,2.1485714285714286,0,0.25
1757393910.0118618,-0.387,-0.201,9.726,0.22956577488815705,2.567252553303216,2.1485714285714286,0,0.25
1757393910.039256,-0.349,-0.336,9.794,0.2299815753489831,2.831799334480449,2.150275689223057,0,0.25
1757393910.0657442,-0.349,-0.336,9.794,0.2299815753489831,2.831799334480449,2.150275689223057,0,0.25
1757393910.0925999,-0.365,-0.412,9.748,0.23044926773587285,3.2318060001016256,2.150877192982456,0,0.25
1757393910.1200974,-0.365,-0.412,9.748,0.23044926773587285,3.2318060001016256,2.150877192982456,0,0.25
1757393910.147022,-0.318,-0.237,9.669,0.23075149511975,2.3488343283259696,2.1531328320802,0,0.25
1757393910.174522,-0.318,-0.237,9.669,0.23075149511975,2.3488343283259696,2.1531328320802,0,0.25
1757393910.2020392,-0.123,-0.137,9.601,0.23059222124781226,1.0986009570572963,2.162456140350877,0,0.25
1757393910.2297633,-0.123,-0.137,9.601,0.23059222124781226,1.0986009570572963,2.162456140350877,0,0.25
1757393910.2572362,-0.176,-0.286,9.652,0.2304977494467137,1.992649037650315,2.164411027568922,0,0.25
1757393910.2846978,-0.176,-0.286,9.652,0.2304977494467137,1.992649037650315,2.164411027568922,0,0.25
1757393910.3118105,-0.277,-0.356,9.591,0.23068364701469413,2.6926735331282905,2.1688220551378445,0,0.25
1757393910.338385,-0.277,-0.356,9.591,0.23068364701469413,2.6926735331282905,2.1688220551378445,0,0.25
1757393910.3653653,-0.321,-0.396,9.773,0.23098191487646821,2.9858538585734524,2.170676691729323,0,0.25
1757393910.3922813,-0.321,-0.396,9.773,0.23098191487646821,2.9858538585734524,2.170676691729323,0,0.25
1757393910.4196692,-0.404,-0.309,9.875,0.23158798543965964,2.9484761676225135,2.1743358395989976,0,0.25
1757393910.4472558,-0.404,-0.309,9.875,0.23158798543965964,2.9484761676225135,2.1743358395989976,0,0.25
1757393910.4747906,-0.441,-0.266,9.816,0.23238450357112886,3.0033580545908816,2.175739348370927,0,0.25
1757393910.5020359,-0.441,-0.266,9.816,0.23238450357112886,3.0033580545908816,2.175739348370927,0,0.25
1757393910.529356,-0.414,-0.207,9.791,0.23303322724452838,2.706622629689877,2.176842105263158,0,0.25
1757393910.556737,-0.414,-0.207,9.791,0.23303322724452838,2.706622629689877,2.176842105263158,0,0.25
1757393910.5840504,-0.447,-0.191,9.904,0.2338199253699308,2.8098705149666086,2.177844611528822,0,0.25
1757393910.6114247,-0.447,-0.191,9.904,0.2338199253699308,2.8098705149666086,2.177844611528822,0,0.25
1757393910.6373723,-0.605,-0.175,9.921,0.23551878375195467,3.632357097533095,2.1849122807017545,0,0.25
1757393910.6645825,-0.605,-0.175,9.921,0.23551878375195467,3.632357097533095,2.1849122807017545,0,0.25
1757393910.692297,-0.584,-0.053,9.774,0.23711123444493304,3.4333969202980836,2.18531328320802,0,0.25
1757393910.720103,-0.584,-0.053,9.774,0.23711123444493304,3.4333969202980836,2.18531328320802,0,0.25
1757393910.7477636,-0.554,-0.124,9.808,0.2385405730688178,3.312703980866488,2.186315789473684,0,0.25
1757393910.7757607,-0.554,-0.124,9.808,0.2385405730688178,3.312703980866488,2.186315789473684,0,0.25
1757393910.8032477,-0.598,-0.218,9.867,0.2402442351025306,3.690900330149121,2.188270676691729,0,0.25
1757393910.830738,-0.598,-0.218,9.867,0.2402442351025306,3.690900330149121,2.188270676691729,0,0.25
1757393910.8581398,-0.427,-0.053,9.517,0.2410376630321494,2.5886581316257744,2.196491228070175,0,0.25
1757393910.885913,-0.427,-0.053,9.517,0.2410376630321494,2.5886581316257744,2.196491228070175,0,0.25
1757393910.9131265,-0.316,-0.191,9.746,0.24141402714009805,2.1696787301673344,2.201804511278195,0,0.25
1757393910.9405956,-0.316,-0.191,9.746,0.24141402714009805,2.1696787301673344,2.201804511278195,0,0.25
1757393910.9679213,-0.426,-0.276,9.85,0.24221978139697842,2.949980644753157,2.202807017543859,0,0.25
1757393910.993564,-0.426,-0.276,9.85,0.24221978139697842,2.949980644753157,2.202807017543859,0,0.25
1757393911.0204813,-0.539,-0.177,9.697,0.24368930013441298,3.3482450007347526,2.1993984962406015,0,0.25
1757393911.0472753,-0.539,-0.177,9.697,0.24368930013441298,3.3482450007347526,2.1993984962406015,0,0.25
1757393911.0746639,-0.63,-0.3,9.887,0.24565407079875554,4.036997432687848,2.198646616541353,0,0.25
1757393911.1016781,-0.63,-0.3,9.887,0.24565407079875554,4.036997432687848,2.198646616541353,0,0.25
1757393911.1281013,-0.438,-0.305,9.988,0.2466282019558996,3.0588193104040258,2.2029573934837092,0,0.25
1757393911.1551104,-0.438,-0.305,9.988,0.2466282019558996,3.0588193104040258,2.2029573934837092,0,0.25
1757393911.1818793,-0.708,-0.259,9.83,0.24910465170285362,4.385567818271788,2.2115288220551377,0,0.25
1757393911.2095447,-0.708,-0.259,9.83,0.24910465170285362,4.385567818271788,2.2115288220551377,0,0.25
1757393911.2373178,-0.558,-0.308,9.896,0.25046264691566283,3.685092970372689,2.2184962406015036,0,0.25
1757393911.2652564,-0.558,-0.308,9.896,0.25046264691566283,3.685092970372689,2.2184962406015036,0,0.25
1757393911.2932096,-0.546,-0.266,9.869,0.25176879274445435,3.5215994626376173,2.218295739348371,0,0.25
1757393911.320673,-0.546,-0.266,9.869,0.25176879274445435,3.5215994626376173,2.218295739348371,0,0.25
1757393911.348078,-0.464,-0.286,9.671,0.25268744032895657,3.225800573594418,2.1881704260651627,0,0.25
1757393911.375286,-0.464,-0.286,9.671,0.25268744032895657,3.225800573594418,2.1881704260651627,0,0.25
1757393911.4030948,-0.51,-0.282,9.805,0.25268744032895657,3.4014461157049105,2.136240601503759,0,0.25
1757393911.4312174,-0.51,-0.282,9.805,0.25268744032895657,3.4014461157049105,2.136240601503759,0,0.25
1757393911.4585187,-0.419,-0.287,9.786,0.2519362717037783,2.9708375409591974,2.1206516290726816,0,0.25
1757393911.4857965,-0.419,-0.287,9.786,0.2519362717037783,2.9708375409591974,2.1206516290726816,0,0.25
1757393911.5136187,-0.395,-0.305,9.752,0.25256622398887785,2.929500220250553,2.1177443609022557,0,0.25
1757393911.541256,-0.395,-0.305,9.752,0.25256622398887785,2.929500220250553,2.1177443609022557,0,0.25
1757393911.5688426,-0.372,-0.271,9.775,0.25321196160529225,2.69571425004853,2.1039598997493734,0,0.25
1757393911.5963688,-0.372,-0.271,9.775,0.25321196160529225,2.69571425004853,2.1039598997493734,0,0.25
1757393911.622504,-0.308,-0.306,9.796,0.2534624380455613,2.537729975231377,2.089172932330827,0,0.25
1757393911.6487682,-0.308,-0.306,9.796,0.2534624380455613,2.537729975231377,2.089172932330827,0,0.25
1757393911.6759434,-0.335,-0.223,9.84,0.2524170507315225,2.341970443606557,2.088972431077694,0,0.25
1757393911.702677,-0.335,-0.223,9.84,0.2524170507315225,2.341970443606557,2.088972431077694,0,0.25
1757393911.7292898,-0.382,-0.325,10.094,0.2517053187757462,2.8445502339230946,2.071127819548872,0,0.25
1757393911.7565517,-0.382,-0.325,10.094,0.2517053187757462,2.8445502339230946,2.071127819548872,0,0.25
1757393911.7831142,-0.38,-0.288,10.053,0.25233114155807246,2.7154597025407035,2.0698245614035087,0,0.25
1757393911.8105826,-0.38,-0.288,10.053,0.25233114155807246,2.7154597025407035,2.0698245614035087,0,0.25
1757393911.837787,-0.396,-0.367,10.06,0.2529755373548992,3.0720706377290354,2.066817042606516,0,0.05
1757393911.8640547,-0.396,-0.367,10.06,0.2529755373548992,3.0720706377290354,2.066817042606516,0,0.05
1757393911.8916104,-0.396,-0.338,10.01,0.25371192325154923,2.977351532438399,2.0601002506265664,0,0.05
1757393911.9189289,-0.396,-0.338,10.01,0.25371192325154923,2.977351532438399,2.0601002506265664,0,0.05
1757393911.945624,-0.406,-0.34,9.861,0.2545119005076187,3.073983824770455,2.0524812030075186,0,0.05
1757393911.9723673,-0.406,-0.34,9.861,0.2545119005076187,3.073983824770455,2.0524812030075186,0,0.05
1757393911.9991221,-0.259,-0.275,9.892,0.25477626949933935,2.186999334464075,2.05453634085213,0,0.05
1757393912.027411,-0.259,-0.275,9.892,0.25477626949933935,2.186999334464075,2.05453634085213,0,0.05
1757393912.0549083,-0.338,-0.33,9.818,0.255335769135466,2.754592913070242,2.0548370927318294,0,0.05
1757393912.0826323,-0.338,-0.33,9.818,0.255335769135466,2.754592913070242,2.0548370927318294,0,0.05
1757393912.1102736,-0.348,-0.368,9.77,0.2558951054631565,2.96761020388143,2.0536842105263156,0,0.05
1757393912.1378016,-0.348,-0.368,9.77,0.2558951054631565,2.96761020388143,2.0536842105263156,0,0.05
1757393912.16451,-0.402,-0.477,9.893,0.2566188857040728,3.6080210653997704,2.05203007518797,0,0.05
1757393912.1915936,-0.402,-0.477,9.893,0.2566188857040728,3.6080210653997704,2.05203007518797,0,0.05
1757393912.218901,-0.471,-0.425,10.09,0.25769341279900815,3.597698466584034,2.05483709273183,0,0.05
1757393912.24514,-0.471,-0.425,10.09,0.25769341279900815,3.597698466584034,2.05483709273183,0,0.05
1757393912.2724857,-0.372,-0.331,9.81,0.2583556705396651,2.9057533195770127,2.0549874686716794,0,0.05
1757393912.300639,-0.372,-0.331,9.81,0.2583556705396651,2.9057533195770127,2.0549874686716794,0,0.05
1757393912.3286932,-0.242,-0.342,9.807,0.25862424480315066,2.4462208608299143,2.0612531328320802,0,0.05
1757393912.356246,-0.242,-0.342,9.807,0.25862424480315066,2.4462208608299143,2.0612531328320802,0,0.05
1757393912.382006,-0.402,-0.38,9.855,0.2593867961173043,3.2127287478208113,2.0665664160401,0,0.05
1757393912.4083996,-0.402,-0.38,9.855,0.2593867961173043,3.2127287478208113,2.0665664160401,0,0.05
1757393912.4357889,-0.421,-0.219,9.693,0.26023935617043015,2.8028761594669227,2.062857142857143,0,0.05
1757393912.4634194,-0.421,-0.219,9.693,0.26023935617043015,2.8028761594669227,2.062857142857143,0,0.05
1757393912.4913883,-0.394,-0.336,9.851,0.2609476767476576,3.0089649125221545,2.056892230576441,0,0.05
1757393912.5187843,-0.394,-0.336,9.851,0.2609476767476576,3.0089649125221545,2.056892230576441,0,0.05
1757393912.5463097,-0.539,-0.312,9.923,0.26231906144998307,3.5912915852645075,2.0620551378446117,0,0.05
1757393912.5737503,-0.539,-0.312,9.923,0.26231906144998307,3.5912915852645075,2.0620551378446117,0,0.05
1757393912.6005502,-0.418,-0.303,9.664,0.26314896446689656,3.0579372701645138,2.063458646616541,0,0.05
1757393912.6278892,-0.418,-0.303,9.664,0.26314896446689656,3.0579372701645138,2.063458646616541,0,0.05
1757393912.6559088,-0.32,-0.346,9.65,0.26357755500042107,2.796020195397472,2.0671679197994988,0,0.05
1757393912.683354,-0.32,-0.346,9.65,0.26357755500042107,2.796020195397472,2.0671679197994988,0,0.05
1757393912.7100806,-0.32,-0.423,9.796,0.26397772159786514,3.0992545029417857,2.0658145363408518,0,0.05
1757393912.736841,-0.32,-0.423,9.796,0.26397772159786514,3.0992545029417857,2.0658145363408518,0,0.05
1757393912.7640464,-0.327,-0.437,9.67,0.26436103627425883,3.230497429629659,2.065363408521303,0,0.05
1757393912.7918067,-0.327,-0.437,9.67,0.26436103627425883,3.230497429629659,2.065363408521303,0,0.05
1757393912.8191376,-0.38,-0.422,9.614,0.26489513963076033,3.380401450318109,2.0666165413533832,0,0.05
1757393912.84675,-0.358,-0.318,9.855,0.26530130512306194,2.7817317546885345,2.0660651629072677,0,0.05
1757393912.8734882,-0.358,-0.318,9.855,0.26530130512306194,2.7817317546885345,2.0660651629072677,0,0.05
1757393912.8999064,-0.358,-0.318,9.855,0.26530130512306194,2.7817317546885345,2.0660651629072677,0,0.05
1757393912.927615,-0.413,-0.168,9.75,0.2659647439041498,2.618280100056575,2.06265664160401,0,0.05
1757393912.9552631,-0.413,-0.168,9.75,0.2659647439041498,2.618280100056575,2.06265664160401,0,0.05
1757393912.981607,-0.412,-0.187,9.573,0.2667500749765593,2.705977730072951,2.055739348370927,0,0.05
1757393913.0087523,-0.412,-0.187,9.573,0.2667500749765593,2.705977730072951,2.055739348370927,0,0.05
1757393913.0363998,-0.231,-0.31,9.686,0.266834489899638,2.2856600941081706,2.0638095238095233,0,0.05
1757393913.0639884,-0.389,-0.325,9.85,0.2674105224182474,2.9459433360581606,2.071077694235589,0,0.05
1757393913.091519,-0.389,-0.325,9.85,0.2674105224182474,2.9459433360581606,2.071077694235589,0,0.05
1757393913.1187901,-0.323,-0.31,9.734,0.2677856372175326,2.6333320532722735,2.0733333333333333,0,0.05
1757393913.145761,-0.323,-0.31,9.734,0.2677856372175326,2.6333320532722735,2.0733333333333333,0,0.05
1757393913.1732128,-0.364,-0.308,9.812,0.26831976725541484,2.782150386638979,2.069022556390977,0,0.05
1757393913.2009435,-0.364,-0.308,9.812,0.26831976725541484,2.782150386638979,2.069022556390977,0,0.05
1757393913.2270906,-0.358,-0.387,9.914,0.2685993391652332,3.043931789555886,2.065764411027569,0,0.05
1757393913.2545164,-0.358,-0.387,9.914,0.2685993391652332,3.043931789555886,2.065764411027569,0,0.05
1757393913.281565,-0.355,-0.353,9.798,0.26867286334872004,2.9250121351947067,2.053734335839599,0,0.05
1757393913.3092349,-0.355,-0.353,9.798,0.26867286334872004,2.9250121351947067,2.053734335839599,0,0.05
1757393913.336739,-0.454,-0.246,9.835,0.269593388272042,3.005424551264484,2.0568922305764414,0,0.05
1757393913.3638215,-0.454,-0.246,9.835,0.269593388272042,3.005424551264484,2.0568922305764414,0,0.05
1757393913.3912532,-0.29,-0.379,9.725,0.2699106935636304,2.8093470918432972,2.051779448621554,0,0.05
1757393913.4183197,-0.29,-0.379,9.725,0.2699106935636304,2.8093470918432972,2.051779448621554,0,0.05
1757393913.4451275,-0.382,-0.336,9.669,0.2698784726501912,3.01189408944098,2.042456140350877,0,0.05
1757393913.4724245,-0.382,-0.336,9.669,0.2698784726501912,3.01189408944098,2.042456140350877,0,0.05
1757393913.4990935,-0.494,-0.316,9.718,0.2709475179808813,3.453269378292614,2.045714285714286,0,0.05
1757393913.5263314,-0.494,-0.316,9.718,0.2709475179808813,3.453269378292614,2.045714285714286,0,0.05
1757393913.554077,-0.676,-0.233,9.855,0.2729303894768774,4.149814619482811,2.0461152882205513,0,0.05
1757393913.5827968,-0.676,-0.233,9.855,0.2729303894768774,4.149814619482811,2.0461152882205513,0,0.05
1757393913.6101148,-0.531,-0.168,9.847,0.2737097184975353,3.2371783713166793,2.042957393483709,0,0.05
1757393913.6368568,-0.531,-0.168,9.847,0.2737097184975353,3.2371783713166793,2.042957393483709,0,0.05
1757393913.6641743,-0.396,-0.041,9.655,0.2743526198161775,2.361211665381866,2.0427568922305763,0,0.05
1757393913.6919065,-0.396,-0.041,9.655,0.2743526198161775,2.361211665381866,2.0427568922305763,0,0.05
1757393913.7197497,-0.417,-0.105,9.866,0.27514298101169143,2.495695711039392,2.0250125313283207,0,0.05
1757393913.7462163,-0.417,-0.105,9.866,0.27514298101169143,2.495695711039392,2.0250125313283207,0,0.05
1757393913.7736838,-0.244,-0.142,9.869,0.2748179215407903,1.6385519878727592,2.0252631578947367,0,0.05
1757393913.7999969,-0.244,-0.142,9.869,0.2748179215407903,1.6385519878727592,2.0252631578947367,0,0.05
1757393913.8282554,-0.296,-0.111,9.591,0.27504515992832884,1.8878378703143794,2.0255639097744362,0,0.05
1757393913.8561964,-0.296,-0.111,9.591,0.27504515992832884,1.8878378703143794,2.0255639097744362,0,0.05
1757393913.8847926,-0.398,-0.383,9.752,0.2756648145846691,3.241763208513659,2.0233583959899746,0,0.05
1757393913.91256,-0.398,-0.383,9.752,0.2756648145846691,3.241763208513659,2.0233583959899746,0,0.05
1757393913.940643,-0.356,-0.337,9.87,0.2758474940977351,2.8433489587255973,2.02531328320802,0,0.05
1757393913.9681318,-0.356,-0.337,9.87,0.2758474940977351,2.8433489587255973,2.02531328320802,0,0.05
1757393913.993509,-0.369,-0.271,9.767,0.2760647025608309,2.6837458043452957,2.0209022556390974,0,0.05
1757393914.0202253,-0.369,-0.271,9.767,0.2760647025608309,2.6837458043452957,2.0209022556390974,0,0.05
1757393914.0482233,-0.376,-0.185,9.745,0.27653050464641327,2.4622764374228985,2.018646616541353,0,0.05
1757393914.0746658,-0.376,-0.185,9.745,0.27653050464641327,2.4622764374228985,2.018646616541353,0,0.05
1757393914.1026964,-0.269,-0.178,9.904,0.276763766595268,1.8653877648154704,2.016791979949874,0,0.05
1757393914.130279,-0.269,-0.178,9.904,0.276763766595268,1.8653877648154704,2.016791979949874,0,0.05
1757393914.1569476,-0.347,-0.199,9.713,0.27693292509197964,2.358291345419,2.0143358395989974,0,0.05
1757393914.183834,-0.347,-0.199,9.713,0.27693292509197964,2.358291345419,2.0143358395989974,0,0.05
1757393914.211126,-0.271,-0.271,9.577,0.2771473344630974,2.2916366686117993,2.01453634085213,0,0.05
1757393914.2374616,-0.271,-0.271,9.577,0.2771473344630974,2.2916366686117993,2.01453634085213,0,0.05
1757393914.2647986,-0.349,-0.182,9.839,0.2776604851252695,2.2908724419125805,2.0170927318295737,0,0.05
1757393914.2919688,-0.349,-0.182,9.839,0.2776604851252695,2.2908724419125805,2.0170927318295737,0,0.05
1757393914.319515,-0.198,-0.158,9.776,0.27777637588535137,1.4843062666942712,2.0239598997493733,0,0.05
1757393914.3471186,-0.198,-0.158,9.776,0.27777637588535137,1.4843062666942712,2.0239598997493733,0,0.05
1757393914.3746092,-0.206,-0.261,9.579,0.2779204832321648,1.9880222823783822,2.0194987468671677,0,0.05
1757393914.4014173,-0.206,-0.261,9.579,0.2779204832321648,1.9880222823783822,2.0194987468671677,0,0.05
1757393914.4290261,-0.344,-0.51,9.839,0.2784521009078581,3.5776918515134946,2.0166917293233078,0,0.05
1757393914.4565983,-0.344,-0.51,9.839,0.2784521009078581,3.5776918515134946,2.0166917293233078,0,0.05
1757393914.4834964,-0.327,-0.386,9.924,0.2787541793408666,2.9182095208826833,2.017543859649123,0,0.05
1757393914.510839,-0.327,-0.386,9.924,0.2787541793408666,2.9182095208826833,2.017543859649123,0,0.05
1757393914.5363286,-0.325,-0.382,9.751,0.2790500895896649,2.9444366985580106,2.0102756892230573,0,0.05
1757393914.5639768,-0.325,-0.382,9.751,0.2790500895896649,2.9444366985580106,2.0102756892230573,0,0.05
1757393914.5914836,-0.357,-0.562,9.827,0.27960832426807325,3.8760012207950605,2.009022556390977,0,0.05
1757393914.6186786,-0.357,-0.562,9.827,0.27960832426807325,3.8760012207950605,2.009022556390977,0,0.05
1757393914.6461763,-0.225,-0.421,9.946,0.2797814772282111,2.747772753202693,2.0121804511278194,0,0.05
1757393914.6731997,-0.225,-0.421,9.946,0.2797814772282111,2.747772753202693,2.0121804511278194,0,0.05
1757393914.7003329,-0.268,-0.286,9.577,0.28009504636819266,2.3435527570721337,2.009974937343358,0,0.05
1757393914.7280967,-0.268,-0.286,9.577,0.28009504636819266,2.3435527570721337,2.009974937343358,0,0.05
1757393914.7553818,-0.392,-0.304,9.766,0.2807081625104621,2.9078431396583357,2.014436090225564,0,0.05
1757393914.7817633,-0.392,-0.304,9.766,0.2807081625104621,2.9078431396583357,2.014436090225564,0,0.05
1757393914.8095045,-0.243,-0.404,9.826,0.2809333283894953,2.7469356549540747,2.017944862155388,0,0.05
1757393914.83721,-0.243,-0.404,9.826,0.2809333283894953,2.7469356549540747,2.017944862155388,0,0.05
1757393914.86531,-0.316,-0.362,9.587,0.281247351098637,2.869383423387968,2.0169924812030073,0,0.05
1757393914.8930163,-0.316,-0.362,9.587,0.281247351098637,2.869383423387968,2.0169924812030073,0,0.05
1757393914.9206219,-0.234,-0.538,9.634,0.2811832854207376,3.4848607156198526,2.021052631578947,0,0.05
1757393914.948431,-0.234,-0.538,9.634,0.2811832854207376,3.4848607156198526,2.021052631578947,0,0.05
1757393914.9760115,-0.45,-0.44,9.908,0.2817730469722042,3.6345944808743447,2.0196491228070177,0,0.05
1757393915.0035644,-0.45,-0.44,9.908,0.2817730469722042,3.6345944808743447,2.0196491228070177,0,0.05
1757393915.0307064,-0.351,-0.251,9.811,0.2823172904729712,2.518382665638524,2.0149874686716793,0,0.05
1757393915.0582843,-0.351,-0.251,9.811,0.2823172904729712,2.518382665638524,2.0149874686716793,0,0.05
1757393915.0850117,-0.4,-0.14,9.667,0.2828262585051112,2.510187097484915,2.015288220551378,0,0.05
1757393915.112013,-0.4,-0.14,9.667,0.2828262585051112,2.510187097484915,2.015288220551378,0,0.05
1757393915.139803,-0.45,-0.282,9.848,0.28359397031671885,3.086719632277325,2.0127318295739345,0,0.05
1757393915.1672175,-0.45,-0.282,9.848,0.28359397031671885,3.086719632277325,2.0127318295739345,0,0.05
1757393915.1944945,-0.291,-0.236,9.674,0.28394661910295743,2.217928416898381,2.017543859649123,0,0.05
1757393915.2211676,-0.291,-0.236,9.674,0.28394661910295743,2.217928416898381,2.017543859649123,0,0.05
1757393915.2483194,-0.354,-0.17,9.616,0.2844223444105614,2.338576775525789,2.015538847117794,0,0.05
1757393915.2758646,-0.354,-0.17,9.616,0.2844223444105614,2.338576775525789,2.015538847117794,0,0.05
1757393915.303585,-0.452,-0.073,9.807,0.2853153868966762,2.6730128245745575,2.017293233082707,0,0.05
1757393915.3315833,-0.518,-0.153,9.887,0.2864831888610569,3.12693892955032,2.0179448621553884,0,0.05
1757393915.3582864,-0.518,-0.153,9.887,0.2864831888610569,3.12693892955032,2.0179448621553884,0,0.05
1757393915.385893,-0.518,-0.153,9.887,0.2864831888610569,3.12693892955032,2.0179448621553884,0,0.05
1757393915.4134078,-0.46,-0.099,9.703,0.28740356208648493,2.776299432718088,2.020802005012531,0,0.05
1757393915.4418025,-0.407,-0.222,9.851,0.28812154987088345,2.6944711624015483,2.0219548872180453,0,0.05
1757393915.4697027,-0.407,-0.222,9.851,0.28812154987088345,2.6944711624015483,2.0219548872180453,0,0.05
1757393915.4963744,-0.412,-0.099,10.034,0.2888565128225431,2.4181165704479173,2.0162907268170427,0,0.05
1757393915.5241737,-0.412,-0.099,10.034,0.2888565128225431,2.4181165704479173,2.0162907268170427,0,0.05
1757393915.552247,-0.367,-0.073,9.722,0.28938933117860444,2.2041676974739843,2.013934837092732,0,0.05
1757393915.5788803,-0.367,-0.073,9.722,0.28938933117860444,2.2041676974739843,2.013934837092732,0,0.05
1757393915.606647,-0.512,-0.172,9.891,0.2905184718739929,3.125650145810662,2.0180451127819548,0,0.05
1757393915.634446,-0.512,-0.172,9.891,0.2905184718739929,3.125650145810662,2.0180451127819548,0,0.05
1757393915.661981,-0.439,-0.163,9.976,0.29132039921708197,2.6875523086197055,2.019548872180451,0,0.05
1757393915.6899896,-0.439,-0.163,9.976,0.29132039921708197,2.6875523086197055,2.019548872180451,0,0.05
1757393915.7181199,-0.569,-0.177,9.87,0.29264376808673037,3.4549984470428354,2.022055137844611,0,0.05
1757393915.745055,-0.569,-0.177,9.87,0.29264376808673037,3.4549984470428354,2.022055137844611,0,0.05
1757393915.7723124,-0.356,-0.172,9.658,0.2930123077619778,2.344230292185965,2.0194486215538845,0,0.05
1757393915.7998025,-0.356,-0.172,9.658,0.2930123077619778,2.344230292185965,2.0194486215538845,0,0.05
1757393915.82726,-0.441,-0.219,9.904,0.2938233738149502,2.846154717494966,2.0201503759398496,0,0.05
1757393915.853903,-0.441,-0.219,9.904,0.2938233738149502,2.846154717494966,2.0201503759398496,0,0.05
1757393915.8809292,-0.392,-0.107,9.78,0.29447616626817186,2.379165745145828,2.0221553884711776,0,0.05
1757393915.9080904,-0.392,-0.107,9.78,0.29447616626817186,2.379165745145828,2.0221553884711776,0,0.05
1757393915.9340398,-0.515,-0.136,9.647,0.2955987736781058,3.1603511494301286,2.0237092731829573,0,0.05
1757393915.9615612,-0.515,-0.136,9.647,0.2955987736781058,3.1603511494301286,2.0237092731829573,0,0.05
1757393915.987998,-0.345,-0.219,9.866,0.2960772829853719,2.3717744616095646,2.0276190476190474,0,0.05
1757393916.0147407,-0.345,-0.219,9.866,0.2960772829853719,2.3717744616095646,2.0276190476190474,0,0.05
1757393916.0408034,-0.528,-0.207,9.891,0.2972508662729177,3.281613863991759,2.034235588972431,0,0.05
1757393916.0684202,-0.528,-0.207,9.891,0.2972508662729177,3.281613863991759,2.034235588972431,0,0.05
1757393916.0952194,-0.653,-0.296,9.799,0.29903350564777853,4.184656548023681,2.039097744360902,0,0.05
1757393916.1227024,-0.653,-0.296,9.799,0.29903350564777853,4.184656548023681,2.039097744360902,0,0.05
1757393916.150114,-0.405,-0.206,9.806,0.29970181430882264,2.6530120319722688,2.049874686716792,0,0.05
1757393916.1782324,-0.405,-0.206,9.806,0.29970181430882264,2.6530120319722688,2.049874686716792,0,0.05
1757393916.2066097,-0.613,-0.115,10.051,0.3012612653495301,3.550817179566516,2.056691729323308,0,0.05
1757393916.2349632,-0.613,-0.115,10.051,0.3012612653495301,3.550817179566516,2.056691729323308,0,0.05
1757393916.262934,-0.444,-0.205,9.872,0.302070819510922,2.8360101828757984,2.062105263157895,0,0.05
1757393916.2912579,-0.444,-0.205,9.872,0.302070819510922,2.8360101828757984,2.062105263157895,0,0.05
1757393916.3192978,-0.677,-0.267,10.052,0.3039600302671389,4.14089721141381,2.0610526315789475,0,0.05
1757393916.3464592,-0.677,-0.267,10.052,0.3039600302671389,4.14089721141381,2.0610526315789475,0,0.05
1757393916.3735373,-0.394,-0.359,10.066,0.3042917473412646,3.031160153965622,2.0671679197994988,0,0.05
1757393916.4012232,-0.394,-0.359,10.066,0.3042917473412646,3.031160153965622,2.0671679197994988,0,0.05
1757393916.4287488,-0.56,-0.237,9.991,0.30552595225283236,3.4829201784033366,2.0697744360902255,0,0.05
1757393916.4562573,-0.56,-0.237,9.991,0.30552595225283236,3.4829201784033366,2.0697744360902255,0,0.05
1757393916.4830897,-0.544,-0.17,9.965,0.3065261122645182,3.2734410094914685,2.065764411027569,0,0.05
1757393916.5104105,-0.544,-0.17,9.965,0.3065261122645182,3.2734410094914685,2.065764411027569,0,0.05
1757393916.5382085,-0.377,-0.209,10.053,0.30703636592429895,2.455249009801968,2.0675689223057643,0,0.05
1757393916.5656335,-0.377,-0.209,10.053,0.30703636592429895,2.455249009801968,2.0675689223057643,0,0.05
1757393916.5933578,-0.394,-0.303,9.959,0.30766770630015755,2.8571611611625047,2.060651629072682,0,0.05
1757393916.6202617,-0.394,-0.303,9.959,0.30766770630015755,2.8571611611625047,2.060651629072682,0,0.05
1757393916.6476154,-0.477,-0.232,9.913,0.3084946514933444,3.0628754295554717,2.062706766917293,0,0.05
1757393916.6746728,-0.477,-0.232,9.913,0.3084946514933444,3.0628754295554717,2.062706766917293,0,0.05
1757393916.7023175,-0.428,-0.225,9.876,0.3091853004267829,2.803015486586527,2.061002506265664,0,0.05
1757393916.7295167,-0.428,-0.225,9.876,0.3091853004267829,2.803015486586527,2.061002506265664,0,0.05
1757393916.756052,-0.428,-0.225,9.876,0.3091853004267829,2.803015486586527,2.061002506265664,0,0.05
1757393916.78346,-0.392,-0.275,9.932,0.3098025298476434,2.76020526245249,2.0594987468671677,0,0.05
1757393916.8109262,-0.347,-0.255,9.753,0.31025161965733555,2.528116698883005,2.0562406015037595,0,0.05
1757393916.8385048,-0.347,-0.255,9.753,0.31025161965733555,2.528116698883005,2.0562406015037595,0,0.05
1757393916.86609,-0.547,-0.05,9.849,0.31128608626149673,3.192088838005064,2.0483208020050125,0,0.05
1757393916.8936584,-0.547,-0.05,9.849,0.31128608626149673,3.192088838005064,2.0483208020050125,0,0.05
1757393916.920452,-0.292,-0.045,9.824,0.3115343721004153,1.7225948994863578,2.0570426065162906,0,0.05
1757393916.947997,-0.292,-0.045,9.824,0.3115343721004153,1.7225948994863578,2.0570426065162906,0,0.05
1757393916.974637,-0.426,-0.204,9.549,0.312240924607906,2.8317370727492803,2.0542355889724306,0,0.05
1757393917.0020835,-0.426,-0.204,9.549,0.312240924607906,2.8317370727492803,2.0542355889724306,0,0.05
1757393917.0296729,-0.41,-0.039,9.772,0.3128575314739922,2.4133595973687343,2.039749373433584,0,0.05
1757393917.0564942,-0.41,-0.039,9.772,0.3128575314739922,2.4133595973687343,2.039749373433584,0,0.05
1757393917.084247,-0.244,0.097,9.822,0.31295567178116457,1.5313366055440565,2.042406015037594,0,0.05
1757393917.110963,-0.244,0.097,9.822,0.31295567178116457,1.5313366055440565,2.042406015037594,0,0.05
1757393917.1384847,-0.501,-0.002,9.692,0.31393481011190844,2.959129910723836,2.0501253132832082,0,0.05
1757393917.1659052,-0.501,-0.002,9.692,0.31393481011190844,2.959129910723836,2.0501253132832082,0,0.05
1757393917.1931884,-0.341,-0.121,9.824,0.31439412367281927,2.1093290250081425,2.052731829573935,0,0.05
1757393917.219906,-0.341,-0.121,9.824,0.31439412367281927,2.1093290250081425,2.052731829573935,0,0.05
1757393917.2465844,-0.352,-0.079,9.825,0.3148615926085619,2.1028522312393796,2.048070175438596,0,0.05
1757393917.273394,-0.352,-0.079,9.825,0.3148615926085619,2.1028522312393796,2.048070175438596,0,0.05
1757393917.300967,-0.406,0.021,9.809,0.3153826089054373,2.3733162994821697,2.04265664160401,0,0.05
1757393917.3286679,-0.362,-0.129,9.824,0.31589982193727173,2.240170604067399,2.0429573934837095,0,0.05
1757393917.35603,-0.362,-0.129,9.824,0.31589982193727173,2.240170604067399,2.0429573934837095,0,0.05
1757393917.383455,-0.345,-0.094,9.911,0.31635669346482936,2.066264307699781,2.0417543859649125,0,0.05
1757393917.4104142,-0.345,-0.094,9.911,0.31635669346482936,2.066264307699781,2.0417543859649125,0,0.05
1757393917.4370475,-0.366,0.046,9.852,0.3168460943423479,2.144271578984406,2.039047619047619,0,0.05
1757393917.464536,-0.366,0.046,9.852,0.3168460943423479,2.144271578984406,2.039047619047619,0,0.05
1757393917.492143,-0.388,0.06,9.748,0.3173188380793047,2.306405985175877,2.0360401002506268,0,0.05
1757393917.5196416,-0.388,0.06,9.748,0.3173188380793047,2.306405985175877,2.0360401002506268,0,0.05
1757393917.5476995,-0.427,-0.115,9.805,0.3180022720044623,2.5823445039742303,2.0338345864661656,0,0.05
