timestamp,ax,ay,az,rms,tilt_now,jerk,tilt_crosses,freq
1757394343.0255275,-0.465,-0.386,9.718,0.02325,3.5584814225608263,0.02330827067669173,0,2.1
1757394343.0527782,-0.452,-0.384,9.724,0.03242410368845992,3.490303820900125,0.023959899749373435,0,0.05
1757394343.0798948,-0.457,-0.389,9.724,0.03966667366946717,3.5316767031730527,0.024210526315789474,0,0.05
1757394343.1059508,-0.456,-0.385,9.73,0.045752431629368075,3.5098556152874867,0.02426065162907268,0,0.05
1757394343.1339169,-0.448,-0.402,9.717,0.05094158419209203,3.544661943523121,0.024661654135338346,0,0.05
1757394343.1610317,-0.446,-0.401,9.72,0.055608767294375444,3.5309094368056972,0.02476190476190476,0,0.05
1757394343.1867816,-0.443,-0.401,9.727,0.05985781068498914,3.5153034686380473,0.024912280701754386,0,0.05
1757394343.2119653,-0.444,-0.403,9.745,0.06384197287051835,3.521034026085451,0.024962406015037592,0,0.05
1757394343.2370834,-0.443,-0.399,9.752,0.06757529134232423,3.4984687786241153,0.0250125313283208,0,0.05
1757394343.2625122,-0.438,-0.404,9.759,0.07103541370330717,3.4940519393377367,0.025263157894736838,0,0.05
1757394343.288221,-0.435,-0.408,9.747,0.07429059496329263,3.5014325967369886,0.025413533834586464,0,0.05
1757394343.3134305,-0.44,-0.401,9.733,0.07747962635428748,3.500117886349987,0.02566416040100251,0,0.05
1757394343.3390894,-0.438,-0.406,9.747,0.08051523147827372,3.5062947957520514,0.025764411027568924,0,0.05
1757394343.3644032,-0.428,-0.394,9.745,0.0833106385763547,3.4162819509526585,0.026265664160401003,0,0.05
1757394343.3896356,-0.424,-0.395,9.728,0.08596570537138633,3.4090012852835243,0.026466165413533835,0,0.05
1757394343.41487,-0.412,-0.392,9.719,0.08839944852769162,3.3487406846520043,0.027067669172932334,0,0.05
1757394343.4403262,-0.412,-0.392,9.719,0.08839944852769162,3.3487406846520043,0.027067669172932334,0,0.05
1757394343.4654858,-0.405,-0.395,9.719,0.09068916693850484,3.3313494095359526,0.027418546365914787,0,0.05
1757394343.4902651,-0.405,-0.395,9.719,0.09068916693850484,3.3313494095359526,0.027418546365914787,0,0.05
1757394343.5150685,-0.385,-0.407,9.726,0.0927096947465582,3.296752819060938,0.028421052631578948,0,0.05
1757394343.5400708,-0.385,-0.407,9.726,0.0927096947465582,3.296752819060938,0.028421052631578948,0,0.05
1757394343.565319,-0.386,-0.411,9.72,0.09469729404792937,3.3199139162105165,0.028471177944862154,0,0.05
1757394343.5905094,-0.386,-0.411,9.72,0.09469729404792937,3.3199139162105165,0.028471177944862154,0,0.05
1757394343.6156926,-0.387,-0.406,9.719,0.09665402216152207,3.3029530566640806,0.02852130325814536,0,0.05
1757394343.641,-0.387,-0.406,9.719,0.09665402216152207,3.3029530566640806,0.02852130325814536,0,0.05
1757394343.6660326,-0.366,-0.412,9.725,0.0983711848053077,3.24333043211486,0.029573934837092728,0,0.05
1757394343.6918325,-0.366,-0.412,9.725,0.0983711848053077,3.24333043211486,0.029573934837092728,0,0.05
1757394343.7171254,-0.348,-0.413,9.733,0.0998981981819492,3.1759882943198416,0.030476190476190476,0,0.05
1757394343.74307,-0.348,-0.413,9.733,0.0998981981819492,3.1759882943198416,0.030476190476190476,0,0.05
1757394343.7684033,-0.333,-0.424,9.726,0.1012762188275214,3.172783989375458,0.031228070175438594,0,0.05
1757394343.7933614,-0.333,-0.424,9.726,0.1012762188275214,3.172783989375458,0.031228070175438594,0,0.05
1757394343.8182237,-0.333,-0.424,9.726,0.1012762188275214,3.172783989375458,0.031228070175438594,0,0.05
1757394343.8431766,-0.333,-0.433,9.721,0.10263573938935695,3.2161671832098215,0.031228070175438594,0,0.05
1757394343.86822,-0.333,-0.433,9.721,0.10263573938935695,3.2161671832098215,0.031228070175438594,0,0.05
1757394343.8931243,-0.322,-0.438,9.72,0.10389083212680511,3.2011311958517012,0.03177944862155389,0,0.05
1757394343.9181485,-0.322,-0.438,9.72,0.10389083212680511,3.2011311958517012,0.03177944862155389,0,0.05
1757394343.943083,-0.311,-0.431,9.709,0.10504811992606056,3.13335980575231,0.032330827067669175,0,0.05
1757394343.9684646,-0.311,-0.431,9.709,0.10504811992606056,3.13335980575231,0.032330827067669175,0,0.05
1757394343.9936044,-0.298,-0.434,9.705,0.10609956408958521,3.1050379904209096,0.03298245614035088,0,0.05
1757394344.0187702,-0.298,-0.434,9.705,0.10609956408958521,3.1050379904209096,0.03298245614035088,0,0.05
1757394344.043919,-0.29,-0.431,9.714,0.10708579504304014,3.061125264729398,0.03338345864661654,0,0.05
1757394344.0688574,-0.29,-0.431,9.714,0.10708579504304014,3.061125264729398,0.03338345864661654,0,0.05
1757394344.0938187,-0.28,-0.432,9.729,0.107997071719561,3.028950592687402,0.03388471177944862,0,0.05
1757394344.1190453,-0.28,-0.432,9.729,0.107997071719561,3.028950592687402,0.03388471177944862,0,0.05
1757394344.144762,-0.274,-0.439,9.727,0.10886256243539373,3.0453508172105845,0.034185463659147874,0,0.05
1757394344.170263,-0.274,-0.439,9.727,0.10886256243539373,3.0453508172105845,0.034185463659147874,0,0.05
1757394344.1954093,-0.274,-0.439,9.727,0.10886256243539373,3.0453508172105845,0.034185463659147874,0,0.05
1757394344.2204454,-0.269,-0.429,9.729,0.10969029127502579,2.9793631817628827,0.03443609022556391,0,0.05
1757394344.2453744,-0.269,-0.429,9.729,0.10969029127502579,2.9793631817628827,0.03443609022556391,0,0.05
1757394344.2703788,-0.263,-0.439,9.717,0.11047570999998145,3.0147328947005096,0.034736842105263156,0,0.05
1757394344.2953258,-0.263,-0.439,9.717,0.11047570999998145,3.0147328947005096,0.034736842105263156,0,0.05
1757394344.3203022,-0.275,-0.435,9.714,0.11132809618420679,3.0326249000476153,0.035338345864661655,0,0.05
1757394344.345361,-0.275,-0.435,9.714,0.11132809618420679,3.0326249000476153,0.035338345864661655,0,0.05
1757394344.3703153,-0.268,-0.426,9.711,0.11213164138636338,2.9667973714308236,0.03568922305764411,0,0.05
1757394344.395333,-0.268,-0.426,9.711,0.11213164138636338,2.9667973714308236,0.03568922305764411,0,0.05
1757394344.420252,-0.263,-0.42,9.722,0.11290007750218774,2.9179516419642173,0.03593984962406015,0,0.05
1757394344.4454186,-0.263,-0.42,9.722,0.11290007750218774,2.9179516419642173,0.03593984962406015,0,0.05
1757394344.4704626,-0.283,-0.428,9.722,0.11378334676041131,3.021116186532998,0.036942355889724304,0,0.05
1757394344.495549,-0.283,-0.428,9.722,0.11378334676041131,3.021116186532998,0.036942355889724304,0,0.05
1757394344.5205586,-0.283,-0.428,9.722,0.11378334676041131,3.021116186532998,0.036942355889724304,0,0.05
1757394344.5456057,-0.285,-0.412,9.715,0.11467219584537483,2.951925321733503,0.037042606516290724,0,0.05
1757394344.5706298,-0.285,-0.412,9.715,0.11467219584537483,2.951925321733503,0.037042606516290724,0,0.05
1757394344.5956676,-0.295,-0.401,9.707,0.11561693215096135,2.9358287539682837,0.03754385964912281,0,0.05
1757394344.6209195,-0.295,-0.401,9.707,0.11561693215096135,2.9358287539682837,0.03754385964912281,0,0.05
1757394344.6460762,-0.298,-0.402,9.706,0.11657308866114854,2.9513593518501056,0.037694235588972426,0,0.05
1757394344.6711261,-0.298,-0.402,9.706,0.11657308866114854,2.9513593518501056,0.037694235588972426,0,0.05
1757394344.6961374,-0.323,-0.397,9.725,0.11768647968224728,3.0125330047199457,0.03894736842105263,0,0.05
1757394344.7209404,-0.323,-0.397,9.725,0.11768647968224728,3.0125330047199457,0.03894736842105263,0,0.05
1757394344.7459214,-0.334,-0.401,9.716,0.11886545965922986,3.0745903153512937,0.03949874686716792,0,0.05
1757394344.7708292,-0.334,-0.401,9.716,0.11886545965922986,3.0745903153512937,0.03949874686716792,0,0.05
1757394344.7956834,-0.334,-0.405,9.711,0.1200328600842286,3.0942885194610987,0.03949874686716792,0,0.05
1757394344.8206053,-0.334,-0.405,9.711,0.1200328600842286,3.0942885194610987,0.03949874686716792,0,0.05
1757394344.845676,-0.35,-0.4,9.704,0.12130184458613974,3.1350707351324636,0.040300751879699254,0,0.05
1757394344.870689,-0.35,-0.4,9.704,0.12130184458613974,3.1350707351324636,0.040300751879699254,0,0.05
1757394344.895782,-0.35,-0.4,9.704,0.12130184458613974,3.1350707351324636,0.040300751879699254,0,0.05
1757394344.920703,-0.35,-0.408,9.71,0.12255769049716954,3.1687077233945784,0.040300751879699254,0,0.05
1757394344.9456015,-0.35,-0.408,9.71,0.12255769049716954,3.1687077233945784,0.040300751879699254,0,0.05
1757394344.9705102,-0.366,-0.395,9.708,0.12391641335997423,3.174920139206637,0.04110275689223058,0,0.05
1757394344.9959793,-0.366,-0.395,9.708,0.12391641335997423,3.174920139206637,0.04110275689223058,0,0.05
1757394345.0210867,-0.37,-0.396,9.701,0.12528977412382863,3.197560190706958,0.04130325814536342,0,0.05
1757394345.0464184,-0.37,-0.396,9.701,0.12528977412382863,3.197560190706958,0.04130325814536342,0,0.05
1757394345.0715961,-0.363,-0.395,9.707,0.12659759081435948,3.163274638495175,0.041654135338345874,0,0.05
1757394345.0966425,-0.363,-0.395,9.707,0.12659759081435948,3.163274638495175,0.041654135338345874,0,0.05
1757394345.1217067,-0.356,-0.385,9.7,0.12784283319764156,3.094310800466415,0.04200501253132834,0,0.05
1757394345.1466744,-0.356,-0.385,9.7,0.12784283319764156,3.094310800466415,0.04200501253132834,0,0.05
1757394345.1720326,-0.369,-0.392,9.7,0.12916730429950143,3.1766801996303524,0.04265664160401004,0,0.05
1757394345.1972814,-0.369,-0.392,9.7,0.12916730429950143,3.1766801996303524,0.04265664160401004,0,0.05
1757394345.2223632,-0.379,-0.39,9.693,0.13054997127537027,3.211183550381272,0.04315789473684212,0,0.05
1757394345.2478921,-0.379,-0.39,9.693,0.13054997127537027,3.211183550381272,0.04315789473684212,0,0.05
1757394345.272991,-0.379,-0.39,9.693,0.13054997127537027,3.211183550381272,0.04315789473684212,0,0.05
1757394345.2983215,-0.377,-0.389,9.693,0.13190381912590704,3.1987473510573783,0.04325814536340854,0,0.05
1757394345.3233142,-0.377,-0.389,9.693,0.13190381912590704,3.1987473510573783,0.04325814536340854,0,0.05
1757394345.3482091,-0.388,-0.383,9.688,0.13332283187811456,3.2209144724072383,0.04380952380952382,0,0.05
1757394345.373004,-0.388,-0.383,9.688,0.13332283187811456,3.2209144724072383,0.04380952380952382,0,0.05
1757394345.3978024,-0.392,-0.387,9.674,0.13475584402911808,3.2589616110738033,0.044010025062656645,0,0.05
1757394345.4228692,-0.392,-0.387,9.674,0.13475584402911808,3.2589616110738033,0.044010025062656645,0,0.05
1757394345.4477482,-0.394,-0.39,9.682,0.13618820617072536,3.2771047541256215,0.04411027568922306,0,0.05
1757394345.47291,-0.394,-0.39,9.682,0.13618820617072536,3.2771047541256215,0.04411027568922306,0,0.05
1757394345.4979494,-0.402,-0.389,9.681,0.13766349370839026,3.3070433614872465,0.044511278195488724,0,0.05
1757394345.52289,-0.402,-0.389,9.681,0.13766349370839026,3.3070433614872465,0.044511278195488724,0,0.05
1757394345.547812,-0.402,-0.389,9.681,0.13766349370839026,3.3070433614872465,0.044511278195488724,0,0.05
1757394345.572631,-0.409,-0.395,9.684,0.13917413552812175,3.3602872275927953,0.04486215538847119,0,0.05
1757394345.5974653,-0.409,-0.395,9.684,0.13917413552812175,3.3602872275927953,0.04486215538847119,0,0.05
1757394345.622501,-0.429,-0.391,9.681,0.1408174083698461,3.43121149847487,0.04586466165413535,0,0.05
1757394345.6477854,-0.429,-0.391,9.681,0.1408174083698461,3.43121149847487,0.04586466165413535,0,0.05
1757394345.6729667,-0.437,-0.396,9.695,0.14250250874984624,3.4809313060562426,0.04626566416040102,0,0.05
1757394345.6980639,-0.437,-0.396,9.695,0.14250250874984624,3.4809313060562426,0.04626566416040102,0,0.05
1757394345.7231307,-0.445,-0.394,9.704,0.14422907993882508,3.504915085302074,0.046666666666666676,0,0.05
1757394345.7481408,-0.445,-0.394,9.704,0.14422907993882508,3.504915085302074,0.046666666666666676,0,0.05
1757394345.7732077,-0.448,-0.38,9.728,0.14595817037768047,3.455787123369788,0.0468170426065163,0,0.05
1757394345.7984438,-0.448,-0.38,9.728,0.14595817037768047,3.455787123369788,0.0468170426065163,0,0.05
1757394345.823359,-0.454,-0.384,9.716,0.14771282104137068,3.502133755311725,0.04711779448621555,0,0.05
1757394345.8483324,-0.454,-0.384,9.716,0.14771282104137068,3.502133755311725,0.04711779448621555,0,0.05
1757394345.8737035,-0.472,-0.382,9.728,0.14958622095634344,3.5717189311263415,0.04802005012531329,0,0.05
1757394345.8986056,-0.472,-0.382,9.728,0.14958622095634344,3.5717189311263415,0.04802005012531329,0,0.05
1757394345.9240904,-0.472,-0.382,9.728,0.14958622095634344,3.5717189311263415,0.04802005012531329,0,0.05
1757394345.9489741,-0.494,-0.38,9.714,0.1516117657043806,3.6710425004025318,0.049122807017543874,0,0.05
1757394345.9743452,-0.494,-0.38,9.714,0.1516117657043806,3.6710425004025318,0.049122807017543874,0,0.05
1757394345.9993246,-0.496,-0.384,9.704,0.15362671479921713,3.6984943954022036,0.04922305764411029,0,0.05
1757394346.024543,-0.496,-0.384,9.704,0.15362671479921713,3.6984943954022036,0.04922305764411029,0,0.05
1757394346.05022,-0.507,-0.378,9.718,0.1557041746389608,3.723294847728115,0.04977443609022556,0,0.05
1757394346.0757241,-0.507,-0.378,9.718,0.1557041746389608,3.723294847728115,0.04977443609022556,0,0.05
1757394346.101407,-0.517,-0.388,9.736,0.15783539685381096,3.7984509964174924,0.05027568922305764,0,0.05
1757394346.1286242,-0.517,-0.388,9.736,0.15783539685381096,3.7984509964174924,0.05027568922305764,0,0.05
1757394346.156215,-0.52,-0.378,9.719,0.1599625346760922,3.7843662267749245,0.05042606516290726,0,0.05
1757394346.1832829,-0.52,-0.378,9.719,0.1599625346760922,3.7843662267749245,0.05042606516290726,0,0.05
1757394346.2107391,-0.405,-0.355,9.779,0.1612391856838777,3.152289633612918,0.05619047619047619,0,0.05
1757394346.23857,-0.405,-0.355,9.779,0.1612391856838777,3.152289633612918,0.05619047619047619,0,0.05
1757394346.2658849,-0.203,-0.544,9.737,0.16155834085555595,3.4126506040962594,0.0663157894736842,0,0.05
1757394346.292487,-0.203,-0.544,9.737,0.16155834085555595,3.4126506040962594,0.0663157894736842,0,0.05
1757394346.3183858,-0.463,-0.561,9.727,0.16320851693462568,4.276622482560573,0.07934837092731829,0,0.05
1757394346.3452406,-0.463,-0.561,9.727,0.16320851693462568,4.276622482560573,0.07934837092731829,0,0.05
1757394346.372022,-0.422,-0.622,9.775,0.16456679494964954,4.397076451410702,0.08140350877192981,0,0.05
1757394346.398875,-0.422,-0.622,9.775,0.16456679494964954,4.397076451410702,0.08140350877192981,0,0.05
1757394346.4271097,-0.192,-0.33,9.725,0.1648465650233574,2.24820128810735,0.09293233082706767,0,0.05
1757394346.4553227,-0.192,-0.33,9.725,0.1648465650233574,2.24820128810735,0.09293233082706767,0,0.05
1757394346.481428,0.153,-0.131,9.755,0.16502397553083006,1.1828676531755278,0.11022556390977445,0,0.05
1757394346.5087788,0.153,-0.131,9.755,0.16502397553083006,1.1828676531755278,0.11022556390977445,0,0.05
1757394346.5348985,-0.205,-0.217,9.766,0.16534199406079508,1.7508287693815618,0.1281704260651629,0,0.05
1757394346.561833,-0.205,-0.217,9.766,0.16534199406079508,1.7508287693815618,0.1281704260651629,0,0.05
1757394346.587794,-0.455,-0.195,9.757,0.16689978280393297,2.9044336487286224,0.1407017543859649,0,0.05
1757394346.6146483,-0.455,-0.195,9.757,0.16689978280393297,2.9044336487286224,0.1407017543859649,0,0.05
1757394346.64152,-0.739,0.208,9.966,0.17094104246786376,4.404985023108157,0.15493734335839598,0,0.05
1757394346.6685681,-0.739,0.208,9.966,0.17094104246786376,4.404985023108157,0.15493734335839598,0,0.05
1757394346.6949422,-0.303,0.316,9.576,0.17161107918779606,2.617626009443023,0.17679197994987467,0,0.05
1757394346.7214937,-0.303,0.316,9.576,0.17161107918779606,2.617626009443023,0.17679197994987467,0,0.05
1757394346.7469652,-0.716,0.009,9.653,0.17530545484952828,4.242413161908931,0.19749373433583958,0,0.05
1757394346.7741706,-0.716,0.009,9.653,0.17530545484952828,4.242413161908931,0.19749373433583958,0,0.05
1757394346.8008687,-0.016,-0.151,9.698,0.17530728022532321,0.8970287583342037,0.2325814536340852,0,0.05
1757394346.8279204,-0.016,-0.151,9.698,0.17530728022532321,0.8970287583342037,0.2325814536340852,0,0.05
1757394346.8542678,-0.09,-0.23,9.514,0.17536502644484162,1.4870544552446745,0.2362907268170426,0,0.05
1757394346.8814235,-0.09,-0.23,9.514,0.17536502644484162,1.4870544552446745,0.2362907268170426,0,0.05
1757394346.9083893,-0.046,-0.483,9.554,0.17538010862124587,2.9071825978682617,0.23849624060150376,0,0.05
1757394346.9347532,-0.046,-0.483,9.554,0.17538010862124587,2.9071825978682617,0.23849624060150376,0,0.05
1757394346.9609766,-0.224,-0.437,9.859,0.1757373679670889,2.8514787031071482,0.24741854636591482,0,0.05
1757394346.9870265,-0.224,-0.437,9.859,0.1757373679670889,2.8514787031071482,0.24741854636591482,0,0.05
1757394347.013998,-0.301,-0.247,9.743,0.17638062535323998,2.2885626412315374,0.2512781954887219,0,0.05
1757394347.041353,-0.301,-0.247,9.743,0.17638062535323998,2.2885626412315374,0.2512781954887219,0,0.05
1757394347.067014,-0.19,-0.401,9.677,0.17663627883308683,2.6254378369492435,0.2568421052631579,0,0.05
1757394347.0931137,-0.19,-0.401,9.677,0.17663627883308683,2.6254378369492435,0.2568421052631579,0,0.05
1757394347.1185617,-0.378,-0.504,9.769,0.17764454677810967,3.68987869364203,0.26626566416040104,0,0.05
1757394347.1454957,-0.378,-0.504,9.769,0.17764454677810967,3.68987869364203,0.26626566416040104,0,0.05
1757394347.1722817,-0.118,-0.448,9.716,0.17774249632544267,2.729917384254619,0.2792982456140351,0,0.05
1757394347.1994722,-0.118,-0.448,9.716,0.17774249632544267,2.729917384254619,0.2792982456140351,0,0.05
1757394347.2263014,-0.254,-0.47,9.681,0.1781956368713892,3.1586484337834064,0.2861152882205514,0,0.05
1757394347.2535012,-0.254,-0.47,9.681,0.1781956368713892,3.1586484337834064,0.2861152882205514,0,0.05
1757394347.2797003,-0.511,-0.567,9.651,0.1800180199313391,4.522058878617672,0.2989974937343359,0,0.05
1757394347.3067553,-0.511,-0.567,9.651,0.1800180199313391,4.522058878617672,0.2989974937343359,0,0.05
1757394347.3328767,-0.119,-0.383,9.659,0.18011632352454898,2.3776701167455223,0.3186466165413534,0,0.05
1757394347.3599946,-0.119,-0.383,9.659,0.18011632352454898,2.3776701167455223,0.3186466165413534,0,0.05
1757394347.3867707,-0.183,-0.384,9.576,0.18034858607707463,2.543468583764185,0.32185463659147867,0,0.05
1757394347.4137561,-0.183,-0.384,9.576,0.18034858607707463,2.543468583764185,0.32185463659147867,0,0.05
1757394347.4403293,-0.183,-0.384,9.576,0.18034858607707463,2.543468583764185,0.32185463659147867,0,0.05
1757394347.4670224,-0.267,-0.52,9.53,0.18084201668860034,3.5099544309763795,0.32606516290726817,0,0.05
1757394347.494016,-0.267,-0.52,9.53,0.18084201668860034,3.5099544309763795,0.32606516290726817,0,0.05
1757394347.5207667,-0.267,-0.52,9.53,0.18084201668860034,3.5099544309763795,0.32606516290726817,0,0.05
1757394347.5472593,-0.143,-0.433,9.668,0.18098330724130335,2.700419166122711,0.3322807017543859,0,0.05
1757394347.5732121,-0.124,-0.332,9.611,0.1810894737415734,2.1117969084136137,0.3332330827067669,0,0.05
1757394347.5996346,-0.124,-0.332,9.611,0.1810894737415734,2.1117969084136137,0.3332330827067669,0,0.05
1757394347.626393,-0.337,-0.588,9.742,0.18187171302871702,3.9795112075110115,0.34390977443609017,0,0.05
1757394347.6537626,-0.337,-0.588,9.742,0.18187171302871702,3.9795112075110115,0.34390977443609017,0,0.05
1757394347.6800144,-0.15,-0.422,9.707,0.1820262893100884,2.641665724536292,0.3532832080200501,0,0.05
1757394347.7071235,-0.15,-0.422,9.707,0.1820262893100884,2.641665724536292,0.3532832080200501,0,0.05
1757394347.7340395,-0.202,-0.231,9.787,0.1823062807475376,1.79587268179689,0.35588972431077687,0,0.05
1757394347.761406,-0.202,-0.231,9.787,0.1823062807475376,1.79587268179689,0.35588972431077687,0,0.05
1757394347.788117,-0.313,-0.422,9.816,0.18297678131391426,3.063868222347981,0.36145363408521297,0,0.05
1757394347.8148599,-0.313,-0.422,9.816,0.18297678131391426,3.063868222347981,0.36145363408521297,0,0.05
1757394347.8416977,-0.295,-0.448,9.788,0.1835703271228768,3.136796072108741,0.36235588972431076,0,0.05
1757394347.8683465,-0.295,-0.448,9.788,0.1835703271228768,3.136796072108741,0.36235588972431076,0,0.05
1757394347.8950613,-0.376,-0.298,9.919,0.18453049883420355,2.769173671017118,0.3664160401002506,0,0.05
1757394347.9225948,-0.376,-0.298,9.919,0.18453049883420355,2.769173671017118,0.3664160401002506,0,0.05
1757394347.94942,-0.048,-0.405,9.813,0.18454610535039748,2.379879447228556,0.38285714285714284,0,0.05
1757394347.976531,-0.048,-0.405,9.813,0.18454610535039748,2.379879447228556,0.38285714285714284,0,0.05
1757394348.003379,-0.343,-0.393,9.904,0.18534127306134487,3.0149046526846055,0.3976441102756893,0,0.05
1757394348.0299993,-0.343,-0.393,9.904,0.18534127306134487,3.0149046526846055,0.3976441102756893,0,0.05
1757394348.0555787,-0.08,-0.321,9.8,0.18538443165487226,1.9333999355933138,0.4108270676691729,0,0.05
1757394348.0820596,-0.08,-0.321,9.8,0.18538443165487226,1.9333999355933138,0.4108270676691729,0,0.05
1757394348.108977,-0.177,-0.395,9.778,0.1855955549036668,2.53466546004169,0.41568922305764416,0,0.05
1757394348.1360164,-0.177,-0.395,9.778,0.1855955549036668,2.53466546004169,0.41568922305764416,0,0.05
1757394348.1631925,-0.098,-0.399,9.767,0.18566022729707082,2.408785484306249,0.41964912280701755,0,0.05
1757394348.1897101,-0.098,-0.399,9.767,0.18566022729707082,2.408785484306249,0.41964912280701755,0,0.05
1757394348.215837,-0.359,-0.257,9.848,0.18652592983282512,2.566984336803957,0.4327318295739348,0,0.05
1757394348.242023,-0.359,-0.257,9.848,0.18652592983282512,2.566984336803957,0.4327318295739348,0,0.05
1757394348.2686627,-0.155,-0.207,9.653,0.1866868634907127,1.534564381613487,0.44295739348370927,0,0.05
1757394348.2956915,-0.155,-0.207,9.653,0.1866868634907127,1.534564381613487,0.44295739348370927,0,0.05
1757394348.3220253,-0.334,-0.43,9.629,0.18743232111885078,3.2363787132379405,0.45192982456140357,0,0.05
1757394348.3489358,-0.334,-0.43,9.629,0.18743232111885078,3.2363787132379405,0.45192982456140357,0,0.05
1757394348.3747795,-0.321,-0.399,9.645,0.1881182540318722,3.039232521005901,0.4525814536340852,0,0.05
1757394348.4007769,-0.321,-0.399,9.645,0.1881182540318722,3.039232521005901,0.4525814536340852,0,0.05
1757394348.4268403,-0.431,-0.42,9.648,0.18934856746223352,3.569224698838078,0.4580952380952381,0,0.05
1757394348.453265,-0.431,-0.42,9.648,0.18934856746223352,3.569224698838078,0.4580952380952381,0,0.05
1757394348.4800353,-0.33,-0.387,9.666,0.1900661200740416,3.0119497808422513,0.46315789473684216,0,0.05
1757394348.5068576,-0.33,-0.387,9.666,0.1900661200740416,3.0119497808422513,0.46315789473684216,0,0.05
1757394348.5336347,-0.137,-0.499,9.702,0.190189517324168,3.0530295858841945,0.4728320802005013,0,0.05
1757394348.560936,-0.137,-0.499,9.702,0.190189517324168,3.0530295858841945,0.4728320802005013,0,0.05
1757394348.5877557,-0.495,-0.45,9.752,0.1917931568122283,3.9242597575246307,0.49077694235588976,0,0.05
1757394348.6148396,-0.495,-0.45,9.752,0.1917931568122283,3.9242597575246307,0.49077694235588976,0,0.05
1757394348.6414988,-0.35,-0.477,9.806,0.19258988810423044,3.452682309975477,0.49804511278195496,0,0.05
1757394348.6681302,-0.35,-0.477,9.806,0.19258988810423044,3.452682309975477,0.49804511278195496,0,0.05
1757394348.6938899,-0.518,-0.511,9.877,0.19432363469223193,4.213317501566859,0.5064661654135338,0,0.05
1757394348.7207215,-0.518,-0.511,9.877,0.19432363469223193,4.213317501566859,0.5064661654135338,0,0.05
1757394348.747401,-0.316,-0.395,9.867,0.19496490709868788,2.9347862615064058,0.5165914786967418,0,0.05
1757394348.7747161,-0.316,-0.395,9.867,0.19496490709868788,2.9347862615064058,0.5165914786967418,0,0.05
1757394348.8016045,-0.334,-0.37,9.786,0.19567883125162006,2.91586227691417,0.5174937343358397,0,0.05
1757394348.8289855,-0.334,-0.37,9.786,0.19567883125162006,2.91586227691417,0.5174937343358397,0,0.05
1757394348.8567379,-0.365,-0.376,9.847,0.19652803235162153,3.0462130831611383,0.5190476190476191,0,0.05
1757394348.884194,-0.365,-0.376,9.847,0.19652803235162153,3.0462130831611383,0.5190476190476191,0,0.05
1757394348.910548,-0.243,-0.404,9.814,0.1969032503540762,2.750289297415478,0.5251629072681704,0,0.05
1757394348.9378445,-0.243,-0.404,9.814,0.1969032503540762,2.750289297415478,0.5251629072681704,0,0.05
1757394348.9646776,-0.391,-0.437,9.881,0.19787140394710903,3.3962307364501756,0.5325814536340853,0,0.05
1757394348.9918928,-0.391,-0.437,9.881,0.19787140394710903,3.3962307364501756,0.5325814536340853,0,0.05
1757394349.01881,-0.132,-0.54,9.876,0.1979814448376413,3.221659385756291,0.5455639097744361,0,0.05
1757394349.0456176,-0.132,-0.54,9.876,0.1979814448376413,3.221659385756291,0.5455639097744361,0,0.05
1757394349.0717404,-0.361,-0.542,9.829,0.1988025528005111,3.790578416589831,0.5570426065162909,0,0.05
1757394349.0976121,-0.361,-0.542,9.829,0.1988025528005111,3.790578416589831,0.5570426065162909,0,0.05
1757394349.122707,-0.21,-0.516,9.709,0.19907964486606863,3.2839932875418714,0.5646115288220552,0,0.05
1757394349.149651,-0.21,-0.516,9.709,0.19907964486606863,3.2839932875418714,0.5646115288220552,0,0.05
1757394349.1773455,-0.379,-0.533,9.742,0.19997951770118857,3.840680671642039,0.5730827067669173,0,0.05
1757394349.204188,-0.379,-0.533,9.742,0.19997951770118857,3.840680671642039,0.5730827067669173,0,0.05
1757394349.2308812,-0.137,-0.544,9.677,0.20009680157363835,3.3177825392693374,0.5852130325814537,0,0.05
1757394349.2577107,-0.137,-0.544,9.677,0.20009680157363835,3.3177825392693374,0.5852130325814537,0,0.05
1757394349.2842584,-0.312,-0.419,9.744,0.20070398600924697,3.0688489909920853,0.5939849624060151,0,0.05
1757394349.31028,-0.312,-0.419,9.744,0.20070398600924697,3.0688489909920853,0.5939849624060151,0,0.05
1757394349.3369505,-0.494,-0.521,9.917,0.20221814953163822,4.140853925922618,0.6031077694235589,0,0.05
1757394349.3638558,-0.494,-0.521,9.917,0.20221814953163822,4.140853925922618,0.6031077694235589,0,0.05
1757394349.3907423,-0.494,-0.521,9.917,0.20221814953163822,4.140853925922618,0.6031077694235589,0,0.05
1757394349.418135,-0.895,-0.323,9.988,0.20711045965860825,5.441826156986022,0.6232080200501253,0,0.05
1757394349.4456828,-0.286,-0.383,10.001,0.20760354645333012,2.7363880127875597,0.6537343358395991,0,0.05
1757394349.4726677,-0.286,-0.383,10.001,0.20760354645333012,2.7363880127875597,0.6537343358395991,0,0.05
1757394349.498732,-0.286,-0.383,10.001,0.20760354645333012,2.7363880127875597,0.6537343358395991,0,0.05
1757394349.5254939,-0.72,-0.322,9.922,0.21070176197649607,4.545018413045288,0.6754887218045112,0,0.05
1757394349.5519912,-0.798,-0.422,9.888,0.21444636275768353,5.216280353209703,0.6793984962406014,0,0.05
1757394349.5788746,-0.798,-0.422,9.888,0.21444636275768353,5.216280353209703,0.6793984962406014,0,0.05
1757394349.6057045,-0.798,-0.422,9.888,0.21444636275768353,5.216280353209703,0.6793984962406014,0,0.05
1757394349.632431,-0.584,-0.317,9.942,0.2164252353585413,3.8237626434659813,0.690125313283208,0,0.05
1757394349.6602507,-0.711,-0.432,9.842,0.21932552291058147,4.831773771072432,0.6964912280701754,0,0.05
1757394349.6873755,-0.711,-0.432,9.842,0.21932552291058147,4.831773771072432,0.6964912280701754,0,0.05
1757394349.713755,-0.723,-0.629,9.975,0.22228474419086885,5.487666838821212,0.6970927318295742,0,0.05
1757394349.7404654,-0.723,-0.629,9.975,0.22228474419086885,5.487666838821212,0.6970927318295742,0,0.05
1757394349.7673151,-0.749,-0.503,9.98,0.22541741281453834,5.165685984973412,0.6983959899749372,0,0.05
1757394349.7944214,-0.749,-0.503,9.98,0.22541741281453834,5.165685984973412,0.6983959899749372,0,0.05
1757394349.8212502,-0.475,-0.563,9.832,0.2266651109015236,4.2845741945333735,0.7121303258145363,0,0.05
1757394349.8482797,-0.475,-0.563,9.832,0.2266651109015236,4.2845741945333735,0.7121303258145363,0,0.05
1757394349.8758287,-0.492,-0.732,9.78,0.22799612387056056,5.153106293963034,0.7129824561403508,0,0.05
1757394349.9026325,-0.492,-0.732,9.78,0.22799612387056056,5.153106293963034,0.7129824561403508,0,0.05
1757394349.929532,-0.558,-0.601,9.898,0.22969684912945582,4.736433570887393,0.7162907268170423,0,0.05
1757394349.9569845,-0.558,-0.601,9.898,0.22969684912945582,4.736433570887393,0.7162907268170423,0,0.05
1757394349.983766,-0.505,-0.477,9.807,0.23108051627084444,4.051675515903264,0.7189473684210526,0,0.05
1757394350.0108395,-0.505,-0.477,9.807,0.23108051627084444,4.051675515903264,0.7189473684210526,0,0.05
1757394350.0376709,-0.489,-0.64,9.81,0.23237041012142662,4.693638012142079,0.7197493734335838,0,0.05
1757394350.0640223,-0.489,-0.64,9.81,0.23237041012142662,4.693638012142079,0.7197493734335838,0,0.05
1757394350.0912058,-0.398,-0.496,9.868,0.23322096282281315,3.687310055806657,0.7243107769423558,0,0.05
1757394350.1187723,-0.398,-0.496,9.868,0.23322096282281315,3.687310055806657,0.7243107769423558,0,0.05
1757394350.1456718,-0.624,-0.349,9.828,0.23529865596726215,4.160818344475896,0.7356390977443608,0,0.05
1757394350.1724093,-0.624,-0.349,9.828,0.23529865596726215,4.160818344475896,0.7356390977443608,0,0.05
1757394350.1987398,-0.514,-0.42,9.729,0.2366980090748547,3.903032820326418,0.7411528822055136,0,0.05
1757394350.2253296,-0.514,-0.42,9.729,0.2366980090748547,3.903032820326418,0.7411528822055136,0,0.05
1757394350.2521815,-0.337,-0.396,9.725,0.23729700798788003,3.060630905187703,0.7500250626566416,0,0.05
1757394350.2793767,-0.337,-0.396,9.725,0.23729700798788003,3.060630905187703,0.7500250626566416,0,0.05
1757394350.3062956,-0.337,-0.396,9.725,0.23729700798788003,3.060630905187703,0.7500250626566416,0,0.05
1757394350.3331885,-0.381,-0.302,9.673,0.2380604387545314,2.8773171178930483,0.7522305764411029,0,0.05
1757394350.360184,-0.597,-0.377,9.794,0.23992456106034662,4.123452239658404,0.7630576441102757,0,0.05
1757394350.3871987,-0.597,-0.377,9.794,0.23992456106034662,4.123452239658404,0.7630576441102757,0,0.05
1757394350.4136271,-0.437,-0.203,9.644,0.24091744955482158,2.8603222819984686,0.7710776942355889,0,0.05
1757394350.4408312,-0.437,-0.203,9.644,0.24091744955482158,2.8603222819984686,0.7710776942355889,0,0.05
1757394350.4669201,-0.38,-0.192,9.643,0.24166550746848423,2.528042017166103,0.7739348370927317,0,0.05
1757394350.4928389,-0.38,-0.192,9.643,0.24166550746848423,2.528042017166103,0.7739348370927317,0,0.05
1757394350.5178902,-0.244,-0.167,9.525,0.24197325781995,1.7780174892020784,0.7807518796992481,0,0.05
1757394350.5442326,-0.244,-0.167,9.525,0.24197325781995,1.7780174892020784,0.7807518796992481,0,0.05
1757394350.5711384,-0.469,-0.252,9.525,0.24310689007101383,3.199305221009225,0.79203007518797,0,0.05
1757394350.5982852,-0.469,-0.252,9.525,0.24310689007101383,3.199305221009225,0.79203007518797,0,0.05
1757394350.6251972,-0.469,-0.252,9.525,0.24310689007101383,3.199305221009225,0.79203007518797,0,0.05
1757394350.6519954,-0.253,-0.116,9.566,0.24343578722118897,1.6665659904907135,0.8028571428571429,0,0.05
1757394350.678662,-0.253,-0.116,9.566,0.24343578722118897,1.6665659904907135,0.8028571428571429,0,0.05
1757394350.7047327,-0.271,-0.164,9.57,0.24381260221735876,1.8957572556300946,0.8037593984962407,0,0.05
1757394350.7317164,-0.271,-0.164,9.57,0.24381260221735876,1.8957572556300946,0.8037593984962407,0,0.05
1757394350.7585742,-0.525,-0.344,9.582,0.24522162934782077,3.7477712276803175,0.8164912280701754,0,0.05
1757394350.7864668,-0.525,-0.344,9.582,0.24522162934782077,3.7477712276803175,0.8164912280701754,0,0.05
1757394350.8135114,-0.292,-0.207,9.663,0.2456558721056755,2.1213325073574203,0.8281704260651629,0,0.05
1757394350.8407035,-0.256,-0.14,9.57,0.2459891206943917,1.746356071003656,0.8299749373433586,0,0.05
1757394350.8675666,-0.256,-0.14,9.57,0.2459891206943917,1.746356071003656,0.8299749373433586,0,0.05
1757394350.8944776,-0.256,-0.14,9.57,0.2459891206943917,1.746356071003656,0.8299749373433586,0,0.05
1757394350.921496,-0.429,-0.172,9.534,0.24692255871021587,2.7754515138117073,0.8386466165413534,0,0.05
1757394350.9487422,-0.365,-0.148,9.615,0.24759606721432392,2.3457250191657644,0.8418546365914786,0,0.05
1757394350.9757586,-0.365,-0.148,9.615,0.24759606721432392,2.3457250191657644,0.8418546365914786,0,0.05
1757394351.0031888,-0.101,0.087,9.473,0.24764756207158592,0.8062136462874199,0.8550877192982457,0,0.05
1757394351.0303867,-0.101,0.087,9.473,0.24764756207158592,0.8062136462874199,0.8550877192982457,0,0.05
1757394351.0572693,-0.369,-0.139,9.535,0.2483338831090111,2.368070378481113,0.8685213032581452,0,0.05
1757394351.0845482,-0.369,-0.139,9.535,0.2483338831090111,2.368070378481113,0.8685213032581452,0,0.05
1757394351.1115208,-0.233,0.008,9.618,0.24860699909696832,1.3885597839494788,0.8753383458646616,0,0.05
1757394351.1383896,-0.233,0.008,9.618,0.24860699909696832,1.3885597839494788,0.8753383458646616,0,0.05
1757394351.1641285,-0.233,0.008,9.618,0.24860699909696832,1.3885597839494788,0.8753383458646616,0,0.05
1757394351.1907787,-0.286,0.126,9.577,0.24901793108127776,1.8690636683590773,0.8779949874686716,0,0.05
1757394351.2177742,-0.286,0.126,9.577,0.24901793108127776,1.8690636683590773,0.8779949874686716,0,0.05
1757394351.2433178,-0.465,-0.085,9.613,0.25010096461229414,2.81516717204947,0.8869674185463658,0,0.05
1757394351.2705142,-0.465,-0.085,9.613,0.25010096461229414,2.81516717204947,0.8869674185463658,0,0.05
1757394351.297316,-0.132,-0.174,9.718,0.2501880342862144,1.2874543075423723,0.9036591478696742,0,0.05
1757394351.3241327,-0.132,-0.174,9.718,0.2501880342862144,1.2874543075423723,0.9036591478696742,0,0.05
1757394351.3502352,-0.489,-0.204,9.724,0.25137990174236285,3.118877053855691,0.9215538847117796,0,0.05
1757394351.377062,-0.489,-0.204,9.724,0.25137990174236285,3.118877053855691,0.9215538847117796,0,0.05
1757394351.4040263,-0.438,-0.151,9.743,0.25233205305707795,2.722471228914313,0.9241102756892231,0,0.05
1757394351.4310236,-0.438,-0.151,9.743,0.25233205305707795,2.722471228914313,0.9241102756892231,0,0.05
1757394351.457917,-0.314,-0.285,9.779,0.2528200051419982,2.482998147287912,0.930325814536341,0,0.05
1757394351.4856477,-0.314,-0.285,9.779,0.2528200051419982,2.482998147287912,0.930325814536341,0,0.05
1757394351.5128524,-0.55,-0.372,9.664,0.25431123648002657,3.9304825858709767,0.942155388471178,0,0.05
1757394351.540571,-0.55,-0.372,9.664,0.25431123648002657,3.9304825858709767,0.942155388471178,0,0.05
1757394351.567789,-0.359,-0.148,9.573,0.2549439301101322,2.3228203514819894,0.9517293233082706,0,0.05
1757394351.5951128,-0.359,-0.148,9.573,0.2549439301101322,2.3228203514819894,0.9517293233082706,0,0.05
1757394351.622131,-0.247,-0.343,9.469,0.2552428843278496,2.5558863824968143,0.9573433583959902,0,0.05
1757394351.6497915,-0.247,-0.343,9.469,0.2552428843278496,2.5558863824968143,0.9573433583959902,0,0.05
1757394351.676928,-0.292,-0.422,9.565,0.2556601063912788,3.071047186944945,0.9595989974937343,0,0.05
1757394351.7038178,-0.292,-0.422,9.565,0.2556601063912788,3.071047186944945,0.9595989974937343,0,0.05
1757394351.7308424,-0.406,-0.226,9.55,0.25646477340952695,2.7855777643554496,0.9653132832080201,0,0.05
1757394351.758128,-0.406,-0.226,9.55,0.25646477340952695,2.7855777643554496,0.9653132832080201,0,0.05
1757394351.7847857,-0.561,-0.523,9.707,0.2579941520655071,4.517698486914783,0.9730827067669172,0,0.05
1757394351.8114786,-0.561,-0.523,9.707,0.2579941520655071,4.517698486914783,0.9730827067669172,0,0.05
1757394351.8384254,-0.449,-0.534,9.776,0.25896908116607276,4.082083179350788,0.9786967418546367,0,0.05
1757394351.8657906,-0.501,-0.508,9.888,0.2601777997831483,4.127135741218103,0.9813032581453635,0,0.05
1757394351.893017,-0.501,-0.508,9.888,0.2601777997831483,4.127135741218103,0.9813032581453635,0,0.05
1757394351.9207304,-0.552,-0.56,9.803,0.26163762630783827,4.586018699040934,0.9838596491228072,0,0.05
1757394351.9474428,-0.552,-0.56,9.803,0.26163762630783827,4.586018699040934,0.9838596491228072,0,0.05
1757394351.9749417,-0.407,-0.441,9.835,0.26242783770019523,3.4917231722604885,0.9911278195488721,0,0.05
1757394352.0024915,-0.407,-0.441,9.835,0.26242783770019523,3.4917231722604885,0.9911278195488721,0,0.05
1757394352.0304222,-0.645,-0.355,9.939,0.2644020281692257,4.236499303239288,1.0030576441102756,0,0.05
1757394352.0574641,-0.645,-0.355,9.939,0.2644020281692257,4.236499303239288,1.0030576441102756,0,0.05
1757394352.0840507,-0.581,-0.296,9.838,0.26599311081304344,3.7919793070345555,1.006265664160401,0,0.05
1757394352.1104631,-0.581,-0.296,9.838,0.26599311081304344,3.7919793070345555,1.006265664160401,0,0.05
1757394352.1367486,-0.455,-0.287,9.843,0.26696422513138346,3.128297556408314,1.0125814536340851,0,0.05
1757394352.1635275,-0.455,-0.287,9.843,0.26696422513138346,3.128297556408314,1.0125814536340851,0,0.05
1757394352.1906316,-0.455,-0.287,9.843,0.26696422513138346,3.128297556408314,1.0125814536340851,0,0.05
1757394352.2176523,-0.49,-0.248,9.757,0.2680860822571735,3.221564782383644,1.0143358395989972,0,0.05
1757394352.2451663,-0.397,-0.225,9.643,0.2688199583364301,2.7093331917466763,1.0189974937343356,0,0.05
1757394352.273393,-0.397,-0.225,9.643,0.2688199583364301,2.7093331917466763,1.0189974937343356,0,0.05
1757394352.3004673,-0.397,-0.225,9.643,0.2688199583364301,2.7093331917466763,1.0189974937343356,0,0.05
1757394352.3268268,-0.445,-0.394,9.704,0.2697391934814072,3.504915085302074,1.0214035087719295,0,0.05
1757394352.3538427,-0.282,-0.347,9.598,0.27010746472469066,2.6672900063983205,1.0295739348370927,0,0.05
1757394352.3813124,-0.282,-0.347,9.598,0.27010746472469066,2.6672900063983205,1.0295739348370927,0,0.05
1757394352.4075625,-0.141,-0.317,9.664,0.27019945410751667,2.0560722162696443,1.0366416040100248,0,0.05
1757394352.434501,-0.141,-0.317,9.664,0.27019945410751667,2.0560722162696443,1.0366416040100248,0,0.05
1757394352.461889,-0.141,-0.317,9.664,0.27019945410751667,2.0560722162696443,1.0366416040100248,0,0.05
1757394352.4897463,-0.455,-0.412,9.794,0.27115550427752705,3.5861831433586935,1.0523809523809524,0,0.05
1757394352.5174468,-0.594,-0.254,9.623,0.27277719387808064,3.8407162316369097,1.0593483709273182,0,0.05
1757394352.5458004,-0.594,-0.254,9.623,0.27277719387808064,3.8407162316369097,1.0593483709273182,0,0.05
1757394352.5724947,-0.177,-0.154,9.669,0.2729207210894768,1.3899999895075987,1.0802506265664158,0,0.05
1757394352.600248,-0.177,-0.154,9.669,0.2729207210894768,1.3899999895075987,1.0802506265664158,0,0.05
1757394352.6271925,-0.38,-0.214,9.645,0.27358128590969083,2.5889601964721343,1.090426065162907,0,0.05
1757394352.6547334,-0.38,-0.214,9.645,0.27358128590969083,2.5889601964721343,1.090426065162907,0,0.05
1757394352.681109,-0.378,-0.316,9.772,0.2742333495401316,2.886305263727421,1.0905263157894738,0,0.05
1757394352.7074695,-0.378,-0.316,9.772,0.2742333495401316,2.886305263727421,1.0905263157894738,0,0.05
1757394352.7348635,-0.13,-0.247,9.82,0.2743103716595492,1.6281261178040136,1.1029573934837091,0,0.05
1757394352.7632422,-0.13,-0.247,9.82,0.2743103716595492,1.6281261178040136,1.1029573934837091,0,0.05
1757394352.790178,-0.402,-0.327,9.781,0.27504579618674413,3.0327202731059426,1.116591478696742,0,0.05
1757394352.818345,-0.402,-0.327,9.781,0.27504579618674413,3.0327202731059426,1.116591478696742,0,0.05
1757394352.8450181,-0.17,-0.438,9.85,0.2751771066059093,2.730874949108523,1.128220551378446,0,0.05
1757394352.8721185,-0.17,-0.438,9.85,0.2751771066059093,2.730874949108523,1.128220551378446,0,0.05
1757394352.8990364,-0.403,-0.43,9.923,0.27591386790083605,3.3988173312167413,1.1398997493734337,0,0.05
1757394352.9267693,-0.403,-0.43,9.923,0.27591386790083605,3.3988173312167413,1.1398997493734337,0,0.05
1757394352.9542775,-0.042,-0.488,9.804,0.2759218594095075,2.8600969675670824,1.157994987468672,0,0.05
1757394352.9826157,-0.042,-0.488,9.804,0.2759218594095075,2.8600969675670824,1.157994987468672,0,0.05
1757394353.0099568,-0.305,-0.5,9.84,0.27634296625751126,3.4062643272813076,1.1711779448621553,0,0.05
1757394353.0373352,-0.305,-0.5,9.84,0.27634296625751126,3.4062643272813076,1.1711779448621553,0,0.05
1757394353.0646636,-0.228,-0.466,9.859,0.2765780088871854,3.0121633902030625,1.1750375939849624,0,0.05
1757394353.0929382,-0.228,-0.466,9.859,0.2765780088871854,3.0121633902030625,1.1750375939849624,0,0.05
1757394353.120456,-0.474,-0.371,9.94,0.2775915794832401,3.4653777831381665,1.1873684210526319,0,0.05
1757394353.1476386,-0.474,-0.371,9.94,0.2775915794832401,3.4653777831381665,1.1873684210526319,0,0.05
1757394353.1747346,-0.367,-0.503,9.85,0.2781974254014584,3.6170599510363237,1.192731829573935,0,0.05
1757394353.201206,-0.367,-0.503,9.85,0.2781974254014584,3.6170599510363237,1.192731829573935,0,0.05
1757394353.2285385,-0.367,-0.503,9.85,0.2781974254014584,3.6170599510363237,1.192731829573935,0,0.05
1757394353.2556386,-0.344,-0.428,9.87,0.2787286269833079,3.184315367914231,1.1938847117794487,0,0.05
1757394353.2828226,-0.182,-0.255,9.678,0.278877136925923,1.8540793877817001,1.2020050125313284,0,0.05
1757394353.310047,-0.182,-0.255,9.678,0.278877136925923,1.8540793877817001,1.2020050125313284,0,0.05
1757394353.3371925,-0.377,-0.358,9.642,0.2795134701584165,3.086402404976968,1.2117794486215538,0,0.05
1757394353.3630023,-0.377,-0.358,9.642,0.2795134701584165,3.086402404976968,1.2117794486215538,0,0.05
1757394353.3902771,-0.157,-0.428,9.709,0.2796236801488744,2.6883543633871794,1.2228070175438597,0,0.05
1757394353.4177122,-0.157,-0.428,9.709,0.2796236801488744,2.6883543633871794,1.2228070175438597,0,0.05
1757394353.444294,-0.302,-0.308,9.707,0.2800310920237251,2.544414280795804,1.2300751879699248,0,0.05
1757394353.4708307,-0.302,-0.308,9.707,0.2800310920237251,2.544414280795804,1.2300751879699248,0,0.05
1757394353.4977665,-0.375,-0.327,9.727,0.2806581105188304,2.92819739332969,1.2337343358395985,0,0.05
1757394353.525172,-0.375,-0.327,9.727,0.2806581105188304,2.92819739332969,1.2337343358395985,0,0.05
1757394353.5523481,-0.124,-0.178,9.679,0.2807265840635689,1.2839419826977254,1.2463157894736838,0,0.05
1757394353.5795004,-0.124,-0.178,9.679,0.2807265840635689,1.2839419826977254,1.2463157894736838,0,0.05
1757394353.6059468,-0.268,-0.089,9.58,0.2810462150607974,1.6884302132199889,1.2535338345864657,0,0.05
1757394353.6328938,-0.268,-0.089,9.58,0.2810462150607974,1.6884302132199889,1.2535338345864657,0,0.05
1757394353.659986,0.115,-0.145,9.499,0.2811050293039952,1.1161436470887285,1.2727318295739345,0,0.05
1757394353.6873727,0.115,-0.145,9.499,0.2811050293039952,1.1161436470887285,1.2727318295739345,0,0.05
1757394353.7143707,-0.214,-0.169,9.604,0.2813085983399725,1.6263527518975316,1.28922305764411,0,0.05
1757394353.7417746,-0.214,-0.169,9.604,0.2813085983399725,1.6263527518975316,1.28922305764411,0,0.05
1757394353.7689126,-0.183,-0.211,9.582,0.28145736799735765,1.6696238938863333,1.2907769423558895,0,0.05
1757394353.795045,-0.183,-0.211,9.582,0.28145736799735765,1.6696238938863333,1.2907769423558895,0,0.05
1757394353.8217869,-0.167,-0.129,9.521,0.28158120054435454,1.2696830347880592,1.291578947368421,0,0.05
1757394353.8486853,-0.167,-0.129,9.521,0.28158120054435454,1.2696830347880592,1.291578947368421,0,0.05
1757394353.8755085,-0.167,-0.129,9.521,0.28158120054435454,1.2696830347880592,1.291578947368421,0,0.05
1757394353.9017344,-0.167,-0.129,9.521,0.28158120054435454,1.2696830347880592,1.291578947368421,0,0.05
1757394353.9283264,-0.167,-0.129,9.521,0.28158120054435454,1.2696830347880592,1.291578947368421,0,0.05
1757394353.9553547,-0.138,-0.149,9.53,0.28166572830218445,1.220814435135551,1.293032581453634,0,0.05
1757394353.9825459,-0.179,-0.172,9.542,0.2818078866887866,1.4902657973843418,1.2950877192982453,0,0.05
1757394354.0098066,-0.144,-0.088,9.469,0.2818998492372779,1.0210394726699463,1.2968421052631578,0,0.05
1757394354.037079,-0.344,0.011,9.417,0.28242408714555495,2.0931346369208286,1.3068671679197994,0,0.05
1757394354.0637312,-0.344,0.011,9.417,0.28242408714555495,2.0931346369208286,1.3068671679197994,0,0.05
1757394354.0914068,-0.344,0.011,9.417,0.28242408714555495,2.0931346369208286,1.3068671679197994,0,0.05
1757394354.1192229,-0.25,-0.014,9.545,0.28270057481370636,1.5026817959141372,1.3115789473684212,0,0.05
1757394354.146352,-0.066,-0.019,9.591,0.2827198348188538,0.41028369333048037,1.320802005012531,0,0.05
1757394354.1735845,-0.066,-0.019,9.591,0.2827198348188538,0.41028369333048037,1.320802005012531,0,0.05
1757394354.2008262,-0.383,-0.201,9.726,0.28336765429385197,2.5464056199104803,1.336691729323308,0,0.05
1757394354.2287698,-0.383,-0.201,9.726,0.28336765429385197,2.5464056199104803,1.336691729323308,0,0.05
1757394354.2568195,-0.388,-0.21,9.764,0.2840309622206706,2.5871408378348337,1.3369423558897242,0,0.05
1757394354.2845228,-0.388,-0.21,9.764,0.2840309622206706,2.5871408378348337,1.3369423558897242,0,0.05
1757394354.312371,-0.258,-0.234,9.816,0.2843237547233787,2.0322264905622207,1.3434586466165415,0,0.05
1757394354.3396385,-0.258,-0.234,9.816,0.2843237547233787,2.0322264905622207,1.3434586466165415,0,0.05
1757394354.3672936,-0.422,-0.425,9.792,0.2851056076263671,3.50010973351751,1.3516791979949874,0,0.05
1757394354.3951147,-0.422,-0.425,9.792,0.2851056076263671,3.50010973351751,1.3516791979949874,0,0.05
1757394354.4216177,-0.2,-0.329,9.782,0.28528092733304133,2.254005751030338,1.3628070175438596,0,0.05
1757394354.448992,-0.2,-0.329,9.782,0.28528092733304133,2.254005751030338,1.3628070175438596,0,0.05
1757394354.4759598,-0.224,-0.334,9.75,0.2855006961462616,2.36194556831689,1.3640100250626566,0,0.05
1757394354.5028193,-0.224,-0.334,9.75,0.2855006961462616,2.36194556831689,1.3640100250626566,0,0.05
1757394354.529752,-0.17,-0.296,9.708,0.2856272002103441,2.0137556426353282,1.3667167919799497,0,0.05
1757394354.556842,-0.17,-0.296,9.708,0.2856272002103441,2.0137556426353282,1.3667167919799497,0,0.05
1757394354.583733,-0.191,-0.227,9.761,0.28578680865288375,1.7408472289323471,1.3677694235588973,0,0.05
1757394354.6117318,-0.191,-0.227,9.761,0.28578680865288375,1.7408472289323471,1.3677694235588973,0,0.05
1757394354.6397176,-0.261,-0.327,9.902,0.28608460724058543,2.419482671633044,1.371278195488722,0,0.05
1757394354.6672034,-0.261,-0.327,9.902,0.28608460724058543,2.419482671633044,1.371278195488722,0,0.05
1757394354.695072,-0.385,-0.154,9.95,0.2867315207646345,2.38637146223038,1.3774937343358395,0,0.05
1757394354.7232988,-0.385,-0.154,9.95,0.2867315207646345,2.38637146223038,1.3774937343358395,0,0.05
1757394354.7510076,-0.295,-0.292,9.736,0.2871106537556557,2.4412256583523853,1.3820050125313286,0,0.05
1757394354.7777433,-0.295,-0.292,9.736,0.2871106537556557,2.4412256583523853,1.3820050125313286,0,0.05
1757394354.8041735,-0.413,-0.429,9.859,0.28785230587924776,3.456511045742633,1.387919799498747,0,0.05
1757394354.8314612,-0.413,-0.429,9.859,0.28785230587924776,3.456511045742633,1.387919799498747,0,0.05
1757394354.8585446,-0.373,-0.26,9.843,0.28845584150784676,2.644765922654043,1.389924812030075,0,0.05
1757394354.885863,-0.373,-0.26,9.843,0.28845584150784676,2.644765922654043,1.389924812030075,0,0.05
1757394354.912719,-0.416,-0.311,9.681,0.28920479335585014,3.071062731483607,1.392080200501253,0,0.05
1757394354.9401987,-0.416,-0.311,9.681,0.28920479335585014,3.071062731483607,1.392080200501253,0,0.05
1757394354.9680243,-0.518,-0.326,9.703,0.2903622263656208,3.609320790629415,1.3971929824561404,0,0.05
1757394354.995606,-0.518,-0.326,9.703,0.2903622263656208,3.609320790629415,1.3971929824561404,0,0.05
1757394355.0230508,-0.22,-0.282,9.607,0.29057051209646173,2.132113535870603,1.4121303258145366,0,0.05
1757394355.0500484,-0.22,-0.282,9.607,0.29057051209646173,2.132113535870603,1.4121303258145366,0,0.05
1757394355.0772152,-0.628,-0.272,9.593,0.29226218109772606,4.08062446972948,1.4325814536340853,0,0.05
1757394355.1050596,-0.628,-0.272,9.593,0.29226218109772606,4.08062446972948,1.4325814536340853,0,0.05
1757394355.1337764,-0.236,-0.306,9.702,0.29250029487164625,2.2809107729213802,1.4522305764411025,0,0.05
1757394355.16231,-0.501,-0.099,9.757,0.29357098800801146,2.9961645867807625,1.4655137844611525,0,0.05
1757394355.1897397,-0.501,-0.099,9.757,0.29357098800801146,2.9961645867807625,1.4655137844611525,0,0.05
1757394355.216971,-0.34,-0.157,9.728,0.29406279091377746,2.2046241026123847,1.4735839598997496,0,0.05
1757394355.244048,-0.34,-0.157,9.728,0.29406279091377746,2.2046241026123847,1.4735839598997496,0,0.05
1757394355.2705007,-0.484,-0.282,9.901,0.2950568843460528,3.23812396081413,1.4808020050125315,0,0.05
1757394355.2974093,-0.484,-0.282,9.901,0.2950568843460528,3.23812396081413,1.4808020050125315,0,0.05
1757394355.3241136,-0.484,-0.282,9.901,0.2950568843460528,3.23812396081413,1.4808020050125315,0,0.05
1757394355.3508866,-0.394,-0.206,9.911,0.29571380590023183,2.5685419682986494,1.48531328320802,0,0.05
1757394355.378124,-0.394,-0.206,9.911,0.29571380590023183,2.5685419682986494,1.48531328320802,0,0.05
1757394355.4052436,-0.461,-0.191,9.752,0.29661078453083933,2.9292183935673615,1.488671679197995,0,0.05
1757394355.4323158,-0.426,-0.214,9.796,0.29737459121451515,2.786148872843525,1.490426065162907,0,0.05
1757394355.4594605,-0.426,-0.214,9.796,0.29737459121451515,2.786148872843525,1.490426065162907,0,0.05
1757394355.486484,-0.354,-0.241,9.799,0.2979008853629005,2.5024229771568534,1.4940350877192983,0,0.05
1757394355.511716,-0.354,-0.241,9.799,0.2979008853629005,2.5024229771568534,1.4940350877192983,0,0.05
1757394355.5378976,-0.354,-0.241,9.799,0.2979008853629005,2.5024229771568534,1.4940350877192983,0,0.05
1757394355.5649667,-0.419,-0.229,9.773,0.2986366353949227,2.7971698666398295,1.4972932330827067,0,0.05
1757394355.5920532,-0.419,-0.229,9.773,0.2986366353949227,2.7971698666398295,1.4972932330827067,0,0.05
1757394355.6188586,-0.356,-0.323,9.89,0.29916664252553293,2.7826064705159728,1.5004511278195487,0,0.05
1757394355.645458,-0.356,-0.323,9.89,0.29916664252553293,2.7826064705159728,1.5004511278195487,0,0.05
1757394355.6718085,-0.566,-0.267,9.913,0.3005021963314079,3.612333625852923,1.5109774436090222,0,0.05
1757394355.698609,-0.566,-0.267,9.913,0.3005021963314079,3.612333625852923,1.5109774436090222,0,0.05
1757394355.7250936,-0.256,-0.363,9.801,0.30077468311013145,2.594921403685972,1.5265162907268168,0,0.05
1757394355.7523654,-0.256,-0.363,9.801,0.30077468311013145,2.594921403685972,1.5265162907268168,0,0.05
1757394355.7788281,-0.292,-0.301,9.633,0.3011288262521541,2.4927380690782526,1.5283208020050125,0,0.05
1757394355.805965,-0.292,-0.301,9.633,0.3011288262521541,2.4927380690782526,1.5283208020050125,0,0.05
1757394355.8336766,-0.512,-0.146,9.858,0.3022150393345771,3.091419808756236,1.5393483709273184,0,0.05
1757394355.8610344,-0.512,-0.146,9.858,0.3022150393345771,3.091419808756236,1.5393483709273184,0,0.05
1757394355.8880284,-0.472,-0.032,9.699,0.30313510189352866,2.792475771154516,1.5413533834586466,0,0.05
1757394355.9146123,-0.472,-0.032,9.699,0.30313510189352866,2.792475771154516,1.5413533834586466,0,0.05
1757394355.9416945,-0.428,-0.167,9.651,0.30388953585143397,2.725454408687954,1.5435588972431076,0,0.05
1757394355.96867,-0.428,-0.167,9.651,0.30388953585143397,2.725454408687954,1.5435588972431076,0,0.05
1757394355.9955366,-0.037,-0.172,9.754,0.30389516695729135,1.0333421958532456,1.5631578947368419,0,0.05
1757394356.0227478,-0.037,-0.172,9.754,0.30389516695729135,1.0333421958532456,1.5631578947368419,0,0.05
1757394356.0496929,-0.46,0.05,9.587,0.30476429006693023,2.763193876995389,1.584360902255639,0,0.05
1757394356.07719,-0.46,0.05,9.587,0.30476429006693023,2.763193876995389,1.584360902255639,0,0.05
1757394356.1042473,-0.324,-0.183,9.605,0.30519454860793305,2.2185955375456667,1.5911779448621555,0,0.05
1757394356.131466,-0.324,-0.183,9.605,0.30519454860793305,2.2185955375456667,1.5911779448621555,0,0.05
1757394356.1581173,-0.469,-0.215,9.787,0.30609412767970573,3.0176150263566157,1.5984461152882201,0,0.05
1757394356.1850104,-0.469,-0.215,9.787,0.30609412767970573,3.0176150263566157,1.5984461152882201,0,0.05
1757394356.2122607,-0.538,-0.09,9.773,0.3072738599360512,3.194625534345422,1.6019047619047622,0,0.05
1757394356.239287,-0.538,-0.09,9.773,0.3072738599360512,3.194625534345422,1.6019047619047622,0,0.05
1757394356.2660346,-0.429,-0.154,9.711,0.30802163479210354,2.6873107437813872,1.6073684210526316,0,0.05
1757394356.2927456,-0.429,-0.154,9.711,0.30802163479210354,2.6873107437813872,1.6073684210526316,0,0.05
1757394356.319594,-0.598,-0.306,9.9,0.3094694451799725,3.8817365681680815,1.6158395989974939,0,0.05
1757394356.3470063,-0.598,-0.306,9.9,0.3094694451799725,3.8817365681680815,1.6158395989974939,0,0.05
1757394356.3743248,-0.468,-0.302,9.864,0.3103528596613861,3.231834639077518,1.6223558897243109,0,0.05
1757394356.4008706,-0.468,-0.302,9.864,0.3103528596613861,3.231834639077518,1.6223558897243109,0,0.05
1757394356.4273067,-0.417,-0.399,9.895,0.31105243930887283,3.3380733120089507,1.6249122807017542,0,0.05
1757394356.4542,-0.417,-0.399,9.895,0.31105243930887283,3.3380733120089507,1.6249122807017542,0,0.05
1757394356.4808698,-0.433,-0.458,9.823,0.31180497510463173,3.6712769506578002,1.6257142857142857,0,0.05
1757394356.5081637,-0.433,-0.458,9.823,0.31180497510463173,3.6712769506578002,1.6257142857142857,0,0.05
1757394356.5352368,-0.304,-0.46,9.865,0.3121752432528883,3.1990581760243506,1.6321804511278195,0,0.05
1757394356.5623534,-0.304,-0.46,9.865,0.3121752432528883,3.1990581760243506,1.6321804511278195,0,0.05
1757394356.589639,-0.356,-0.38,9.797,0.31268230282508797,3.0423885103286343,1.6347869674185462,0,0.05
1757394356.6167765,-0.356,-0.38,9.797,0.31268230282508797,3.0423885103286343,1.6347869674185462,0,0.05
1757394356.6434877,-0.304,-0.366,9.743,0.3130515332976346,2.79573765904388,1.6373934837092734,0,0.05
1757394356.6710782,-0.304,-0.366,9.743,0.3130515332976346,2.79573765904388,1.6373934837092734,0,0.05
1757394356.698017,-0.394,-0.362,9.93,0.3136707708729011,3.0842467780261194,1.6419047619047622,0,0.05
1757394356.7249327,-0.394,-0.362,9.93,0.3136707708729011,3.0842467780261194,1.6419047619047622,0,0.05
1757394356.7523186,-0.44,-0.167,9.892,0.3144413339559543,2.7238754726722374,1.6442105263157893,0,0.05
1757394356.7794356,-0.44,-0.167,9.892,0.3144413339559543,2.7238754726722374,1.6442105263157893,0,0.05
1757394356.8063884,-0.222,-0.312,9.799,0.31463719185754246,2.2378368093150143,1.6551378446115288,0,0.05
1757394356.8329508,-0.222,-0.312,9.799,0.31463719185754246,2.2378368093150143,1.6551378446115288,0,0.05
1757394356.859366,-0.391,-0.41,9.925,0.31524397694484185,3.267087212335044,1.663609022556391,0,0.05
1757394356.886835,-0.391,-0.41,9.925,0.31524397694484185,3.267087212335044,1.663609022556391,0,0.05
1757394356.9131348,-0.4,-0.487,9.995,0.3158777690816497,3.6078872617500397,1.6640601503759402,0,0.05
1757394356.9396837,-0.4,-0.487,9.995,0.3158777690816497,3.6078872617500397,1.6640601503759402,0,0.05
1757394356.9670136,-0.5,-0.511,9.854,0.3168655314167194,4.149651813081834,1.6690726817042607,0,0.05
1757394356.994567,-0.5,-0.511,9.854,0.3168655314167194,4.149651813081834,1.6690726817042607,0,0.05
1757394357.0217023,-0.362,-0.49,9.925,0.3173820647106575,3.5125198776472306,1.6759899749373435,0,0.05
1757394357.0485594,-0.362,-0.49,9.925,0.3173820647106575,3.5125198776472306,1.6759899749373435,0,0.05
1757394357.075684,-0.099,-0.505,9.821,0.3174206633160481,2.9995093959272827,1.6891729323308269,0,0.05
1757394357.1029873,-0.099,-0.505,9.821,0.3174206633160481,2.9995093959272827,1.6891729323308269,0,0.05
1757394357.13002,-0.138,-0.522,9.657,0.3174956495764942,3.200137267673325,1.691127819548872,0,0.05
1757394357.1562805,-0.138,-0.522,9.657,0.3174956495764942,3.200137267673325,1.691127819548872,0,0.05
1757394357.1828241,-0.275,-0.348,9.716,0.31779325040031925,2.613773218120776,1.6979949874686715,0,0.05
1757394357.2101774,-0.275,-0.348,9.716,0.31779325040031925,2.613773218120776,1.6979949874686715,0,0.05
1757394357.237302,-0.275,-0.348,9.716,0.31779325040031925,2.613773218120776,1.6979949874686715,0,0.05
1757394357.264804,-0.106,-0.478,9.805,0.31783744272819714,2.858686873682769,1.7064661654135338,0,0.05
1757394357.2901433,-0.27,-0.488,9.713,0.3181240166978909,3.286272351540833,1.7146867167919795,0,0.05
1757394357.3166754,-0.27,-0.488,9.713,0.3181240166978909,3.286272351540833,1.7146867167919795,0,0.05
1757394357.3429632,-0.35,-0.44,9.811,0.31860499054471825,3.27979634669985,1.7186967418546364,0,0.05
1757394357.371,-0.35,-0.44,9.811,0.31860499054471825,3.27979634669985,1.7186967418546364,0,0.05
1757394357.398584,-0.159,-0.215,9.811,0.3187041614099195,1.561252300677668,1.728270676691729,0,0.05
1757394357.425504,-0.159,-0.215,9.811,0.3187041614099195,1.561252300677668,1.728270676691729,0,0.05
1757394357.451643,-0.159,-0.215,9.811,0.3187041614099195,1.561252300677668,1.728270676691729,0,0.05
1757394357.4795215,-0.22,-0.325,9.68,0.31889393612924033,2.3216946113367767,1.731328320802005,0,0.05
1757394357.5073998,-0.285,-0.312,9.716,0.31921216298881844,2.4903738390232313,1.7345864661654136,0,0.05
1757394357.5341952,-0.285,-0.312,9.716,0.31921216298881844,2.4903738390232313,1.7345864661654136,0,0.05
1757394357.5620158,-0.078,-0.259,9.718,0.3192359863799819,1.5943560361596105,1.7449624060150377,0,0.05
1757394357.5885773,-0.078,-0.259,9.718,0.3192359863799819,1.5943560361596105,1.7449624060150377,0,0.05
1757394357.616083,-0.204,-0.242,9.662,0.31939889636628366,1.8762505630134616,1.7512781954887218,0,0.05
1757394357.643053,-0.204,-0.242,9.662,0.31939889636628366,1.8762505630134616,1.7512781954887218,0,0.05
1757394357.6700118,-0.084,-0.284,9.804,0.31942650954484036,1.7302815826648343,1.757293233082707,0,0.05
1757394357.6981966,-0.183,-0.242,9.7,0.31955753394341996,1.7915473906023582,1.7622556390977444,0,0.05
1757394357.72599,-0.183,-0.242,9.7,0.31955753394341996,1.7915473906023582,1.7622556390977444,0,0.05
1757394357.75333,-0.161,-0.311,9.601,0.3196589119671153,2.0889751800683936,1.763358395989975,0,0.05
1757394357.781065,-0.161,-0.311,9.601,0.3196589119671153,2.0889751800683936,1.763358395989975,0,0.05
1757394357.8082347,-0.103,-0.255,9.577,0.3197003949012262,1.6448728985956473,1.766265664160401,0,0.05
1757394357.8358471,-0.103,-0.255,9.577,0.3197003949012262,1.6448728985956473,1.766265664160401,0,0.05
1757394357.8628178,-0.103,-0.255,9.577,0.3197003949012262,1.6448728985956473,1.766265664160401,0,0.05
1757394357.8901792,-0.22,-0.379,9.47,0.31988957860486794,2.649475594443085,1.7721303258145362,0,0.05
1757394357.9181504,-0.194,-0.397,9.572,0.3200366111869078,2.6430276096644185,1.7734335839598996,0,0.05
1757394357.9456246,-0.194,-0.397,9.572,0.3200366111869078,2.6430276096644185,1.7734335839598996,0,0.05
1757394357.9733903,-0.171,-0.391,9.638,0.3201508004050591,2.535323203347462,1.7745864661654134,0,0.05
1757394358.0002854,-0.171,-0.391,9.638,0.3201508004050591,2.535323203347462,1.7745864661654134,0,0.05
1757394358.027826,-0.109,-0.462,9.694,0.3201971853405336,2.803351513751081,1.7776942355889722,0,0.05
1757394358.0556004,-0.109,-0.462,9.694,0.3201971853405336,2.803351513751081,1.7776942355889722,0,0.05
1757394358.083473,-0.197,-0.373,9.623,0.32034865381331007,2.5099701698512678,1.7821052631578946,0,0.05
1757394358.1109877,-0.197,-0.373,9.623,0.32034865381331007,2.5099701698512678,1.7821052631578946,0,0.05
1757394358.138137,-0.001,-0.369,9.525,0.3203486577153087,2.218546243200829,1.7919298245614035,0,0.05
1757394358.1649039,-0.001,-0.369,9.525,0.3203486577153087,2.218546243200829,1.7919298245614035,0,0.05
1757394358.1923604,-0.178,-0.369,9.435,0.32047226479057433,2.4863496471820548,1.8008020050125313,0,0.05
1757394358.2199402,-0.178,-0.369,9.435,0.32047226479057433,2.4863496471820548,1.8008020050125313,0,0.05
1757394358.2471626,0.022,-0.448,9.49,0.32047415262388945,2.7060410143449825,1.810827067669173,0,0.05
1757394358.2741394,0.022,-0.448,9.49,0.32047415262388945,2.7060410143449825,1.810827067669173,0,0.05
1757394358.3018086,-0.293,-0.523,9.532,0.3208088293672729,3.5986758374229906,1.8266165413533837,0,0.05
1757394358.3299565,-0.293,-0.523,9.532,0.3208088293672729,3.5986758374229906,1.8266165413533837,0,0.05
1757394358.3572574,-0.293,-0.523,9.532,0.3208088293672729,3.5986758374229906,1.8266165413533837,0,0.05
1757394358.384809,-0.234,-0.401,9.749,0.32102210983046015,2.726563545070572,1.8295739348370927,0,0.05
1757394358.4118772,-0.33,-0.431,9.727,0.32144586636010736,3.1941463243642816,1.8343859649122807,0,0.05
1757394358.4399612,-0.33,-0.431,9.727,0.32144586636010736,3.1941463243642816,1.8343859649122807,0,0.05
1757394358.4667213,-0.318,-0.38,9.725,0.32183886496195574,2.9167862349695564,1.8349874686716792,0,0.05
1757394358.4943225,-0.318,-0.38,9.725,0.32183886496195574,2.9167862349695564,1.8349874686716792,0,0.05
1757394358.521131,-0.173,-0.378,9.698,0.3219550861533329,2.454499076019111,1.8422556390977443,0,0.05
1757394358.5483835,-0.173,-0.378,9.698,0.3219550861533329,2.454499076019111,1.8422556390977443,0,0.05
1757394358.575822,-0.117,-0.358,9.626,0.3220082297084967,2.240652790990949,1.845062656641604,0,0.05
1757394358.6037366,-0.117,-0.358,9.626,0.3220082297084967,2.240652790990949,1.845062656641604,0,0.05
1757394358.6310549,-0.176,-0.331,9.693,0.32212845263962636,2.2148451065865182,1.8480200501253132,0,0.05
1757394358.6584508,-0.176,-0.331,9.693,0.32212845263962636,2.2148451065865182,1.8480200501253132,0,0.05
1757394358.68562,-0.154,-0.533,9.617,0.3222204680028877,3.301716294159442,1.8491228070175438,0,0.05
1757394358.7134788,-0.154,-0.533,9.617,0.3222204680028877,3.301716294159442,1.8491228070175438,0,0.05
1757394358.7401214,0.149,-0.242,9.53,0.3223065815337937,1.7080974483995939,1.8643107769423557,0,0.05
1757394358.7673626,0.149,-0.242,9.53,0.3223065815337937,1.7080974483995939,1.8643107769423557,0,0.05
1757394358.794576,-0.141,-0.35,9.616,0.32238367669595186,2.2471467630899036,1.878847117794486,0,0.05
1757394358.822176,-0.141,-0.35,9.616,0.32238367669595186,2.2471467630899036,1.878847117794486,0,0.05
1757394358.849369,0.084,-0.387,9.663,0.32241103424045525,2.3467959976693074,1.8901253132832083,0,0.05
1757394358.8770773,0.084,-0.387,9.663,0.32241103424045525,2.3467959976693074,1.8901253132832083,0,0.05
1757394358.9044428,0.156,-0.368,9.556,0.3225053720482808,2.3951209081632565,1.8937343358395993,0,0.05
1757394358.9316103,0.156,-0.368,9.556,0.3225053720482808,2.3951209081632565,1.8937343358395993,0,0.05
1757394358.9590216,0.164,-0.447,9.623,0.3226096015310146,2.8326222594539594,1.8941353383458646,0,0.05
1757394358.9856236,0.164,-0.447,9.623,0.3226096015310146,2.8326222594539594,1.8941353383458646,0,0.05
1757394359.0122423,0.013,-0.363,9.651,0.32261025634657065,2.155412153375135,1.901704260651629,0,0.05
1757394359.0397074,0.013,-0.363,9.651,0.32261025634657065,2.155412153375135,1.901704260651629,0,0.05
1757394359.0678687,-0.023,-0.163,9.578,0.322612306026909,0.9846313586600602,1.9035087719298245,0,0.05
1757394359.0960646,-0.023,-0.163,9.578,0.322612306026909,0.9846313586600602,1.9035087719298245,0,0.05
1757394359.123432,-0.023,-0.383,9.61,0.3226143556942251,2.2863835765234795,1.9035087719298245,0,0.05
1757394359.1502671,-0.023,-0.383,9.61,0.3226143556942251,2.2863835765234795,1.9035087719298245,0,0.05
1757394359.178586,-0.096,-0.306,9.554,0.3226500619866669,1.9225636478335932,1.9071679197994986,0,0.05
1757394359.2064931,-0.096,-0.306,9.554,0.3226500619866669,1.9225636478335932,1.9071679197994986,0,0.05
1757394359.2342172,-0.209,-0.233,9.674,0.32281924508926046,1.853154490198302,1.9128320802005012,0,0.05
1757394359.2612255,-0.209,-0.233,9.674,0.32281924508926046,1.853154490198302,1.9128320802005012,0,0.05
1757394359.288322,-0.292,-0.206,9.57,0.3231492302327208,2.1384761671606882,1.9169924812030075,0,0.05
1757394359.3148263,-0.292,-0.206,9.57,0.3231492302327208,2.1384761671606882,1.9169924812030075,0,0.05
1757394359.3412058,-0.303,-0.174,9.622,0.32350416921579234,2.0796854220426018,1.9175438596491226,0,0.05
1757394359.3689368,-0.303,-0.174,9.622,0.32350416921579234,2.0796854220426018,1.9175438596491226,0,0.05
1757394359.396662,-0.075,-0.096,9.538,0.32352590313605495,0.7317677779930135,1.9289724310776941,0,0.05
1757394359.42475,-0.075,-0.096,9.538,0.32352590313605495,0.7317677779930135,1.9289724310776941,0,0.05
1757394359.4527652,-0.448,-0.286,9.626,0.3243004316987568,3.1604230921574445,1.9476691729323308,0,0.05
1757394359.4800081,-0.448,-0.286,9.626,0.3243004316987568,3.1604230921574445,1.9476691729323308,0,0.05
1757394359.5064902,-0.296,-0.304,9.71,0.3246379675885124,2.502085009411951,1.9552882205513782,0,0.05
1757394359.5327828,-0.296,-0.304,9.71,0.3246379675885124,2.502085009411951,1.9552882205513782,0,0.05
1757394359.558973,-0.349,-0.411,9.716,0.3251066171273664,3.1763535937500644,1.9579448621553885,0,0.05
1757394359.585667,-0.349,-0.411,9.716,0.3251066171273664,3.1763535937500644,1.9579448621553885,0,0.05
1757394359.612131,-0.367,-0.378,9.711,0.32562407005625366,3.1054298957224966,1.958847117794486,0,0.05
1757394359.639244,-0.367,-0.378,9.711,0.32562407005625366,3.1054298957224966,1.958847117794486,0,0.05
1757394359.6657705,-0.348,-0.418,9.711,0.32608863058990567,3.2057142604745046,1.959799498746867,0,0.05
1757394359.6929786,-0.348,-0.418,9.711,0.32608863058990567,3.2057142604745046,1.959799498746867,0,0.05
1757394359.720104,-0.472,-0.277,9.742,0.3269415161768233,3.215334126581371,1.9660150375939849,0,0.05
1757394359.7469194,-0.472,-0.277,9.742,0.3269415161768233,3.215334126581371,1.9660150375939849,0,0.05
1757394359.772979,-0.144,-0.454,9.586,0.32702078680108393,2.844457932630038,1.9824561403508771,0,0.05
1757394359.800006,-0.144,-0.454,9.586,0.32702078680108393,2.844457932630038,1.9824561403508771,0,0.05
1757394359.826948,-0.533,-0.489,9.737,0.3281048879550562,4.248528061926029,2.0019548872180453,0,0.05
1757394359.8543966,-0.533,-0.489,9.737,0.3281048879550562,4.248528061926029,2.0019548872180453,0,0.05
1757394359.8815694,-0.507,-0.436,9.835,0.32908272516192644,3.889596797191578,2.0032581453634086,0,0.05
1757394359.9088013,-0.507,-0.436,9.835,0.32908272516192644,3.889596797191578,2.0032581453634086,0,0.05
1757394359.9367201,-0.507,-0.436,9.835,0.32908272516192644,3.889596797191578,2.0032581453634086,0,0.05
1757394359.9650755,-0.507,-0.436,9.835,0.32908272516192644,3.889596797191578,2.0032581453634086,0,0.05
1757394359.9930043,-0.295,-0.439,9.686,0.3294131182876602,3.1255684248078546,2.0138847117794487,0,0.05
1757394360.020884,-0.553,-0.32,9.626,0.33057151268674073,3.797357819641374,2.0268170426065164,0,0.05
1757394360.0469022,-0.466,-0.279,9.771,0.33139163387146636,3.1816009874332205,2.0311779448621556,0,0.05
1757394360.0743136,-0.466,-0.279,9.771,0.33139163387146636,3.1816009874332205,2.0311779448621556,0,0.05
1757394360.1021163,-0.727,-0.273,9.801,0.3333792697514349,4.530283916001164,2.0442606516290724,0,0.05
1757394360.129774,-0.396,-0.291,9.775,0.3339667311275181,2.8780362139317197,2.0608521303258143,0,0.05
1757394360.1564395,-0.396,-0.291,9.775,0.3339667311275181,2.8780362139317197,2.0608521303258143,0,0.05
1757394360.1837816,-0.396,-0.291,9.775,0.3339667311275181,2.8780362139317197,2.0608521303258143,0,0.05
1757394360.2110546,-0.608,-0.385,9.741,0.3353474876900079,4.225218528681551,2.071478696741855,0,0.05
1757394360.2390475,-0.608,-0.385,9.741,0.3353474876900079,4.225218528681551,2.071478696741855,0,0.05
1757394360.2657917,-0.431,-0.445,9.701,0.3360391941425881,3.6539396453865063,2.0803508771929824,0,0.05
1757394360.2932932,-0.671,-0.398,9.773,0.3377098495750457,4.5641172213984165,2.0923809523809522,0,0.05
1757394360.3205924,-0.671,-0.398,9.773,0.3377098495750457,4.5641172213984165,2.0923809523809522,0,0.05
1757394360.3477554,-0.534,-0.539,9.813,0.33876368238050547,4.421270269549352,2.099248120300752,0,0.05
1757394360.374322,-0.534,-0.539,9.813,0.33876368238050547,4.421270269549352,2.099248120300752,0,0.05
1757394360.4014783,-0.566,-0.477,9.879,0.33994370489832576,4.28492899329288,2.1008521303258147,0,0.05
1757394360.428251,-0.566,-0.477,9.879,0.33994370489832576,4.28492899329288,2.1008521303258147,0,0.05
1757394360.455457,-0.566,-0.477,9.879,0.33994370489832576,4.28492899329288,2.1008521303258147,0,0.05
1757394360.4834676,-0.451,-0.383,9.764,0.3406908055700946,3.4677993095918924,2.1066165413533833,0,0.05
1757394360.5098307,-0.296,-0.323,9.776,0.3410121185529922,2.5660159144922297,2.1143859649122807,0,0.05
1757394360.535364,-0.296,-0.323,9.776,0.3410121185529922,2.5660159144922297,2.1143859649122807,0,0.05
1757394360.5624175,-0.397,-0.224,9.715,0.34158935507418847,2.686386648937087,2.1194486215538846,0,0.05
1757394360.5898755,-0.397,-0.224,9.715,0.34158935507418847,2.686386648937087,2.1194486215538846,0,0.05
1757394360.6170611,-0.397,-0.224,9.715,0.34158935507418847,2.686386648937087,2.1194486215538846,0,0.05
1757394360.6428797,-0.348,-0.087,9.526,0.3420322316683035,2.156505761315354,2.1219047619047617,0,0.05
1757394360.670086,-0.572,0.016,9.729,0.34322588407636156,3.366047581996051,2.1331328320802005,0,0.05
1757394360.6978374,-0.572,0.016,9.729,0.34322588407636156,3.366047581996051,2.1331328320802005,0,0.05
1757394360.7251778,-0.387,0.008,9.671,0.34377089754660733,2.292045491787048,2.1424060150375936,0,0.05
1757394360.7533705,-0.387,0.008,9.671,0.34377089754660733,2.292045491787048,2.1424060150375936,0,0.05
1757394360.7799306,-0.616,0.034,9.798,0.3451478958359735,3.602910498719057,2.1538847117794484,0,0.05
1757394360.8069315,-0.616,0.034,9.798,0.3451478958359735,3.602910498719057,2.1538847117794484,0,0.05
1757394360.834302,-0.554,-0.201,9.619,0.34625764973499146,3.5060103843921633,2.1569924812030075,0,0.05
1757394360.8618572,-0.554,-0.201,9.619,0.34625764973499146,3.5060103843921633,2.1569924812030075,0,0.05
1757394360.8882916,-0.454,-0.285,9.818,0.3470009365981596,3.12512524313242,2.162005012531328,0,0.05
1757394360.9144166,-0.454,-0.285,9.818,0.3470009365981596,3.12512524313242,2.162005012531328,0,0.05
1757394360.9416842,-0.432,-0.352,9.939,0.3476725614712786,3.209045488860196,2.1631077694235588,0,0.05
1757394360.969032,-0.432,-0.352,9.939,0.3476725614712786,3.209045488860196,2.1631077694235588,0,0.05
1757394360.9967933,-0.666,-0.353,9.997,0.34926365399222403,4.3119051834372515,2.1748370927318295,0,0.2
1757394361.0240715,-0.666,-0.353,9.997,0.34926365399222403,4.3119051834372515,2.1748370927318295,0,0.2
1757394361.0517156,-0.666,-0.353,9.997,0.34926365399222403,4.3119051834372515,2.1748370927318295,0,0.2
1757394361.0790343,-0.551,-0.334,9.975,0.35034854430980583,3.695838474277662,2.1806015037593984,0,0.2
1757394361.1056628,-0.528,-0.312,9.995,0.35134180294977707,3.511264191879371,2.1817543859649122,0,0.2
1757394361.1317494,-0.528,-0.312,9.995,0.35134180294977707,3.511264191879371,2.1817543859649122,0,0.2
1757394361.1583376,-0.535,-0.373,9.846,0.35235865960694085,3.78969352981109,2.1821052631578945,0,0.2
1757394361.185268,-0.535,-0.373,9.846,0.35235865960694085,3.78969352981109,2.1821052631578945,0,0.2
1757394361.2130837,-0.424,-0.434,9.813,0.3529958427517242,3.538099995293318,2.1876691729323303,0,0.2
1757394361.240624,-0.424,-0.434,9.813,0.3529958427517242,3.538099995293318,2.1876691729323303,0,0.2
1757394361.2674673,-0.472,-0.539,9.8,0.35378386763672537,4.18130998541016,2.1900751879699247,0,0.2
1757394361.2941155,-0.472,-0.539,9.8,0.35378386763672537,4.18130998541016,2.1900751879699247,0,0.2
1757394361.3213813,-0.436,-0.388,9.669,0.35445488429417926,3.4543175401515533,2.19187969924812,0,0.2
1757394361.348762,-0.436,-0.388,9.669,0.35445488429417926,3.4543175401515533,2.19187969924812,0,0.2
1757394361.376275,-0.295,-0.382,9.677,0.35476164885737016,2.8553055413698956,2.1989473684210528,0,0.2
1757394361.4039736,-0.295,-0.382,9.677,0.35476164885737016,2.8553055413698956,2.1989473684210528,0,0.2
1757394361.431181,-0.287,-0.32,9.571,0.35505175679047135,2.571509474809985,2.1993483709273183,0,0.2
1757394361.4587688,-0.287,-0.32,9.571,0.35505175679047135,2.571509474809985,2.1993483709273183,0,0.2
1757394361.4861228,-0.176,-0.333,9.436,0.3551607945705719,2.2858189863641893,2.2049122807017545,0,0.2
1757394361.513434,-0.176,-0.333,9.436,0.3551607945705719,2.2858189863641893,2.2049122807017545,0,0.2
1757394361.5409288,-0.384,-0.435,9.534,0.35567939214972805,3.4827431130141084,2.215338345864662,0,0.2
1757394361.5686736,-0.384,-0.435,9.534,0.35567939214972805,3.4827431130141084,2.215338345864662,0,0.2
1757394361.5958672,-0.162,-0.315,9.612,0.35577161213340225,2.110476931224922,2.226466165413534,0,0.2
1757394361.6230383,-0.162,-0.315,9.612,0.35577161213340225,2.110476931224922,2.226466165413534,0,0.2
1757394361.6499195,-0.298,-0.331,9.634,0.35608348740148005,2.6469113963315967,2.2332832080200506,0,0.2
1757394361.6773381,-0.298,-0.331,9.634,0.35608348740148005,2.6469113963315967,2.2332832080200506,0,0.2
1757394361.704622,-0.232,-0.369,9.663,0.3562723817530627,2.5827122311433093,2.236591478696742,0,0.2
1757394361.732327,-0.232,-0.369,9.663,0.3562723817530627,2.5827122311433093,2.236591478696742,0,0.2
1757394361.7595265,-0.354,-0.305,9.793,0.356711788423091,2.7317771344980772,2.2427067669172938,0,0.2
1757394361.7870712,-0.354,-0.305,9.793,0.356711788423091,2.7317771344980772,2.2427067669172938,0,0.2
1757394361.8144886,-0.264,-0.273,9.669,0.35695593565592937,2.249252275579079,2.247218045112782,0,0.2
1757394361.8425076,-0.264,-0.273,9.669,0.35695593565592937,2.249252275579079,2.247218045112782,0,0.2
1757394361.8700647,-0.092,-0.353,9.702,0.35698557393821956,2.153286424792514,2.2558395989974938,0,0.2
1757394361.8975923,-0.092,-0.353,9.702,0.35698557393821956,2.153286424792514,2.2558395989974938,0,0.2
1757394361.9242003,-0.369,-0.478,9.923,0.35746202945208044,3.482407014853398,2.2697243107769425,0,0.2
1757394361.9500158,-0.369,-0.478,9.923,0.35746202945208044,3.482407014853398,2.2697243107769425,0,0.2
1757394361.9773836,-0.238,-0.411,9.914,0.3576600515853008,2.7426960158413736,2.2762907268170425,0,0.2
1757394362.0049086,-0.238,-0.411,9.914,0.3576600515853008,2.7426960158413736,2.2762907268170425,0,0.2
1757394362.0313294,-0.257,-0.354,9.836,0.35789081435544,2.5465327629787375,2.2772431077694235,0,0.2
1757394362.0589387,-0.257,-0.354,9.836,0.35789081435544,2.5465327629787375,2.2772431077694235,0,0.2
1757394362.0863545,-0.199,-0.422,9.873,0.35802910147081624,2.7056073444468463,2.28015037593985,0,0.2
1757394362.1136463,-0.199,-0.422,9.873,0.35802910147081624,2.7056073444468463,2.28015037593985,0,0.2
1757394362.139838,-0.455,-0.482,10.038,0.35875116724548783,3.777898061212219,2.292982456140351,0,0.2
1757394362.167284,-0.455,-0.482,10.038,0.35875116724548783,3.777898061212219,2.292982456140351,0,0.2
1757394362.1936338,-0.455,-0.482,10.038,0.35875116724548783,3.777898061212219,2.292982456140351,0,0.2
1757394362.2208455,-0.198,-0.501,9.923,0.35888774010824054,3.107463028777513,2.3058646616541356,0,0.2
1757394362.2476685,-0.287,-0.553,9.942,0.3591745153821468,3.585888462581297,2.310325814536341,0,0.2
1757394362.2747118,-0.287,-0.553,9.942,0.3591745153821468,3.585888462581297,2.310325814536341,0,0.2
1757394362.301979,-0.151,-0.555,9.985,0.35925385871274923,3.296816004243279,2.317142857142857,0,0.2
1757394362.3295622,-0.151,-0.555,9.985,0.35925385871274923,3.296816004243279,2.317142857142857,0,0.2
1757394362.3569496,-0.412,-0.551,9.919,0.35984398702771175,3.9677893977171617,2.3302255639097744,0,0.2
1757394362.384123,-0.412,-0.551,9.919,0.35984398702771175,3.9677893977171617,2.3302255639097744,0,0.2
1757394362.4103765,-0.339,-0.429,9.903,0.36024297009102063,3.1602622147643427,2.3338847117794486,0,0.2
1757394362.437794,-0.339,-0.429,9.903,0.36024297009102063,3.1602622147643427,2.3338847117794486,0,0.2
1757394362.4652429,-0.095,-0.442,9.933,0.36027428440009424,2.6059815508548287,2.346115288220551,0,0.2
1757394362.4930055,-0.095,-0.442,9.933,0.36027428440009424,2.6059815508548287,2.346115288220551,0,0.2
1757394362.5205247,-0.174,-0.53,9.913,0.36037931405673107,3.2207927938720156,2.350075187969925,0,0.2
1757394362.5483422,-0.174,-0.53,9.913,0.36037931405673107,3.2207927938720156,2.350075187969925,0,0.2
1757394362.5757957,-0.323,-0.416,9.878,0.3607410047388569,3.0519967488514808,2.357543859649123,0,0.2
1757394362.6034844,-0.323,-0.416,9.878,0.3607410047388569,3.0519967488514808,2.357543859649123,0,0.2
1757394362.6308484,-0.106,-0.435,9.93,0.36077993638782074,2.5816317066419767,2.3684210526315788,0,0.2
1757394362.6578665,-0.106,-0.435,9.93,0.36077993638782074,2.5816317066419767,2.3684210526315788,0,0.2
1757394362.6853917,-0.413,-0.614,9.818,0.3613704262941283,4.310196994570228,2.3838095238095236,0,0.2
1757394362.7129343,-0.413,-0.614,9.818,0.3613704262941283,4.310196994570228,2.3838095238095236,0,0.2
1757394362.740432,-0.16,-0.658,9.664,0.36145896724247967,4.008264705796945,2.3964912280701753,0,0.2
1757394362.7679963,-0.16,-0.658,9.664,0.36145896724247967,4.008264705796945,2.3964912280701753,0,0.2
1757394362.7954118,-0.087,-0.604,9.648,0.36148514146504,3.6191225759360135,2.4001503759398495,0,0.2
1757394362.8228016,-0.087,-0.604,9.648,0.36148514146504,3.6191225759360135,2.4001503759398495,0,0.2
1757394362.850661,-0.247,-0.593,9.735,0.3616960464257247,3.7753102550776987,2.4081704260651624,0,0.2
1757394362.8783042,-0.247,-0.593,9.735,0.3616960464257247,3.7753102550776987,2.4081704260651624,0,0.2
1757394362.9056146,-0.208,-0.743,9.682,0.36184553334261294,4.556311555889399,2.4101253132832077,0,0.2
1757394362.9317656,-0.208,-0.743,9.682,0.36184553334261294,4.556311555889399,2.4101253132832077,0,0.2
1757394362.9586272,-0.232,-0.606,9.751,0.3620314212882633,3.807199380047608,2.4113283208020047,0,0.2
1757394362.985875,-0.232,-0.606,9.751,0.3620314212882633,3.807199380047608,2.4113283208020047,0,0.2
1757394363.013046,-0.007,-0.238,9.779,0.3620315904724338,1.394784475390028,2.4226065162907267,0,0.2
1757394363.0406897,-0.007,-0.238,9.779,0.3620315904724338,1.394784475390028,2.4226065162907267,0,0.2
1757394363.068129,-0.157,-0.369,9.7,0.36211668699467575,2.3673375586527627,2.4301253132832077,0,0.2
1757394363.0958154,-0.157,-0.369,9.7,0.36211668699467575,2.3673375586527627,2.4301253132832077,0,0.2
1757394363.1232781,-0.239,-0.269,9.671,0.362313810804943,2.130863616002456,2.4342355889724305,0,0.2
1757394363.150281,-0.239,-0.269,9.671,0.362313810804943,2.130863616002456,2.4342355889724305,0,0.2
1757394363.17768,-0.162,-0.313,9.795,0.3624043425512448,2.0606982409139185,2.438095238095238,0,0.2
1757394363.205361,-0.162,-0.313,9.795,0.3624043425512448,2.0606982409139185,2.438095238095238,0,0.2
1757394363.2321906,-0.24,-0.225,9.726,0.36260296123997665,1.9372542525808398,2.442005012531328,0,0.2
1757394363.25836,-0.24,-0.225,9.726,0.36260296123997665,1.9372542525808398,2.442005012531328,0,0.2
1757394363.284404,-0.063,-0.33,9.73,0.3626166433025379,1.977537060766695,2.4508771929824564,0,0.2
1757394363.3120627,-0.063,-0.33,9.73,0.3626166433025379,1.977537060766695,2.4508771929824564,0,0.2
1757394363.3397286,-0.429,-0.451,9.816,0.3632505092907648,3.6283597394759504,2.4692230576441103,0,0.2
1757394363.3675106,-0.171,-0.576,9.786,0.3633511180662583,3.513471247361562,2.482155388471178,0,0.2
1757394363.3950105,-0.171,-0.576,9.786,0.3633511180662583,3.513471247361562,2.482155388471178,0,0.2
1757394363.4222548,-0.171,-0.576,9.786,0.3633511180662583,3.513471247361562,2.482155388471178,0,0.2
1757394363.448884,-0.228,-0.484,9.735,0.3635299093609768,3.1456845389147405,2.485012531328321,0,0.2
1757394363.4766145,-0.228,-0.484,9.735,0.3635299093609768,3.1456845389147405,2.485012531328321,0,0.2
1757394363.504287,-0.202,-0.627,9.844,0.36367018712014326,3.8283829312308675,2.4863157894736845,0,0.2
1757394363.5300508,-0.202,-0.627,9.844,0.36367018712014326,3.8283829312308675,2.4863157894736845,0,0.2
1757394363.5573874,-0.17,-0.548,9.924,0.3637695080679523,3.308912089900862,2.487919799498747,0,0.2
1757394363.5847406,-0.17,-0.548,9.924,0.3637695080679523,3.308912089900862,2.487919799498747,0,0.2
1757394363.6124144,-0.132,-0.442,9.685,0.36382937621912825,2.7268954681623754,2.4898245614035086,0,0.2
1757394363.6398094,-0.004,-0.4,9.657,0.3638294311899465,2.3719956921050676,2.496240601503759,0,0.2
1757394363.6676054,-0.004,-0.4,9.657,0.3638294311899465,2.3719956921050676,2.496240601503759,0,0.2
1757394363.694943,-0.217,-0.352,9.612,0.36399117777770384,2.4633738421718094,2.5069172932330823,0,0.2
1757394363.722438,-0.217,-0.352,9.612,0.36399117777770384,2.4633738421718094,2.5069172932330823,0,0.2
1757394363.7498717,-0.076,-0.355,9.56,0.36401101288285226,2.1747806196445656,2.5139849624060147,0,0.2
1757394363.777229,-0.076,-0.355,9.56,0.36401101288285226,2.1747806196445656,2.5139849624060147,0,0.2
1757394363.8046844,-0.253,-0.289,9.527,0.36423075103565866,2.308721243144243,2.5228571428571427,0,0.2
1757394363.8322265,-0.253,-0.289,9.527,0.36423075103565866,2.308721243144243,2.5228571428571427,0,0.2
1757394363.8597307,-0.206,-0.254,9.464,0.36437635763040394,1.9791084001507362,2.5252130325814535,0,0.2
1757394363.88732,-0.206,-0.254,9.464,0.36437635763040394,1.9791084001507362,2.5252130325814535,0,0.2
1757394363.9148216,-0.216,-0.157,9.489,0.3645363767856371,1.6119351870159082,2.525714285714286,0,0.2
1757394363.9422479,-0.216,-0.157,9.489,0.3645363767856371,1.6119351870159082,2.525714285714286,0,0.2
1757394363.9696517,-0.382,-0.077,9.619,0.3650364091429785,2.31988777036798,2.534035087719298,0,0.2
1757394363.996018,-0.382,-0.077,9.619,0.3650364091429785,2.31988777036798,2.534035087719298,0,0.2
1757394364.0229135,-0.302,-0.165,9.547,0.36534858696866473,2.0644137708732626,2.5380451127819548,0,0.2
1757394364.0504074,-0.302,-0.165,9.547,0.36534858696866473,2.0644137708732626,2.5380451127819548,0,0.2
1757394364.0776558,-0.217,-0.203,9.601,0.36550966129501966,1.7727315907800576,2.5423057644110276,0,0.2
1757394364.1048741,-0.217,-0.203,9.601,0.36550966129501966,1.7727315907800576,2.5423057644110276,0,0.2
1757394364.1319072,-0.241,-0.264,9.678,0.36570823753369297,2.1152708534548874,2.5202005012531328,0,0.2
1757394364.1594603,-0.241,-0.264,9.678,0.36570823753369297,2.1152708534548874,2.5202005012531328,0,0.2
1757394364.1869705,-0.306,-0.2,9.576,0.36528898491468365,2.18619749946892,2.5228070175438595,0,0.2
1757394364.214327,-0.306,-0.2,9.576,0.36528898491468365,2.18619749946892,2.5228070175438595,0,0.2
1757394364.2415164,-0.235,-0.328,9.814,0.3647784875784207,2.3543512338533965,2.5261152882205513,0,0.2
1757394364.2678766,-0.235,-0.328,9.814,0.3647784875784207,2.3543512338533965,2.5261152882205513,0,0.2
1757394364.2954922,-0.371,-0.259,9.867,0.3645343948106955,2.625521809387332,2.532882205513784,0,0.2
1757394364.322798,-0.371,-0.259,9.867,0.3645343948106955,2.625521809387332,2.532882205513784,0,0.2
1757394364.350036,-0.323,-0.367,9.752,0.36417894983098625,2.869992771981146,2.534887218045113,0,0.2
1757394364.3771307,-0.323,-0.367,9.752,0.36417894983098625,2.869992771981146,2.534887218045113,0,0.2
1757394364.404522,-0.219,-0.369,9.669,0.36365430012582,2.541025664901964,2.54,0,0.2
1757394364.4319186,-0.219,-0.369,9.669,0.36365430012582,2.541025664901964,2.54,0,0.2
1757394364.4593472,-0.257,-0.365,9.677,0.36319730519374727,2.641188736111547,2.541754385964912,0,0.2
1757394364.4858928,-0.257,-0.365,9.677,0.36319730519374727,2.641188736111547,2.541754385964912,0,0.2
1757394364.5118272,-0.213,-0.418,9.538,0.3626776564664551,2.8159086699175035,2.5439097744360897,0,0.2
1757394364.5383604,-0.213,-0.418,9.538,0.3626776564664551,2.8159086699175035,2.5439097744360897,0,0.2
1757394364.5655422,-0.199,-0.501,9.563,0.36213429138925796,3.226401358501025,2.5445614035087716,0,0.2
1757394364.592741,-0.199,-0.501,9.563,0.36213429138925796,3.226401358501025,2.5445614035087716,0,0.2
1757394364.6201854,-0.061,-0.484,9.673,0.3614691203961965,2.8870954971555505,2.551228070175438,0,0.2
1757394364.6477494,-0.061,-0.484,9.673,0.3614691203961965,2.8870954971555505,2.551228070175438,0,0.2
1757394364.6755989,-0.234,-0.548,9.593,0.36099474372904655,3.554360319464784,2.559749373433583,0,0.2
1757394364.7032843,-0.234,-0.548,9.593,0.36099474372904655,3.554360319464784,2.559749373433583,0,0.2
1757394364.7306802,-0.132,-0.534,9.555,0.36039936528800937,3.2948295944783843,2.564611528822055,0,0.2
1757394364.758096,-0.132,-0.534,9.555,0.36039936528800937,3.2948295944783843,2.564611528822055,0,0.2
1757394364.785522,-0.03,-0.462,9.489,0.359730388624592,2.7932743401348534,2.5696240601503755,0,0.2
1757394364.8129232,-0.03,-0.462,9.489,0.359730388624592,2.7932743401348534,2.5696240601503755,0,0.2
1757394364.8404195,-0.187,-0.439,9.456,0.35918486187477333,2.888809624606891,2.576992481203007,0,0.2
1757394364.8679035,-0.187,-0.439,9.456,0.35918486187477333,2.888809624606891,2.576992481203007,0,0.2
1757394364.895242,-0.292,-0.548,9.56,0.3588439284703031,3.716255941014233,2.5820551378446117,0,0.2
1757394364.922295,-0.292,-0.548,9.56,0.3588439284703031,3.716255941014233,2.5820551378446117,0,0.2
1757394364.9492679,-0.051,-0.466,9.742,0.3582262239144421,2.7549327231990386,2.5935338345864665,0,0.2
1757394364.9768283,-0.051,-0.466,9.742,0.3582262239144421,2.7549327231990386,2.5935338345864665,0,0.2
1757394365.0044034,-0.074,-0.514,9.336,0.35765256534799245,3.183702076760874,2.594335839598997,0,0.2
1757394365.0317538,-0.074,-0.514,9.336,0.35765256534799245,3.183702076760874,2.594335839598997,0,0.2
1757394365.059096,-0.215,-0.57,9.637,0.3572406156920011,3.6171238823781264,2.6004010025062656,0,0.2
1757394365.0866687,-0.215,-0.57,9.637,0.3572406156920011,3.6171238823781264,2.6004010025062656,0,0.2
1757394365.1141431,-0.284,-0.442,9.803,0.3570041106205922,3.067740508482942,2.603809523809524,0,0.2
1757394365.141577,-0.284,-0.442,9.803,0.3570041106205922,3.067740508482942,2.603809523809524,0,0.2
1757394365.168239,-0.269,-0.327,9.659,0.3567356829642922,2.5100971629595956,2.6045112781954884,0,0.2
1757394365.1936316,-0.269,-0.327,9.659,0.3567356829642922,2.5100971629595956,2.6045112781954884,0,0.2
1757394365.2217138,-0.343,-0.425,9.876,0.35662311688952525,3.1652435246432824,2.607167919799499,0,0.2
1757394365.249458,-0.343,-0.425,9.876,0.35662311688952525,3.1652435246432824,2.607167919799499,0,0.2
1757394365.2769744,-0.543,-0.429,9.964,0.3571866178904244,3.972921372818355,2.6162907268170428,0,0.2
1757394365.3045192,-0.543,-0.429,9.964,0.3571866178904244,3.972921372818355,2.6162907268170428,0,0.2
1757394365.3320312,-0.432,-0.376,9.907,0.3574158362468009,3.3085241209513145,2.6211027568922303,0,0.2
1757394365.3592722,-0.432,-0.376,9.907,0.3574158362468009,3.3085241209513145,2.6211027568922303,0,0.2
1757394365.3866537,-0.445,-0.36,10.009,0.3577204495133036,3.273012745619772,2.621754385964912,0,0.2
1757394365.4141076,-0.445,-0.36,10.009,0.3577204495133036,3.273012745619772,2.621754385964912,0,0.2
1757394365.441625,-0.631,-0.358,10.09,0.35872287353889215,4.112555154370117,2.6305263157894734,0,0.2
1757394365.4693203,-0.631,-0.358,10.09,0.35872287353889215,4.112555154370117,2.6305263157894734,0,0.2
1757394365.4968705,-0.672,-0.414,9.985,0.35993311878736584,4.519698738341811,2.63203007518797,0,0.2
1757394365.524874,-0.672,-0.414,9.985,0.35993311878736584,4.519698738341811,2.63203007518797,0,0.2
1757394365.552401,-0.465,-0.217,9.888,0.36034790133980243,2.9707200946194487,2.641754385964912,0,0.2
1757394365.5802362,-0.465,-0.217,9.888,0.36034790133980243,2.9707200946194487,2.641754385964912,0,0.2
1757394365.6065168,-0.519,-0.127,9.831,0.36097368671414265,3.11095201547595,2.6440601503759398,0,0.2
1757394365.634188,-0.519,-0.127,9.831,0.36097368671414265,3.11095201547595,2.6440601503759398,0,0.2
1757394365.6617136,-0.485,-0.09,9.788,0.3614966320728314,2.8850594629038078,2.6452631578947368,0,0.2
1757394365.6894062,-0.485,-0.09,9.788,0.3614966320728314,2.8850594629038078,2.6452631578947368,0,0.2
1757394365.7166443,-0.568,-0.074,9.794,0.3623401371639637,3.347119487104262,2.6491228070175437,0,0.2
1757394365.7443047,-0.568,-0.074,9.794,0.3623401371639637,3.347119487104262,2.6491228070175437,0,0.2
1757394365.7720215,-0.344,-0.064,9.771,0.36248934467098476,2.0509050318334454,2.6601002506265665,0,0.2
1757394365.799649,-0.418,-0.165,9.659,0.3628421592097589,2.663779397538244,2.6635087719298247,0,0.2
1757394365.8270457,-0.418,-0.165,9.659,0.3628421592097589,2.663779397538244,2.6635087719298247,0,0.2
1757394365.8545618,-0.331,-0.191,9.602,0.362981283952768,2.279138234687516,2.6672681704260652,0,0.2
1757394365.882143,-0.331,-0.191,9.602,0.362981283952768,2.279138234687516,2.6672681704260652,0,0.2
1757394365.9099169,-0.313,-0.137,9.615,0.36305822191488796,2.0351516099924294,2.6678195488721808,0,0.2
1757394365.9373937,-0.313,-0.137,9.615,0.36305822191488796,2.0351516099924294,2.6678195488721808,0,0.2
1757394365.9639444,-0.304,-0.005,9.413,0.3631291127133709,1.850017883094921,2.668020050125313,0,0.2
1757394365.990785,-0.304,-0.005,9.413,0.3631291127133709,1.850017883094921,2.668020050125313,0,0.2
1757394366.0178452,-0.304,-0.005,9.413,0.3631291127133709,1.850017883094921,2.668020050125313,0,0.2
1757394366.0443,-0.465,-0.029,9.524,0.36363497150301705,2.8006128399580774,2.675087719298246,0,0.2
1757394366.0719833,-0.281,-0.106,9.43,0.3636310939674989,1.8241486028387952,2.6842105263157894,0,0.2
1757394366.0993907,-0.281,-0.106,9.43,0.3636310939674989,1.8241486028387952,2.6842105263157894,0,0.2
1757394366.1257894,-0.25,0.038,9.341,0.36356672014913577,1.550683277785041,2.6852631578947372,0,0.2
1757394366.1524296,-0.25,0.038,9.341,0.36356672014913577,1.550683277785041,2.6852631578947372,0,0.2
1757394366.1798954,-0.25,0.038,9.341,0.36356672014913577,1.550683277785041,2.6852631578947372,0,0.2
1757394366.2061234,-0.405,-0.093,9.411,0.3638313620346657,2.5282401971659523,2.6928822055137847,0,0.2
1757394366.2333193,-0.288,-0.21,9.452,0.3638112285238046,2.15958482342634,2.6974937343358394,0,0.2
1757394366.2609336,-0.288,-0.21,9.452,0.3638112285238046,2.15958482342634,2.6974937343358394,0,0.2
1757394366.288015,-0.345,-0.11,9.538,0.3638617182392234,2.1742002315533018,2.6997994987468665,0,0.2
1757394366.3155036,-0.345,-0.11,9.538,0.3638617182392234,2.1742002315533018,2.6997994987468665,0,0.2
1757394366.343019,-0.24,-0.059,9.377,0.36367631212384455,1.5097716018603335,2.705062656641604,0,0.2
1757394366.3693116,-0.24,-0.059,9.377,0.36367631212384455,1.5097716018603335,2.705062656641604,0,0.2
1757394366.3972619,-0.457,-0.207,9.667,0.3640105664675134,2.970854243727753,2.7151378446115286,0,0.2
1757394366.424742,-0.457,-0.207,9.667,0.3640105664675134,2.970854243727753,2.7151378446115286,0,0.2
1757394366.4517343,-0.535,-0.123,9.69,0.3645723590729281,3.242450585974727,2.719047619047619,0,0.2
1757394366.4792316,-0.535,-0.123,9.69,0.3645723590729281,3.242450585974727,2.719047619047619,0,0.2
1757394366.5068479,-0.489,-0.21,9.647,0.3649719955010247,3.1575708264173032,2.7205513784461153,0,0.2
1757394366.5348897,-0.489,-0.21,9.647,0.3649719955010247,3.1575708264173032,2.7205513784461153,0,0.2
1757394366.5629072,-0.244,-0.299,9.633,0.3647170238691909,2.2941942370660904,2.7326315789473683,0,0.2
1757394366.5898175,-0.244,-0.299,9.633,0.3647170238691909,2.2941942370660904,2.7326315789473683,0,0.2
1757394366.6181204,-0.422,-0.336,9.733,0.36485814709281195,3.172220773196044,2.7412030075187963,0,0.2
1757394366.6455758,-0.422,-0.336,9.733,0.36485814709281195,3.172220773196044,2.7412030075187963,0,0.2
1757394366.6730304,-0.428,-0.357,9.768,0.36503425181755206,3.2656537718773078,2.741152882205514,0,0.2
1757394366.7000575,-0.428,-0.357,9.768,0.36503425181755206,3.2656537718773078,2.741152882205514,0,0.2
1757394366.7279203,-0.334,-0.344,9.786,0.36498226669250655,2.804995661564365,2.745213032581454,0,0.2
1757394366.7558897,-0.334,-0.344,9.786,0.36498226669250655,2.804995661564365,2.745213032581454,0,0.2
1757394366.7826602,-0.542,-0.274,9.827,0.36552163068688565,3.536459428052807,2.755137844611528,0,0.2
1757394366.810515,-0.542,-0.274,9.827,0.36552163068688565,3.536459428052807,2.755137844611528,0,0.2
1757394366.8384528,-0.536,-0.253,9.73,0.3660125680902228,3.4859057213017106,2.755338345864662,0,0.2
1757394366.866091,-0.536,-0.253,9.73,0.3660125680902228,3.4859057213017106,2.755338345864662,0,0.2
1757394366.8938048,-0.414,-0.352,9.773,0.3661125066151114,3.1825810724970367,2.7609022556390976,0,0.2
1757394366.9216332,-0.414,-0.352,9.773,0.3661125066151114,3.1825810724970367,2.7609022556390976,0,0.2
1757394366.9495783,-0.487,-0.399,9.728,0.3664081467434915,3.702919031559363,2.764360902255639,0,0.2
1757394366.9772124,-0.487,-0.399,9.728,0.3664081467434915,3.702919031559363,2.764360902255639,0,0.2
1757394367.005298,-0.352,-0.284,9.692,0.3663066065470291,2.67180421217328,2.7710275689223054,0,0.2
1757394367.0328534,-0.352,-0.284,9.692,0.3663066065470291,2.67180421217328,2.7710275689223054,0,0.2
1757394367.060541,-0.245,-0.42,9.662,0.36598156032783946,2.8809523455106296,2.775989974937343,0,0.2
1757394367.088173,-0.245,-0.42,9.662,0.36598156032783946,2.8809523455106296,2.775989974937343,0,0.2
1757394367.1144044,-0.33,-0.476,9.717,0.36580150696791836,3.411203246413551,2.779899749373433,0,0.2
1757394367.1408315,-0.33,-0.476,9.717,0.36580150696791836,3.411203246413551,2.779899749373433,0,0.2
1757394367.1689086,-0.237,-0.38,9.787,0.36542162292343894,2.6200048438791943,2.7835588972431076,0,0.2
1757394367.1969113,-0.237,-0.38,9.787,0.36542162292343894,2.6200048438791943,2.7835588972431076,0,0.2
1757394367.22467,-0.334,-0.355,9.761,0.3651735888587782,2.858732898599042,2.7880200501253136,0,0.2
1757394367.2522416,-0.334,-0.355,9.761,0.3651735888587782,2.858732898599042,2.7880200501253136,0,0.2
1757394367.2786999,-0.181,-0.38,9.683,0.36463163603834486,2.4889917194981335,2.7952882205513783,0,0.2
1757394367.3060925,-0.181,-0.38,9.683,0.36463163603834486,2.4889917194981335,2.7952882205513783,0,0.2
1757394367.3331282,-0.211,-0.304,9.575,0.36410502605704304,2.2132382588175243,2.7966416040100253,0,0.2
1757394367.3608303,-0.211,-0.304,9.575,0.36410502605704304,2.2132382588175243,2.7966416040100253,0,0.2
1757394367.3876681,-0.271,-0.301,9.84,0.36366786014164076,2.3570021623895747,2.7993483709273184,0,0.2
1757394367.41507,-0.271,-0.301,9.84,0.36366786014164076,2.3570021623895747,2.7993483709273184,0,0.2
1757394367.4428554,-0.334,-0.326,9.717,0.3633426929222604,2.7499045693367874,2.801604010025063,0,0.2
1757394367.4705615,-0.334,-0.326,9.717,0.3633426929222604,2.7499045693367874,2.801604010025063,0,0.2
1757394367.498065,-0.335,-0.34,9.818,0.3629621398989156,2.7832902137343605,2.8005513784461153,0,0.2
1757394367.5249817,-0.335,-0.34,9.818,0.3629621398989156,2.7832902137343605,2.8005513784461153,0,0.2
1757394367.5524113,-0.359,-0.367,9.83,0.36256534238672067,2.9896661948763286,2.8016541353383464,0,0.2
1757394367.5784922,-0.359,-0.367,9.83,0.36256534238672067,2.9896661948763286,2.8016541353383464,0,0.2
1757394367.6059093,-0.483,-0.361,9.777,0.36252146143366465,3.5292722951194397,2.807318295739348,0,0.2
1757394367.6336882,-0.483,-0.361,9.777,0.36252146143366465,3.5292722951194397,2.807318295739348,0,0.2
1757394367.6612175,-0.242,-0.417,9.605,0.3618364236778824,2.8736143367841467,2.8188972431077692,0,0.2
1757394367.6887422,-0.242,-0.417,9.605,0.3618364236778824,2.8736143367841467,2.8188972431077692,0,0.2
1757394367.7162602,-0.068,-0.479,9.584,0.3609278806077469,2.8898518263779462,2.8274686716791977,0,0.2
1757394367.7439523,-0.211,-0.57,9.506,0.3601447452067016,3.6584307513131598,2.8288721804511274,0,0.2
1757394367.7714205,-0.211,-0.57,9.506,0.3601447452067016,3.6584307513131598,2.8288721804511274,0,0.2
1757394367.7988262,-0.139,-0.528,9.511,0.35964215200668564,3.2855243722904466,2.8223558897243106,0,0.2
1757394367.8261704,-0.139,-0.528,9.511,0.35964215200668564,3.2855243722904466,2.8223558897243106,0,0.2
1757394367.8537493,-0.194,-0.511,9.596,0.3596297331979101,3.26003616966025,2.8120802005012533,0,0.2
1757394367.8813462,-0.194,-0.511,9.596,0.3596297331979101,3.26003616966025,2.8120802005012533,0,0.2
1757394367.909127,-0.19,-0.643,9.546,0.35900957159942126,4.017696064578054,2.8102255639097744,0,0.2
1757394367.936828,-0.19,-0.643,9.546,0.35900957159942126,4.017696064578054,2.8102255639097744,0,0.2
1757394367.965058,-0.125,-0.564,9.599,0.3584434753207261,3.4440140312791714,2.801954887218045,0,0.2
1757394367.991974,-0.125,-0.564,9.599,0.3584434753207261,3.4440140312791714,2.801954887218045,0,0.2
1757394368.0195825,-0.227,-0.431,9.482,0.3584946129302364,2.9409034454256306,2.7897744360902252,0,0.2
1757394368.0463114,-0.227,-0.431,9.482,0.3584946129302364,2.9409034454256306,2.7897744360902252,0,0.2
1757394368.072906,-0.213,-0.435,9.52,0.3585711749429951,2.912526158085769,2.772531328320802,0,0.2
1757394368.0997906,-0.213,-0.435,9.52,0.3585711749429951,2.912526158085769,2.772531328320802,0,0.2
1757394368.1273236,-0.48,-0.463,9.415,0.35922726093658314,4.051769855481829,2.773383458646616,0,0.2
1757394368.1546996,-0.48,-0.463,9.415,0.35922726093658314,4.051769855481829,2.773383458646616,0,0.2
1757394368.1827004,-0.163,-0.403,9.636,0.3585987799756156,2.583075452679987,2.775037593984963,0,0.2
1757394368.2098458,-0.163,-0.403,9.636,0.3585987799756156,2.583075452679987,2.775037593984963,0,0.2
1757394368.237368,-0.561,-0.498,9.67,0.35779125897651554,4.435834658605803,2.7731328320802007,0,0.2
1757394368.2653606,-0.561,-0.498,9.67,0.35779125897651554,4.435834658605803,2.7731328320802007,0,0.2
1757394368.292694,-0.319,-0.519,9.49,0.35782602616355336,3.6729860751472545,2.7645614035087718,0,0.2
1757394368.3197184,-0.319,-0.519,9.49,0.35782602616355336,3.6729860751472545,2.7645614035087718,0,0.2
1757394368.347203,-0.565,-0.658,9.72,0.3571496710064283,5.098838653574815,2.7418045112781955,0,0.2
1757394368.3743804,-0.565,-0.658,9.72,0.3571496710064283,5.098838653574815,2.7418045112781955,0,0.2
1757394368.4016156,-0.405,-0.631,9.575,0.3577223923659239,4.477530102529275,2.7461152882205515,0,0.2
1757394368.4289813,-0.405,-0.631,9.575,0.3577223923659239,4.477530102529275,2.7461152882205515,0,0.2
1757394368.4547336,-0.3,-0.672,9.685,0.3580084635871057,4.345323873186086,2.7491729323308274,0,0.2
1757394368.482225,-0.3,-0.672,9.685,0.3580084635871057,4.345323873186086,2.7491729323308274,0,0.2
1757394368.5099401,-0.398,-0.566,9.74,0.358553733769431,4.063437885778131,2.7451629072681705,0,0.2
1757394368.5378494,-0.398,-0.566,9.74,0.358553733769431,4.063437885778131,2.7451629072681705,0,0.2
1757394368.5651472,-0.299,-0.576,9.84,0.3586904549886991,3.773386885064268,2.746265664160401,0,0.2
1757394368.59263,-0.299,-0.576,9.84,0.3586904549886991,3.773386885064268,2.746265664160401,0,0.2
1757394368.6198645,-0.519,-0.566,9.736,0.35931287549989077,4.509887219849481,2.75172932330827,0,0.2
1757394368.6474106,-0.519,-0.566,9.736,0.35931287549989077,4.509887219849481,2.75172932330827,0,0.2
1757394368.6747105,-0.322,-0.533,9.756,0.3595479140531898,3.652169062159282,2.752180451127819,0,0.2
1757394368.7020552,-0.322,-0.533,9.756,0.3595479140531898,3.652169062159282,2.752180451127819,0,0.2
1757394368.7295287,-0.403,-0.409,9.829,0.35961578802939115,3.343281054083038,2.743208020050125,0,0.2
1757394368.7571936,-0.403,-0.409,9.829,0.35961578802939115,3.343281054083038,2.743208020050125,0,0.2
1757394368.785093,-0.412,-0.461,9.729,0.3601570004872875,3.6362444725678924,2.736842105263158,0,0.2
1757394368.8125632,-0.412,-0.461,9.729,0.3601570004872875,3.6362444725678924,2.736842105263158,0,0.2
1757394368.840372,-0.499,-0.327,9.838,0.3607967260106444,3.4702965413849287,2.7283208020050123,0,0.2
1757394368.8673813,-0.499,-0.327,9.838,0.3607967260106444,3.4702965413849287,2.7283208020050123,0,0.2
1757394368.8947983,-0.314,-0.375,9.933,0.3602332091853831,2.8189749747274333,2.7179448621553886,0,0.2
1757394368.9212568,-0.314,-0.375,9.933,0.3602332091853831,2.8189749747274333,2.7179448621553886,0,0.2
1757394368.9486701,-0.494,-0.361,9.865,0.3610299883666176,3.5490537500630333,2.723759398496241,0,0.2
1757394368.975397,-0.494,-0.361,9.865,0.3610299883666176,3.5490537500630333,2.723759398496241,0,0.2
1757394369.001842,-0.193,-0.425,9.769,0.361043006441061,2.7355525069208317,2.7346365914786963,0,0.2
1757394369.0294578,-0.193,-0.425,9.769,0.361043006441061,2.7355525069208317,2.7346365914786963,0,0.2
1757394369.0570028,-0.404,-0.366,9.799,0.3613611351542941,3.1841783685836704,2.738997493734336,0,0.2
1757394369.084806,-0.404,-0.366,9.799,0.3613611351542941,3.1841783685836704,2.738997493734336,0,0.2
1757394369.1123996,-0.329,-0.51,9.882,0.36166469277495145,3.5144524034954987,2.7418045112781955,0,0.2
1757394369.139083,-0.329,-0.51,9.882,0.36166469277495145,3.5144524034954987,2.7418045112781955,0,0.2
1757394369.1665173,-0.454,-0.522,9.715,0.36232333626196367,4.073180831520948,2.7373934837092726,0,0.2
1757394369.1931727,-0.454,-0.522,9.715,0.36232333626196367,4.073180831520948,2.7373934837092726,0,0.2
1757394369.2206988,-0.101,-0.418,9.586,0.36196654541545686,2.568573195312161,2.7457142857142856,0,0.2
1757394369.2479904,-0.101,-0.418,9.586,0.36196654541545686,2.568573195312161,2.7457142857142856,0,0.2
1757394369.2753496,-0.109,-0.47,9.661,0.3619298723509846,2.8589967090414072,2.7435087719298243,0,0.2
1757394369.302555,-0.109,-0.47,9.661,0.3619298723509846,2.8589967090414072,2.7435087719298243,0,0.2
1757394369.330363,-0.367,-0.63,9.518,0.3622539785840868,4.380438706514936,2.750877192982456,0,0.2
1757394369.3577971,-0.367,-0.63,9.518,0.3622539785840868,4.380438706514936,2.750877192982456,0,0.2
1757394369.3860812,-0.185,-0.473,9.598,0.3620339555898038,3.029061900379279,2.7590977443609024,0,0.2
1757394369.4126344,-0.185,-0.473,9.598,0.3620339555898038,3.029061900379279,2.7590977443609024,0,0.2
1757394369.439867,-0.167,-0.379,9.677,0.3618297182377368,2.4506820910050466,2.7559398496240597,0,0.2
1757394369.4673953,-0.167,-0.379,9.677,0.3618297182377368,2.4506820910050466,2.7559398496240597,0,0.2
1757394369.4947803,-0.414,-0.519,9.767,0.36193341238410137,3.8886022406783676,2.7518796992481205,0,0.2
1757394369.5216613,-0.414,-0.519,9.767,0.36193341238410137,3.8886022406783676,2.7518796992481205,0,0.2
1757394369.5491304,-0.319,-0.386,9.833,0.36227674159404716,2.9153325673732757,2.741854636591478,0,0.2
1757394369.5767663,-0.319,-0.386,9.833,0.36227674159404716,2.9153325673732757,2.741854636591478,0,0.2
1757394369.6041162,-0.575,-0.303,9.841,0.3630108503888004,3.778614329729581,2.7415037593984968,0,0.2
1757394369.6307075,-0.575,-0.303,9.841,0.3630108503888004,3.778614329729581,2.7415037593984968,0,0.2
1757394369.6582417,-0.444,-0.44,9.877,0.3636670420865768,3.621266369742896,2.743208020050125,0,0.2
1757394369.685525,-0.444,-0.44,9.877,0.3636670420865768,3.621266369742896,2.743208020050125,0,0.2
1757394369.712834,-0.546,-0.499,9.867,0.36458289180925646,4.287124089794201,2.744360902255639,0,0.2
1757394369.7383676,-0.546,-0.499,9.867,0.36458289180925646,4.287124089794201,2.744360902255639,0,0.2
1757394369.7645056,-0.668,-0.412,9.87,0.36607681570949013,4.546442513376895,2.7373934837092726,0,0.2
1757394369.7919924,-0.668,-0.412,9.87,0.36607681570949013,4.546442513376895,2.7373934837092726,0,0.2
1757394369.8194013,-0.347,-0.316,9.814,0.3660478862116267,2.7379063290660115,2.7432581453634084,0,0.2
1757394369.8467546,-0.347,-0.316,9.814,0.3660478862116267,2.7379063290660115,2.7432581453634084,0,0.2
1757394369.8743935,-0.402,-0.356,9.741,0.3665173972678514,3.1552386075317678,2.7370426065162907,0,0.2
1757394369.9013734,-0.402,-0.356,9.741,0.3665173972678514,3.1552386075317678,2.7370426065162907,0,0.2
1757394369.9276462,-0.543,-0.289,9.823,0.36714198207233123,3.5831924469736314,2.743458646616541,0,0.2
1757394369.953408,-0.543,-0.289,9.823,0.36714198207233123,3.5831924469736314,2.743458646616541,0,0.2
1757394369.9799855,-0.385,-0.284,9.805,0.3672957867985964,2.793415966382965,2.745864661654135,0,0.2
1757394370.0064628,-0.385,-0.284,9.805,0.3672957867985964,2.793415966382965,2.745864661654135,0,0.2
1757394370.0334983,-0.434,-0.377,9.777,0.36730461813051035,3.365062557874976,2.7432581453634084,0,0.2
1757394370.0615742,-0.434,-0.377,9.777,0.36730461813051035,3.365062557874976,2.7432581453634084,0,0.2
1757394370.0893033,-0.484,-0.327,9.762,0.3677309784339633,3.4242171895247373,2.7360902255639092,0,0.2
1757394370.1167626,-0.484,-0.327,9.762,0.3677309784339633,3.4242171895247373,2.7360902255639092,0,0.2
1757394370.1450298,-0.473,-0.333,9.688,0.36842702466024396,3.4170224746644045,2.7186967418546373,0,0.2
1757394370.1724477,-0.473,-0.333,9.688,0.36842702466024396,3.4170224746644045,2.7186967418546373,0,0.2
1757394370.2000043,-0.411,-0.317,9.764,0.36816872830266284,3.0429381527284054,2.71453634085213,0,0.2
1757394370.2270257,-0.452,-0.312,9.671,0.3684463631249466,3.2503881710866676,2.7081704260651627,0,0.2
1757394370.2536263,-0.452,-0.312,9.671,0.3684463631249466,3.2503881710866676,2.7081704260651627,0,0.2
1757394370.2816057,-0.48,-0.33,9.669,0.368317678777438,3.4475330164492934,2.6994486215538847,0,0.2
1757394370.3089907,-0.48,-0.33,9.669,0.368317678777438,3.4475330164492934,2.6994486215538847,0,0.2
1757394370.3367584,-0.48,-0.33,9.669,0.368317678777438,3.4475330164492934,2.6994486215538847,0,0.2
1757394370.364991,-0.327,-0.292,9.535,0.3683416824091458,2.6324793389084293,2.706215538847118,0,0.2
1757394370.3935683,-0.192,-0.351,9.556,0.36808812124272633,2.3974034319731587,2.7114285714285717,0,0.2
1757394370.4218059,-0.192,-0.351,9.556,0.36808812124272633,2.3974034319731587,2.7114285714285717,0,0.2
1757394370.4495816,-0.463,-0.371,9.658,0.36836357718971074,3.5153413900450037,2.718897243107769,0,0.2
1757394370.4771948,-0.463,-0.371,9.658,0.36836357718971074,3.5153413900450037,2.718897243107769,0,0.2
1757394370.5042107,-0.51,-0.306,9.772,0.3690451903222694,3.4829192308987955,2.7138345864661653,0,0.2
1757394370.530335,-0.51,-0.306,9.772,0.3690451903222694,3.4829192308987955,2.7138345864661653,0,0.2
1757394370.557373,-0.459,-0.32,9.605,0.3692409139031047,3.333980573213996,2.703408521303258,0,0.2
1757394370.5850077,-0.459,-0.32,9.605,0.3692409139031047,3.333980573213996,2.703408521303258,0,0.2
1757394370.6123157,-0.379,-0.29,9.665,0.36966795235724725,2.8267592257665015,2.6959398496240596,0,0.2
1757394370.6396728,-0.379,-0.29,9.665,0.36966795235724725,2.8267592257665015,2.6959398496240596,0,0.2
1757394370.6664162,-0.515,-0.288,9.731,0.37012383738419224,3.4699944363537907,2.6951879699248122,0,0.2
1757394370.694627,-0.515,-0.288,9.731,0.37012383738419224,3.4699944363537907,2.6951879699248122,0,0.2
1757394370.722425,-0.509,-0.373,9.654,0.3708491708228563,3.7398486885486535,2.687017543859649,0,0.2
1757394370.749174,-0.509,-0.373,9.654,0.3708491708228563,3.7398486885486535,2.687017543859649,0,0.2
1757394370.7762573,-0.464,-0.36,9.679,0.37109061561834195,3.4721950614067474,2.6771428571428575,0,0.2
1757394370.8038812,-0.464,-0.36,9.679,0.37109061561834195,3.4721950614067474,2.6771428571428575,0,0.2
1757394370.8313265,-0.47,-0.424,9.843,0.371770860208274,3.6795456307298413,2.6686716791979954,0,0.2
1757394370.8584683,-0.47,-0.424,9.843,0.371770860208274,3.6795456307298413,2.6686716791979954,0,0.2
1757394370.8851964,-0.508,-0.361,9.983,0.372310854663143,3.572149073063833,2.661453634085213,0,0.2
1757394370.9126098,-0.508,-0.361,9.983,0.372310854663143,3.572149073063833,2.661453634085213,0,0.2
1757394370.9400637,-0.61,-0.229,9.878,0.3727405699679068,3.773851035437155,2.646466165413534,0,0.2
1757394370.9676793,-0.61,-0.229,9.878,0.3727405699679068,3.773851035437155,2.646466165413534,0,0.2
1757394370.9943123,-0.465,-0.178,9.775,0.37077423386745745,2.9159282805167823,2.623208020050125,0,0.2
1757394371.0213647,-0.465,-0.178,9.775,0.37077423386745745,2.9159282805167823,2.623208020050125,0,0.2
1757394371.0488281,-0.47,-0.275,9.789,0.3712429022890539,3.1839599188714027,2.601704260651629,0,0.2
1757394371.0751686,-0.47,-0.275,9.789,0.3712429022890539,3.1839599188714027,2.601704260651629,0,0.2
1757394371.102274,-0.494,-0.345,9.832,0.3703179478502223,3.506935235862438,2.598997493734336,0,0.2
1757394371.1297576,-0.494,-0.345,9.832,0.3703179478502223,3.506935235862438,2.598997493734336,0,0.2
1757394371.1570375,-0.453,-0.198,10.064,0.3688582315741375,2.812322890263798,2.5903258145363406,0,0.2
1757394371.1844819,-0.453,-0.198,10.064,0.3688582315741375,2.812322890263798,2.5903258145363406,0,0.2
1757394371.2114987,-0.487,-0.334,9.903,0.36850600741371914,3.412584525169217,2.585664160401002,0,0.2
1757394371.2385447,-0.487,-0.334,9.903,0.36850600741371914,3.412584525169217,2.585664160401002,0,0.2
1757394371.265804,-0.694,-0.31,9.84,0.36842497879486946,4.417033530128187,2.595438596491228,0,0.2
1757394371.2925398,-0.694,-0.31,9.84,0.36842497879486946,4.417033530128187,2.595438596491228,0,0.2
1757394371.3192236,-0.294,-0.228,9.886,0.3669417290251955,2.1552444872510255,2.614185463659148,0,0.2
1757394371.3462262,-0.294,-0.228,9.886,0.3669417290251955,2.1552444872510255,2.614185463659148,0,0.2
1757394371.3723838,-0.659,-0.269,9.94,0.3665097986411823,4.0958700235060945,2.6187468671679195,0,0.2
1757394371.3993928,-0.659,-0.269,9.94,0.3665097986411823,4.0958700235060945,2.6187468671679195,0,0.2
1757394371.4269724,-0.693,-0.213,9.663,0.3673771801568519,4.290746324736443,2.6195989974937337,0,0.2
1757394371.4546957,-0.693,-0.213,9.663,0.3673771801568519,4.290746324736443,2.6195989974937337,0,0.2
1757394371.4822419,-0.434,-0.134,9.674,0.3671943933395498,2.6881900092963167,2.629273182957393,0,0.2
1757394371.510306,-0.434,-0.134,9.674,0.3671943933395498,2.6881900092963167,2.629273182957393,0,0.2
1757394371.5377598,-0.534,-0.098,9.665,0.36710516544990207,3.2151324555819345,2.6316290726817044,0,0.2
1757394371.5643187,-0.534,-0.098,9.665,0.36710516544990207,3.2151324555819345,2.6316290726817044,0,0.2
1757394371.5914254,-0.451,-0.115,9.59,0.36692934265332344,2.7785529483047102,2.634987468671679,0,0.2
1757394371.6184404,-0.451,-0.115,9.59,0.36692934265332344,2.7785529483047102,2.634987468671679,0,0.2
1757394371.646093,-0.574,0.042,9.666,0.36723702155420007,3.4074915387166094,2.636591478696742,0,0.2
1757394371.6736183,-0.574,0.042,9.666,0.36723702155420007,3.4074915387166094,2.636591478696742,0,0.2
1757394371.7015135,-0.484,-0.163,9.726,0.36749511561379966,3.0058291671764588,2.629774436090225,0,0.2
1757394371.7281418,-0.484,-0.163,9.726,0.36749511561379966,3.0058291671764588,2.629774436090225,0,0.2
1757394371.755299,-0.559,-0.346,9.705,0.36723347137754203,3.8752970699175426,2.628020050125313,0,0.2
1757394371.7820442,-0.559,-0.346,9.705,0.36723347137754203,3.8752970699175426,2.628020050125313,0,0.2
1757394371.8096669,-0.449,-0.41,9.797,0.36702034684741935,3.551388299251594,2.6246616541353385,0,0.2
1757394371.836443,-0.449,-0.41,9.797,0.36702034684741935,3.551388299251594,2.6246616541353385,0,0.2
1757394371.8627093,-0.615,-0.358,9.858,0.3679206096428957,4.128794843352729,2.6307769423558893,0,0.2
1757394371.8895612,-0.615,-0.358,9.858,0.3679206096428957,4.128794843352729,2.6307769423558893,0,0.2
1757394371.9178786,-0.471,-0.431,9.881,0.36818103563328736,3.6968907303288847,2.627167919799499,0,0.2
1757394371.9457648,-0.471,-0.431,9.881,0.36818103563328736,3.6968907303288847,2.627167919799499,0,0.2
1757394371.973501,-0.386,-0.299,9.781,0.367476179500114,2.857784082250993,2.6234085213032583,0,0.2
1757394372.0011182,-0.386,-0.299,9.781,0.367476179500114,2.857784082250993,2.6234085213032583,0,0.2
1757394372.0287416,-0.561,-0.261,9.955,0.36789689112576096,3.556582176892011,2.6293233082706764,0,0.2
1757394372.0563784,-0.561,-0.261,9.955,0.36789689112576096,3.556582176892011,2.6293233082706764,0,0.2
1757394372.0838542,-0.29,-0.435,9.864,0.3676919532706692,3.0339126786235022,2.636090225563909,0,0.2
1757394372.111208,-0.29,-0.435,9.864,0.3676919532706692,3.0339126786235022,2.636090225563909,0,0.2
1757394372.1376925,-0.353,-0.52,9.802,0.36791310794805887,3.668743235521239,2.62796992481203,0,0.2
1757394372.1642137,-0.353,-0.52,9.802,0.36791310794805887,3.668743235521239,2.62796992481203,0,0.2
1757394372.191086,-0.184,-0.485,9.809,0.367280264239722,3.0271577397935023,2.625614035087719,0,0.2
1757394372.218293,-0.184,-0.485,9.809,0.367280264239722,3.0271577397935023,2.625614035087719,0,0.2
1757394372.246312,-0.345,-0.445,9.854,0.36746745774285916,3.2704080442007215,2.6327819548872182,0,0.2
1757394372.273967,-0.345,-0.445,9.854,0.36746745774285916,3.2704080442007215,2.6327819548872182,0,0.2
1757394372.3015568,-0.307,-0.488,9.819,0.367538232705116,3.36033797004865,2.621954887218045,0,0.2
1757394372.3297193,-0.307,-0.488,9.819,0.367538232705116,3.36033797004865,2.621954887218045,0,0.2
1757394372.3572752,0.078,-0.456,9.723,0.3666203758658267,2.724094172142332,2.629573934837093,0,0.2
1757394372.3845167,0.078,-0.456,9.723,0.3666203758658267,2.724094172142332,2.629573934837093,0,0.2
1757394372.412291,-0.291,-0.604,9.809,0.36661838810948916,3.9100864569354385,2.6462656641604014,0,0.2
1757394372.4401774,-0.291,-0.604,9.809,0.36661838810948916,3.9100864569354385,2.6462656641604014,0,0.2
1757394372.4669251,-0.424,-0.7,9.732,0.36700768724919103,4.806895816280002,2.6442606516290725,0,0.2
1757394372.494334,-0.424,-0.7,9.732,0.36700768724919103,4.806895816280002,2.6442606516290725,0,0.2
1757394372.5214915,-0.254,-0.595,9.761,0.36660036824858755,3.791949947606853,2.6495739348370924,0,0.2
1757394372.5497122,-0.254,-0.595,9.761,0.36660036824858755,3.791949947606853,2.6495739348370924,0,0.2
1757394372.577655,-0.063,-0.544,9.513,0.3661593778670703,3.2947155826041676,2.6459147869674187,0,0.2
1757394372.6058571,-0.192,-0.572,9.626,0.36625038907829166,3.586644268994572,2.6389473684210527,0,0.2
1757394372.6335418,-0.192,-0.572,9.626,0.36625038907829166,3.586644268994572,2.6389473684210527,0,0.2
1757394372.661577,-0.192,-0.572,9.626,0.36625038907829166,3.586644268994572,2.6389473684210527,0,0.2
1757394372.6894202,-0.192,-0.572,9.626,0.36625038907829166,3.586644268994572,2.6389473684210527,0,0.2
1757394372.71727,-0.192,-0.572,9.626,0.36625038907829166,3.586644268994572,2.6389473684210527,0,0.2
1757394372.7443163,-0.239,-0.513,9.601,0.3659805288536537,3.373460286186033,2.6344862155388467,0,0.2
1757394372.771862,-0.191,-0.418,9.435,0.36591970089078285,2.7886224054721884,2.634235588972431,0,0.2
1757394372.7988186,-0.138,-0.43,9.593,0.36570527409377074,2.6952753498334303,2.6279197994987467,0,0.2
1757394372.825921,-0.189,-0.489,9.439,0.36508778054051605,3.179012367542614,2.613784461152882,0,0.2
1757394372.8527994,-0.189,-0.489,9.439,0.36508778054051605,3.179012367542614,2.613784461152882,0,0.2
1757394372.8797905,-0.257,-0.308,9.396,0.36525422653269873,2.4446210194328994,2.599298245614035,0,0.2
1757394372.9073641,-0.257,-0.308,9.396,0.36525422653269873,2.4446210194328994,2.599298245614035,0,0.2
1757394372.9347448,-0.257,-0.308,9.396,0.36525422653269873,2.4446210194328994,2.599298245614035,0,0.2
1757394372.9619987,-0.257,-0.308,9.396,0.36525422653269873,2.4446210194328994,2.599298245614035,0,0.2
1757394372.9888103,-0.257,-0.308,9.396,0.36525422653269873,2.4446210194328994,2.599298245614035,0,0.2
1757394373.0164826,-0.257,-0.308,9.396,0.36525422653269873,2.4446210194328994,2.599298245614035,0,0.2
1757394373.043587,-0.099,-0.289,9.536,0.3644685857519136,1.8348472297089777,2.6046616541353376,0,0.2
1757394373.0706234,-0.349,-0.258,9.635,0.364228283498138,2.5791555685385723,2.610977443609023,0,0.2
1757394373.098433,-0.417,-0.184,9.567,0.36448659097420855,2.727620152247403,2.6025563909774436,0,0.2
1757394373.1259246,-0.126,-0.397,9.573,0.3635022902266229,2.491332616606927,2.6075689223057648,0,0.2
1757394373.153402,-0.194,-0.476,9.513,0.36318838431315503,3.092853071329882,2.605363408521303,0,0.2
1757394373.181713,-0.194,-0.476,9.513,0.36318838431315503,3.092853071329882,2.605363408521303,0,0.2
1757394373.2095473,-0.297,-0.406,9.588,0.3632819875798964,3.003277644484058,2.6082706766917294,0,0.2
1757394373.2363122,-0.297,-0.406,9.588,0.3632819875798964,3.003277644484058,2.6082706766917294,0,0.2
1757394373.2635698,-0.098,-0.199,9.65,0.36302155927713164,1.3168110502908434,2.6125313283208023,0,0.2
1757394373.2912803,-0.098,-0.199,9.65,0.36302155927713164,1.3168110502908434,2.6125313283208023,0,0.2
1757394373.3192215,-0.124,-0.32,9.565,0.3625065551131455,2.0548484792441513,2.606065162907268,0,0.2
1757394373.3465707,-0.124,-0.32,9.565,0.3625065551131455,2.0548484792441513,2.606065162907268,0,0.2
1757394373.3731666,-0.099,-0.37,9.412,0.36145359660681203,2.3303314017522707,2.601704260651629,0,0.2
1757394373.4011273,-0.099,-0.37,9.412,0.36145359660681203,2.3303314017522707,2.601704260651629,0,0.2
1757394373.4288154,0.0,-0.259,9.557,0.3607557345351561,1.552367433298843,2.6040601503759397,0,0.2
1757394373.4564817,0.0,-0.259,9.557,0.3607557345351561,1.552367433298843,2.6040601503759397,0,0.2
1757394373.4845161,-0.209,-0.36,9.493,0.36003666479957286,2.5108252985458392,2.6119799498746867,0,0.2
1757394373.5121157,-0.209,-0.36,9.493,0.36003666479957286,2.5108252985458392,2.6119799498746867,0,0.2
1757394373.539825,0.073,-0.486,9.415,0.35899576947368056,2.9880604220553764,2.6188471177944863,0,0.2
1757394373.567309,0.073,-0.486,9.415,0.35899576947368056,2.9880604220553764,2.6188471177944863,0,0.2
1757394373.5939062,-0.224,-0.397,9.594,0.35859347456416435,2.7202169160901972,2.6218045112781954,0,0.2
1757394373.620385,-0.224,-0.397,9.594,0.35859347456416435,2.7202169160901972,2.6218045112781954,0,0.2
1757394373.6481853,-0.267,-0.25,9.504,0.3573897592265341,2.20400270637036,2.6207518796992475,0,0.2
1757394373.6760507,-0.267,-0.25,9.504,0.3573897592265341,2.20400270637036,2.6207518796992475,0,0.2
1757394373.7041264,-0.014,-0.371,9.369,0.3562078431197157,2.2692645650786516,2.627117794486215,0,0.2
1757394373.7316704,-0.014,-0.371,9.369,0.3562078431197157,2.2692645650786516,2.627117794486215,0,0.2
1757394373.759123,-0.062,-0.14,9.489,0.35549412794025165,0.9244434591570224,2.627769423558897,0,0.2
1757394373.7872317,-0.062,-0.14,9.489,0.35549412794025165,0.9244434591570224,2.627769423558897,0,0.2
1757394373.814794,-0.326,-0.165,9.356,0.3550232598013826,2.236423466941682,2.6363408521303255,0,0.2
1757394373.8425045,-0.326,-0.165,9.356,0.3550232598013826,2.236423466941682,2.6363408521303255,0,0.2
1757394373.8691864,-0.326,-0.165,9.356,0.3550232598013826,2.236423466941682,2.6363408521303255,0,0.2
1757394373.896813,-0.326,-0.165,9.356,0.3550232598013826,2.236423466941682,2.6363408521303255,0,0.2
1757394373.924559,-0.133,-0.323,9.498,0.3545302737425959,2.1062345302283765,2.64360902255639,0,0.2
1757394373.9520934,-0.279,-0.157,9.608,0.3541062764199471,1.9084014534811562,2.6427568922305764,0,0.2
1757394373.978553,-0.352,-0.303,9.669,0.3542629037875685,2.750081358161961,2.639348370927318,0,0.2
1757394374.0059724,-0.352,-0.303,9.669,0.3542629037875685,2.750081358161961,2.639348370927318,0,0.2
1757394374.0343256,-0.295,-0.269,9.649,0.3544997390690154,2.3692875288428863,2.6264661654135337,0,0.2
1757394374.0620818,-0.439,-0.242,9.661,0.3544492982077973,2.970260483057,2.6267167919799497,0,0.2
1757394374.089472,-0.439,-0.242,9.661,0.3544492982077973,2.970260483057,2.6267167919799497,0,0.2
1757394374.11674,-0.192,-0.234,9.713,0.3533332350628794,1.7849409740576971,2.618195488721804,0,0.2
1757394374.1441321,-0.192,-0.234,9.713,0.3533332350628794,1.7849409740576971,2.618195488721804,0,0.2
1757394374.1715443,-0.526,-0.304,9.814,0.3542001446922347,3.5423384510687237,2.624761904761905,0,0.2
1757394374.1979434,-0.526,-0.304,9.814,0.3542001446922347,3.5423384510687237,2.624761904761905,0,0.2
1757394374.2243655,-0.242,-0.226,9.549,0.35389709309345846,1.9859818548271448,2.6388972431077695,0,0.2
1757394374.25156,-0.242,-0.226,9.549,0.35389709309345846,1.9859818548271448,2.6388972431077695,0,0.2
1757394374.278962,-0.466,0.007,9.62,0.35415933208091527,2.7735950043492252,2.6376942355889725,0,0.2
1757394374.3068676,-0.466,0.007,9.62,0.35415933208091527,2.7735950043492252,2.6376942355889725,0,0.2
1757394374.3343358,-0.466,0.007,9.62,0.35415933208091527,2.7735950043492252,2.6376942355889725,0,0.2
1757394374.3619778,-0.466,0.007,9.62,0.35415933208091527,2.7735950043492252,2.6376942355889725,0,0.2
1757394374.389379,-0.466,0.007,9.62,0.35415933208091527,2.7735950043492252,2.6376942355889725,0,0.2
1757394374.4169006,-0.466,0.007,9.62,0.35415933208091527,2.7735950043492252,2.6376942355889725,0,0.2
1757394374.4443915,-0.388,-0.141,9.621,0.3546307128549359,2.456986359899714,2.62796992481203,0,0.2
