timestamp,ax,ay,az,rms,tilt_now,jerk,tilt_crosses,freq
1757392045.238814,0.208,-0.326,9.765,0.0104,2.2677866841098697,0.010426065162907266,0,0.75
1757392045.2675412,0.194,-0.327,9.774,0.014221462653327892,2.2277320458053547,0.011127819548872177,0,0.05
1757392045.29728,0.191,-0.325,9.775,0.017130455335454455,2.208497508014595,0.0112781954887218,0,0.05
1757392045.3238757,0.193,-0.314,9.782,0.019661510623550774,2.1578011021231167,0.011378446115288217,0,0.05
1757392045.3507452,0.191,-0.317,9.789,0.02185812206023198,2.1651611974964426,0.011478696741854632,0,0.05
1757392045.377058,0.205,-0.316,9.798,0.02414207944647685,2.2015750991664427,0.012180451127819543,0,0.05
1757392045.402949,0.218,-0.312,9.798,0.02648867682614592,2.2246060700308603,0.012832080200501247,0,0.05
1757392045.4283926,0.219,-0.315,9.775,0.028662737133777014,2.2475857555420786,0.012882205513784453,0,0.05
1757392045.453442,0.231,-0.323,9.793,0.03090234618924589,2.3220474586601614,0.01348370927318295,0,0.05
1757392045.478546,0.241,-0.348,9.786,0.03316862222040584,2.476837988227233,0.013984962406015034,0,0.05
1757392045.5039058,0.263,-0.349,9.763,0.03568024663591887,2.562902744575275,0.01508771929824561,0,0.05
1757392045.5295062,0.279,-0.343,9.768,0.03831034455600733,2.591689172035235,0.01588972431077694,0,0.05
1757392045.5544145,0.273,-0.345,9.772,0.040669460286559,2.5777873086229173,0.01619047619047619,0,0.05
1757392045.579286,0.269,-0.336,9.761,0.04283582029096677,2.524843064222074,0.016390977443609022,0,0.05
1757392045.6043327,0.257,-0.346,9.77,0.04472169495893464,2.5259719227986115,0.016992481203007517,0,0.05
1757392045.6291924,0.259,-0.337,9.773,0.04655891429146517,2.490233856208215,0.017092731829573937,0,0.05
1757392045.6542926,0.259,-0.337,9.773,0.04655891429146517,2.490233856208215,0.017092731829573937,0,0.05
1757392045.6792438,0.245,-0.329,9.77,0.04814348346349691,2.404203665435071,0.01779448621553885,0,0.05
1757392045.7041676,0.245,-0.329,9.77,0.04814348346349691,2.404203665435071,0.01779448621553885,0,0.05
1757392045.7288113,0.233,-0.329,9.769,0.049532994054468385,2.3631589127963375,0.018395989974937344,0,0.05
1757392045.7536051,0.233,-0.329,9.769,0.049532994054468385,2.3631589127963375,0.018395989974937344,0,0.05
1757392045.7784874,0.201,-0.317,9.772,0.05054225954584936,2.199711915746344,0.02,0,0.05
1757392045.8036573,0.201,-0.317,9.772,0.05054225954584936,2.199711915746344,0.02,0,0.05
1757392045.8287926,0.178,-0.325,9.748,0.05131987918925765,2.1769455154529234,0.021152882205513784,0,0.05
1757392045.8536928,0.178,-0.325,9.748,0.05131987918925765,2.1769455154529234,0.021152882205513784,0,0.05
1757392045.8785815,0.173,-0.325,9.744,0.052043755629277946,2.1638889665323013,0.021403508771929824,0,0.05
1757392045.9034321,0.173,-0.325,9.744,0.052043755629277946,2.1638889665323013,0.021403508771929824,0,0.05
1757392045.928343,0.184,-0.338,9.755,0.05285066224750642,2.2591638939076146,0.021954887218045113,0,0.05
1757392045.9535077,0.184,-0.338,9.755,0.05285066224750642,2.2591638939076146,0.021954887218045113,0,0.05
1757392045.978469,0.184,-0.338,9.755,0.05285066224750642,2.2591638939076146,0.021954887218045113,0,0.05
1757392046.0032816,0.182,-0.343,9.748,0.053628374019729516,2.2810739279358896,0.02205513784461153,0,0.05
1757392046.0282485,0.182,-0.343,9.748,0.053628374019729516,2.2810739279358896,0.02205513784461153,0,0.05
1757392046.0532672,0.192,-0.355,9.753,0.05448084525776009,2.3696410762316464,0.022556390977443608,0,0.05
1757392046.0782115,0.192,-0.355,9.753,0.05448084525776009,2.3696410762316464,0.022556390977443608,0,0.05
1757392046.1030424,0.209,-0.359,9.772,0.055474002920286904,2.4341669383146822,0.023408521303258146,0,0.05
1757392046.1280236,0.209,-0.359,9.772,0.055474002920286904,2.4341669383146822,0.023408521303258146,0,0.05
1757392046.152927,0.234,-0.368,9.778,0.056694400076198005,2.5536849193560354,0.024661654135338346,0,0.05
1757392046.1778524,0.234,-0.368,9.778,0.056694400076198005,2.5536849193560354,0.024661654135338346,0,0.05
1757392046.2029748,0.255,-0.367,9.769,0.058110390637131325,2.6192328077719815,0.025714285714285714,0,0.05
1757392046.2281146,0.255,-0.367,9.769,0.058110390637131325,2.6192328077719815,0.025714285714285714,0,0.05
1757392046.2533429,0.28,-0.372,9.764,0.059773049947279756,2.7301066781293524,0.026967418546365914,0,0.05
1757392046.2786977,0.28,-0.372,9.764,0.059773049947279756,2.7301066781293524,0.026967418546365914,0,0.05
1757392046.3038366,0.28,-0.372,9.764,0.059773049947279756,2.7301066781293524,0.026967418546365914,0,0.05
1757392046.3292205,0.277,-0.374,9.751,0.061356662229948594,2.732613773503219,0.02711779448621554,0,0.05
1757392046.3545668,0.277,-0.374,9.751,0.061356662229948594,2.732613773503219,0.02711779448621554,0,0.05
1757392046.3803113,0.276,-0.368,9.75,0.06288942677429968,2.70118249224672,0.027167919799498747,0,0.05
1757392046.4053726,0.276,-0.368,9.75,0.06288942677429968,2.70118249224672,0.027167919799498747,0,0.05
1757392046.4302511,0.273,-0.352,9.752,0.0643537294956555,2.615375820109027,0.02731829573934837,0,0.05
1757392046.4552813,0.273,-0.352,9.752,0.0643537294956555,2.615375820109027,0.02731829573934837,0,0.05
1757392046.4802327,0.267,-0.353,9.742,0.06572385411705556,2.601303133069584,0.02761904761904762,0,0.05
1757392046.505264,0.267,-0.353,9.742,0.06572385411705556,2.601303133069584,0.02761904761904762,0,0.05
1757392046.5302365,0.27,-0.356,9.749,0.06709601329438285,2.624086774989687,0.027769423558897242,0,0.05
1757392046.5551348,0.27,-0.356,9.749,0.06709601329438285,2.624086774989687,0.027769423558897242,0,0.05
1757392046.5806134,0.258,-0.339,9.745,0.06832484906679268,2.503137633478078,0.02837092731829574,0,0.05
1757392046.6057663,0.258,-0.339,9.745,0.06832484906679268,2.503137633478078,0.02837092731829574,0,0.05
1757392046.6309404,0.236,-0.324,9.772,0.06933631804473035,2.3489072822452943,0.02947368421052633,0,0.05
1757392046.6560452,0.236,-0.324,9.772,0.06933631804473035,2.3489072822452943,0.02947368421052633,0,0.05
1757392046.681377,0.236,-0.324,9.772,0.06933631804473035,2.3489072822452943,0.02947368421052633,0,0.05
1757392046.7069345,0.195,-0.309,9.763,0.0700184797035754,2.1433203681995194,0.03152882205513786,0,0.05
1757392046.7323914,0.195,-0.309,9.763,0.0700184797035754,2.1433203681995194,0.03152882205513786,0,0.05
1757392046.7580085,0.171,-0.315,9.762,0.07053857100905858,2.1027270017015085,0.032731829573934855,0,0.05
1757392046.7830114,0.171,-0.315,9.762,0.07053857100905858,2.1027270017015085,0.032731829573934855,0,0.05
1757392046.808418,0.162,-0.308,9.779,0.07100211264462489,2.038127586144287,0.03318295739348372,0,0.05
1757392046.8336499,0.162,-0.308,9.779,0.07100211264462489,2.038127586144287,0.03318295739348372,0,0.05
1757392046.8589003,0.166,-0.306,9.772,0.0714855929541051,2.0402929343616893,0.03338345864661656,0,0.05
1757392046.8840654,0.166,-0.306,9.772,0.0714855929541051,2.0402929343616893,0.03338345864661656,0,0.05
1757392046.9098587,0.166,-0.312,9.757,0.07196582522280975,2.074424938343866,0.03338345864661656,0,0.05
1757392046.935032,0.166,-0.312,9.757,0.07196582522280975,2.074424938343866,0.03338345864661656,0,0.05
1757392046.9603179,0.192,-0.32,9.776,0.0726033057098642,2.1861001553077406,0.03468671679197995,0,0.05
1757392046.9856105,0.192,-0.32,9.776,0.0726033057098642,2.1861001553077406,0.03468671679197995,0,0.05
1757392047.0107193,0.216,-0.316,9.769,0.07340217980414478,2.243814870338151,0.03588972431077695,0,0.05
1757392047.03573,0.216,-0.316,9.769,0.07340217980414478,2.243814870338151,0.03588972431077695,0,0.05
1757392047.0607677,0.216,-0.316,9.769,0.07340217980414478,2.243814870338151,0.03588972431077695,0,0.05
1757392047.0859466,0.235,-0.326,9.767,0.07433668340731917,2.356156575977393,0.0368421052631579,0,0.05
1757392047.1111178,0.235,-0.326,9.767,0.07433668340731917,2.356156575977393,0.0368421052631579,0,0.05
1757392047.1363707,0.253,-0.341,9.772,0.07540533800733208,2.4880087255603427,0.03774436090225564,0,0.05
1757392047.1616333,0.253,-0.341,9.772,0.07540533800733208,2.4880087255603427,0.03774436090225564,0,0.05
1757392047.1867042,0.266,-0.351,9.782,0.07656928235265105,2.577831489649238,0.03839598997493735,0,0.05
1757392047.2124815,0.266,-0.351,9.782,0.07656928235265105,2.577831489649238,0.03839598997493735,0,0.05
1757392047.238237,0.287,-0.355,9.767,0.077902358757614,2.6760122823672035,0.03944862155388472,0,0.05
1757392047.2634578,0.287,-0.355,9.767,0.077902358757614,2.6760122823672035,0.03944862155388472,0,0.05
1757392047.2888658,0.304,-0.357,9.758,0.07937138968167308,2.7510971855743347,0.04030075187969925,0,0.05
1757392047.3139331,0.304,-0.357,9.758,0.07937138968167308,2.7510971855743347,0.04030075187969925,0,0.05
1757392047.338867,0.304,-0.352,9.761,0.08081372098845592,2.7280247198195515,0.040300751879699254,0,0.05
1757392047.3642204,0.304,-0.352,9.761,0.08081372098845592,2.7280247198195515,0.040300751879699254,0,0.05
1757392047.3894281,0.287,-0.355,9.765,0.08207788983642306,2.6765595678132774,0.04115288220551378,0,0.05
1757392047.4145503,0.287,-0.355,9.765,0.08207788983642306,2.6765595678132774,0.04115288220551378,0,0.05
1757392047.439556,0.287,-0.355,9.765,0.08207788983642306,2.6765595678132774,0.04115288220551378,0,0.05
1757392047.4646084,0.279,-0.344,9.757,0.08325492477925855,2.599155845195101,0.041553884711779454,0,0.05
1757392047.4897316,0.279,-0.344,9.757,0.08325492477925855,2.599155845195101,0.041553884711779454,0,0.05
1757392047.5147817,0.264,-0.341,9.749,0.08429485452861284,2.5328481277147636,0.042305764411027576,0,0.05
1757392047.539761,0.264,-0.341,9.749,0.08429485452861284,2.5328481277147636,0.042305764411027576,0,0.05
1757392047.5646846,0.259,-0.338,9.737,0.08528379095701598,2.504088467882638,0.042556390977443626,0,0.05
1757392047.5896938,0.259,-0.338,9.737,0.08528379095701598,2.504088467882638,0.042556390977443626,0,0.05
1757392047.6149688,0.254,-0.339,9.754,0.08622421353656988,2.48669816793238,0.04280701754385966,0,0.05
1757392047.6403432,0.254,-0.339,9.754,0.08622421353656988,2.48669816793238,0.04280701754385966,0,0.05
1757392047.6656024,0.223,-0.328,9.744,0.08694215030697136,2.330923274600573,0.044360902255639115,0,0.05
1757392047.690828,0.223,-0.328,9.744,0.08694215030697136,2.330923274600573,0.044360902255639115,0,0.05
1757392047.7158275,0.211,-0.328,9.75,0.0875799063712676,2.2906476519620633,0.044962406015037606,0,0.05
1757392047.740943,0.211,-0.328,9.75,0.0875799063712676,2.2906476519620633,0.044962406015037606,0,0.05
1757392047.7657738,0.209,-0.326,9.756,0.08820114795171319,2.273035866587075,0.04506265664160402,0,0.05
1757392047.7908037,0.209,-0.326,9.756,0.08820114795171319,2.273035866587075,0.04506265664160402,0,0.05
1757392047.8156445,0.209,-0.326,9.756,0.08820114795171319,2.273035866587075,0.04506265664160402,0,0.05
1757392047.8406508,0.205,-0.336,9.753,0.08879473520429013,2.3110212864585997,0.045263157894736845,0,0.05
1757392047.8655217,0.205,-0.336,9.753,0.08879473520429013,2.3110212864585997,0.045263157894736845,0,0.05
1757392047.890451,0.212,-0.349,9.75,0.08942519219996119,2.3982292406377614,0.04561403508771931,0,0.05
1757392047.915207,0.212,-0.349,9.75,0.08942519219996119,2.3982292406377614,0.04561403508771931,0,0.05
1757392047.940024,0.212,-0.349,9.75,0.08942519219996119,2.3982292406377614,0.04561403508771931,0,0.05
1757392047.9651427,0.219,-0.347,9.759,0.09009310461961004,2.4076532420297876,0.045964912280701764,0,0.05
1757392047.990036,0.231,-0.35,9.76,0.09083044643730427,2.460314001168448,0.04656641604010026,0,0.05
1757392048.0157099,0.231,-0.35,9.76,0.09083044643730427,2.460314001168448,0.04656641604010026,0,0.05
1757392048.0407443,0.232,-0.351,9.755,0.09156817132606722,2.4696964237771577,0.04661654135338347,0,0.05
1757392048.0657141,0.232,-0.351,9.755,0.09156817132606722,2.4696964237771577,0.04661654135338347,0,0.05
1757392048.0910892,0.261,-0.364,9.746,0.09249341868479075,2.6313257311265215,0.0480701754385965,0,0.05
1757392048.1167238,0.261,-0.364,9.746,0.09249341868479075,2.6313257311265215,0.0480701754385965,0,0.05
1757392048.1419504,0.261,-0.364,9.746,0.09249341868479075,2.6313257311265215,0.0480701754385965,0,0.05
1757392048.1672027,0.268,-0.358,9.739,0.09345904183116795,2.6290889264221984,0.048421052631578955,0,0.05
1757392048.192124,0.268,-0.358,9.739,0.09345904183116795,2.6290889264221984,0.048421052631578955,0,0.05
1757392048.2170675,0.281,-0.365,9.759,0.09450923235324685,2.7024238122338007,0.049072681704260664,0,0.05
1757392048.242718,0.281,-0.365,9.759,0.09450923235324685,2.7024238122338007,0.049072681704260664,0,0.05
1757392048.2681959,0.28,-0.365,9.757,0.09554054113307084,2.699406654243339,0.049122807017543874,0,0.05
1757392048.2940886,0.28,-0.365,9.757,0.09554054113307084,2.699406654243339,0.049122807017543874,0,0.05
1757392048.319207,0.271,-0.355,9.746,0.09649661911175955,2.623777098818451,0.04957393483709274,0,0.05
1757392048.3456266,0.271,-0.355,9.746,0.09649661911175955,2.623777098818451,0.04957393483709274,0,0.05
1757392048.3723497,0.262,-0.361,9.756,0.09738176163943636,2.6178022622935146,0.050025062656641604,0,0.05
1757392048.3978443,0.262,-0.361,9.756,0.09738176163943636,2.6178022622935146,0.050025062656641604,0,0.05
1757392048.4244597,0.256,-0.357,9.768,0.09821938454297095,2.5750532365022814,0.05032581453634086,0,0.05
1757392048.4514127,0.256,-0.357,9.768,0.09821938454297095,2.5750532365022814,0.05032581453634086,0,0.05
1757392048.4783125,0.251,-0.352,9.775,0.0990179276696902,2.5324063496717777,0.0505764411027569,0,0.05
1757392048.5051732,0.251,-0.352,9.775,0.0990179276696902,2.5324063496717777,0.0505764411027569,0,0.05
1757392048.5317373,0.246,-0.34,9.776,0.09977895569708074,2.458070231487553,0.05082706766917294,0,0.05
1757392048.5585868,0.246,-0.34,9.776,0.09977895569708074,2.458070231487553,0.05082706766917294,0,0.05
1757392048.5855315,0.225,-0.337,9.779,0.10041116720763682,2.372785350737657,0.05187969924812031,0,0.05
1757392048.6125607,0.225,-0.337,9.779,0.10041116720763682,2.372785350737657,0.05187969924812031,0,0.05
1757392048.6395907,0.223,-0.329,9.773,0.10102833760881151,2.3288567864077607,0.05197994987468672,0,0.05
1757392048.6662056,0.223,-0.329,9.773,0.10102833760881151,2.3288567864077607,0.05197994987468672,0,0.05
1757392048.6934288,0.471,-0.402,9.933,0.10373681843974203,3.5672379083812054,0.06441102756892231,0,0.05
1757392048.721105,0.471,-0.402,9.933,0.10373681843974203,3.5672379083812054,0.06441102756892231,0,0.05
1757392048.7477484,0.674,-0.253,9.557,0.10907345002336728,4.3079029944521,0.07458646616541355,0,0.05
1757392048.7751746,0.674,-0.253,9.557,0.10907345002336728,4.3079029944521,0.07458646616541355,0,0.05
1757392048.801857,0.23,-0.387,9.544,0.10967801739637711,2.700623703022642,0.09684210526315791,0,0.05
1757392048.8291109,0.23,-0.387,9.544,0.10967801739637711,2.700623703022642,0.09684210526315791,0,0.05
1757392048.8559275,0.524,-0.352,9.557,0.11276394592244456,3.778974178714994,0.11157894736842106,0,0.05
1757392048.8833265,0.524,-0.352,9.557,0.11276394592244456,3.778974178714994,0.11157894736842106,0,0.05
1757392048.9098563,0.291,-0.289,9.633,0.11369876868286657,2.437891938981679,0.12325814536340854,0,0.05
1757392048.9370553,0.291,-0.289,9.633,0.11369876868286657,2.437891938981679,0.12325814536340854,0,0.05
1757392048.9639363,0.177,-0.399,9.574,0.11404267841470578,2.6104191792835727,0.12897243107769427,0,0.05
1757392048.991046,0.177,-0.399,9.574,0.11404267841470578,2.6104191792835727,0.12897243107769427,0,0.05
1757392049.017858,0.502,-0.286,9.705,0.11677218204692418,3.4068890993114107,0.14526315789473687,0,0.05
1757392049.045218,0.502,-0.286,9.705,0.11677218204692418,3.4068890993114107,0.14526315789473687,0,0.05
1757392049.0716343,0.441,-0.415,9.691,0.11883579006343165,3.5755985015679004,0.14832080200501255,0,0.05
1757392049.098388,0.441,-0.415,9.691,0.11883579006343165,3.5755985015679004,0.14832080200501255,0,0.05
1757392049.1246512,0.303,-0.412,9.502,0.11979761057717303,3.0808362748558555,0.15523809523809526,0,0.05
1757392049.152242,0.303,-0.412,9.502,0.11979761057717303,3.0808362748558555,0.15523809523809526,0,0.05
1757392049.1790771,0.502,-0.381,9.598,0.12239884599129193,3.7566817765991005,0.16521303258145364,0,0.05
1757392049.2056477,0.502,-0.381,9.598,0.12239884599129193,3.7566817765991005,0.16521303258145364,0,0.05
1757392049.2325256,0.465,-0.398,9.504,0.12458747930671042,3.6848309005287523,0.1670676691729323,0,0.05
1757392049.2591865,0.465,-0.398,9.504,0.12458747930671042,3.6848309005287523,0.1670676691729323,0,0.05
1757392049.2858765,0.378,-0.408,9.481,0.1260128961654322,3.357335057361938,0.1714285714285714,0,0.05
1757392049.3128984,0.378,-0.408,9.481,0.1260128961654322,3.357335057361938,0.1714285714285714,0,0.05
1757392049.340184,0.284,-0.286,9.618,0.12681044909627914,2.3996414714895415,0.17614035087719296,0,0.05
1757392049.3670933,0.284,-0.286,9.618,0.12681044909627914,2.3996414714895415,0.17614035087719296,0,0.05
1757392049.3940773,0.279,-0.028,9.756,0.1275754384668146,1.64631004039162,0.176390977443609,0,0.05
1757392049.4216669,0.279,-0.028,9.756,0.1275754384668146,1.64631004039162,0.176390977443609,0,0.05
1757392049.4486973,0.469,-0.261,9.69,0.12971274031489735,3.17039485450343,0.1859147869674185,0,0.05
1757392049.4760518,0.469,-0.261,9.69,0.12971274031489735,3.17039485450343,0.1859147869674185,0,0.05
1757392049.5023077,0.222,-0.339,9.84,0.1301868080874556,2.358171565505796,0.19829573934837086,0,0.05
1757392049.528871,0.222,-0.339,9.84,0.1301868080874556,2.358171565505796,0.19829573934837086,0,0.05
1757392049.5555973,0.374,-0.173,9.822,0.13152298278247798,2.4023889712536226,0.20591478696741855,0,0.05
1757392049.5825875,0.374,-0.173,9.822,0.13152298278247798,2.4023889712536226,0.20591478696741855,0,0.05
1757392049.609195,0.158,-0.199,9.809,0.13176002808135703,1.4838819803321432,0.21674185463659143,0,0.05
1757392049.636517,0.158,-0.199,9.809,0.13176002808135703,1.4838819803321432,0.21674185463659143,0,0.05
1757392049.6630633,0.145,-0.348,9.934,0.13195934032875428,2.17335895585851,0.21739348370927317,0,0.05
1757392049.6897228,0.145,-0.348,9.934,0.13195934032875428,2.17335895585851,0.21739348370927317,0,0.05
1757392049.7166753,0.062,-0.519,10.025,0.13199574803757885,2.984623134124926,0.22155388471177942,0,0.05
1757392049.7432969,0.062,-0.519,10.025,0.13199574803757885,2.984623134124926,0.22155388471177942,0,0.05
1757392049.7696147,0.161,-0.479,9.974,0.13224099213178947,2.9004154681236836,0.22651629072681706,0,0.05
1757392049.7968447,0.161,-0.479,9.974,0.13224099213178947,2.9004154681236836,0.22651629072681706,0,0.05
1757392049.8238516,0.147,-0.388,9.88,0.13244509239681174,2.4047385898882516,0.22721804511278199,0,0.05
1757392049.8508852,0.147,-0.388,9.88,0.13244509239681174,2.4047385898882516,0.22721804511278199,0,0.05
1757392049.877906,0.274,-0.457,9.966,0.13315176491507727,3.0604849326526247,0.23358395989974942,0,0.05
1757392049.904201,0.274,-0.457,9.966,0.13315176491507727,3.0604849326526247,0.23358395989974942,0,0.05
1757392049.9310973,0.179,-0.475,9.9,0.1334522199140951,2.935187472084862,0.23834586466165417,0,0.05
1757392049.9581096,0.179,-0.475,9.9,0.1334522199140951,2.935187472084862,0.23834586466165417,0,0.05
1757392049.9850726,0.251,-0.531,9.784,0.1340410291664459,3.4353497048697395,0.24195488721804517,0,0.05
1757392050.0121293,0.251,-0.531,9.784,0.1340410291664459,3.4353497048697395,0.24195488721804517,0,0.05
1757392050.0391686,0.33,-0.328,9.849,0.13505275820952345,2.7047095407070962,0.24591478696741859,0,0.05
1757392050.066739,0.33,-0.328,9.849,0.13505275820952345,2.7047095407070962,0.24591478696741859,0,0.05
1757392050.0936365,0.38,-0.132,9.839,0.13638272434586426,2.341269023808628,0.248421052631579,0,0.05
1757392050.1205487,0.38,-0.132,9.839,0.13638272434586426,2.341269023808628,0.248421052631579,0,0.05
1757392050.146607,0.198,-0.406,9.729,0.13674157195235104,2.658277496464117,0.2575438596491228,0,0.05
1757392050.1738098,0.198,-0.406,9.729,0.13674157195235104,2.658277496464117,0.2575438596491228,0,0.05
1757392050.2000816,0.382,-0.168,9.771,0.13806906786098036,2.4455638869917546,0.2667669172932331,0,0.05
1757392050.2270992,0.382,-0.168,9.771,0.13806906786098036,2.4455638869917546,0.2667669172932331,0,0.05
1757392050.2542489,0.407,-0.253,9.883,0.13956070363823764,2.7760967021734597,0.2680200501253133,0,0.05
1757392050.2816892,0.407,-0.253,9.883,0.13956070363823764,2.7760967021734597,0.2680200501253133,0,0.05
1757392050.3068829,0.248,-0.057,9.852,0.14011049211247528,1.4795567480325,0.27598997493734334,0,0.05
1757392050.332968,0.248,-0.057,9.852,0.14011049211247528,1.4795567480325,0.27598997493734334,0,0.05
1757392050.359893,0.358,-0.108,9.918,0.14124928318402186,2.1591854513387183,0.2815037593984963,0,0.05
1757392050.385907,0.358,-0.108,9.918,0.14124928318402186,2.1591854513387183,0.2815037593984963,0,0.05
1757392050.412708,0.382,-0.274,9.897,0.1425348027676048,2.7194989396350997,0.28270676691729324,0,0.05
1757392050.4395237,0.382,-0.274,9.897,0.1425348027676048,2.7194989396350997,0.28270676691729324,0,0.05
1757392050.4664927,0.186,-0.157,9.962,0.1428378801298871,1.3996374288488136,0.292531328320802,0,0.05
1757392050.4945037,0.186,-0.157,9.962,0.1428378801298871,1.3996374288488136,0.292531328320802,0,0.05
1757392050.521638,0.351,-0.329,9.962,0.1439119956779142,2.764775771373172,0.3008020050125314,0,0.05
1757392050.5490913,0.351,-0.329,9.962,0.1439119956779142,2.764775771373172,0.3008020050125314,0,0.05
1757392050.5752337,0.363,-0.319,9.926,0.14505200791440287,2.7872564190402356,0.30140350877192984,0,0.05
1757392050.602375,0.363,-0.319,9.926,0.14505200791440287,2.7872564190402356,0.30140350877192984,0,0.05
1757392050.6287792,0.551,-0.5,9.708,0.14764514045507898,4.382713678493862,0.31082706766917295,0,0.05
1757392050.655555,0.551,-0.5,9.708,0.14764514045507898,4.382713678493862,0.31082706766917295,0,0.05
1757392050.6825705,0.273,-0.64,9.706,0.14827477870494363,4.100346858851851,0.3247619047619048,0,0.05
1757392050.7099326,0.273,-0.64,9.706,0.14827477870494363,4.100346858851851,0.3247619047619048,0,0.05
1757392050.7368054,0.43,-0.585,9.817,0.14982543175309057,4.229711171566807,0.33263157894736844,0,0.05
1757392050.763589,0.43,-0.585,9.817,0.14982543175309057,4.229711171566807,0.33263157894736844,0,0.05
1757392050.7904587,0.34,-0.574,9.7,0.1507868031360835,3.9344551738218314,0.3371428571428572,0,0.05
1757392050.8178778,0.34,-0.574,9.7,0.1507868031360835,3.9344551738218314,0.3371428571428572,0,0.05
1757392050.8449397,0.167,-0.6,9.73,0.15101782179597215,3.6624478660392614,0.3458145363408522,0,0.05
1757392050.872231,0.167,-0.6,9.73,0.15101782179597215,3.6624478660392614,0.3458145363408522,0,0.05
1757392050.899013,0.357,-0.753,9.854,0.15206907969735334,4.833936260359577,0.35533834586466173,0,0.05
1757392050.9263504,0.357,-0.753,9.854,0.15206907969735334,4.833936260359577,0.35533834586466173,0,0.05
1757392050.953262,0.252,-0.454,9.698,0.15259018644722866,3.0647991382318427,0.36060150375939853,0,0.05
1757392050.980405,0.252,-0.454,9.698,0.15259018644722866,3.0647991382318427,0.36060150375939853,0,0.05
1757392051.0066164,0.338,-0.486,9.664,0.1535232067148156,3.505340610183488,0.36491228070175447,0,0.05
1757392051.0335693,0.338,-0.486,9.664,0.1535232067148156,3.505340610183488,0.36491228070175447,0,0.05
1757392051.060193,0.363,-0.63,9.841,0.15459235912554023,4.225585845668591,0.3661654135338346,0,0.05
1757392051.0869327,0.363,-0.63,9.841,0.15459235912554023,4.225585845668591,0.3661654135338346,0,0.05
1757392051.1138177,0.09,-0.512,9.632,0.1546578400857842,3.089321002705217,0.37984962406015044,0,0.05
1757392051.140182,0.09,-0.512,9.632,0.1546578400857842,3.089321002705217,0.37984962406015044,0,0.05
1757392051.1673346,0.09,-0.512,9.632,0.1546578400857842,3.089321002705217,0.37984962406015044,0,0.05
1757392051.1949708,0.362,-0.524,9.592,0.15571338253342262,3.798710069028249,0.39348370927318294,0,0.05
1757392051.2225273,0.306,-0.429,9.799,0.15646324648299997,3.078170799115484,0.39629072681704264,0,0.05
1757392051.2496662,0.306,-0.429,9.799,0.15646324648299997,3.078170799115484,0.39629072681704264,0,0.05
1757392051.2759023,0.222,-0.398,9.695,0.15685648695543325,2.691292821635096,0.40050125313283214,0,0.05
1757392051.3028078,0.222,-0.398,9.695,0.15685648695543325,2.691292821635096,0.40050125313283214,0,0.05
1757392051.3297648,0.328,-0.411,9.652,0.1577115008488601,3.118370396016896,0.40581453634085224,0,0.05
1757392051.3569753,0.328,-0.411,9.652,0.1577115008488601,3.118370396016896,0.40581453634085224,0,0.05
1757392051.3829618,0.4,-0.355,9.695,0.15897458130154016,3.1574528215350792,0.40942355889724313,0,0.05
1757392051.410586,0.4,-0.355,9.695,0.15897458130154016,3.1574528215350792,0.40942355889724313,0,0.05
1757392051.437634,0.218,-0.205,9.699,0.1593478192508451,1.7672105418370885,0.41854636591478694,0,0.05
1757392051.4652545,0.218,-0.205,9.699,0.1593478192508451,1.7672105418370885,0.41854636591478694,0,0.05
1757392051.491973,0.302,-0.257,9.651,0.16006166780338132,2.3529113031952615,0.4227568922305764,0,0.05
1757392051.5188215,0.302,-0.257,9.651,0.16006166780338132,2.3529113031952615,0.4227568922305764,0,0.05
1757392051.5459301,0.271,-0.423,9.778,0.16063418067148721,2.9410999168615213,0.42431077694235597,0,0.05
1757392051.5735843,0.271,-0.423,9.778,0.16063418067148721,2.9410999168615213,0.42431077694235597,0,0.05
1757392051.6004908,0.345,-0.24,9.786,0.16155773735726806,2.4591030334066826,0.4280200501253133,0,0.05
1757392051.6268506,0.345,-0.24,9.786,0.16155773735726806,2.4591030334066826,0.4280200501253133,0,0.05
1757392051.6538596,0.345,-0.24,9.786,0.16155773735726806,2.4591030334066826,0.4280200501253133,0,0.05
1757392051.6805525,0.084,-0.139,9.726,0.16161232162183675,0.956666806144398,0.4411027568922305,0,0.05
1757392051.7077866,0.272,-0.225,9.772,0.16218354571287433,2.0688313102574725,0.45052631578947366,0,0.05
1757392051.7337203,0.272,-0.225,9.772,0.16218354571287433,2.0688313102574725,0.45052631578947366,0,0.05
1757392051.7608213,0.359,-0.218,9.682,0.16317384900773776,2.483938267519272,0.45488721804511273,0,0.05
1757392051.7877476,0.359,-0.218,9.682,0.16317384900773776,2.483938267519272,0.45488721804511273,0,0.05
1757392051.814634,0.053,-0.013,9.771,0.16319536604940718,0.3199937164237872,0.47022556390977444,0,0.05
1757392051.8421416,0.053,-0.013,9.771,0.16319536604940718,0.3199937164237872,0.47022556390977444,0,0.05
1757392051.8693054,0.237,-0.136,9.735,0.16362502864782028,1.607796936401665,0.4794486215538847,0,0.05
1757392051.8966236,0.237,-0.136,9.735,0.16362502864782028,1.607796936401665,0.4794486215538847,0,0.05
1757392051.9236846,0.237,-0.136,9.735,0.16362502864782028,1.607796936401665,0.4794486215538847,0,0.05
1757392051.950758,0.338,-0.207,9.713,0.16449547106227574,2.3367205657701673,0.4845112781954888,0,0.05
1757392051.9769506,0.35,-0.1,9.594,0.16542372864858296,2.172814225889858,0.4851127819548874,0,0.05
1757392052.0045733,0.35,-0.1,9.594,0.16542372864858296,2.172814225889858,0.4851127819548874,0,0.05
1757392052.0311422,0.35,-0.1,9.594,0.16542372864858296,2.172814225889858,0.4851127819548874,0,0.05
1757392052.057795,0.294,-0.314,9.691,0.16607558520143773,2.5415138947040417,0.487919799498747,0,0.05
1757392052.0848672,0.203,-0.376,9.668,0.16638546360785247,2.530672779021262,0.49248120300751896,0,0.05
1757392052.1119518,0.203,-0.376,9.668,0.16638546360785247,2.530672779021262,0.49248120300751896,0,0.05
1757392052.1389208,0.386,-0.374,9.608,0.167501082086057,3.201768818245018,0.5016541353383459,0,0.05
1757392052.1662178,0.386,-0.374,9.608,0.167501082086057,3.201768818245018,0.5016541353383459,0,0.05
1757392052.1931822,0.32,-0.449,9.627,0.16826352100202824,3.2778946439800896,0.5049624060150376,0,0.05
1757392052.2194552,0.32,-0.449,9.627,0.16826352100202824,3.2778946439800896,0.5049624060150376,0,0.05
1757392052.2458982,0.32,-0.449,9.627,0.16826352100202824,3.2778946439800896,0.5049624060150376,0,0.05
1757392052.2724395,0.225,-0.384,9.729,0.16863918583769313,2.6192271531201996,0.5097243107769424,0,0.05
1757392052.2995849,0.225,-0.384,9.729,0.16863918583769313,2.6192271531201996,0.5097243107769424,0,0.05
1757392052.3264902,0.147,-0.305,9.721,0.16879928169278446,1.99477029695281,0.5136340852130326,0,0.05
1757392052.353913,0.147,-0.305,9.721,0.16879928169278446,1.99477029695281,0.5136340852130326,0,0.05
1757392052.3803935,0.221,-0.373,9.766,0.16916057460294937,2.541938949591615,0.51734335839599,0,0.05
1757392052.4075167,0.221,-0.373,9.766,0.16916057460294937,2.541938949591615,0.51734335839599,0,0.05
1757392052.4338584,0.166,-0.497,9.886,0.16936407529343406,3.034019828471619,0.5201002506265664,0,0.05
1757392052.460842,0.166,-0.497,9.886,0.16936407529343406,3.034019828471619,0.5201002506265664,0,0.05
1757392052.4880304,0.045,-0.455,9.823,0.1693790202474911,2.6649571664966825,0.5261654135338345,0,0.05
1757392052.5146606,0.045,-0.455,9.823,0.1693790202474911,2.6649571664966825,0.5261654135338345,0,0.05
1757392052.5403771,0.118,-0.248,9.854,0.1694817468047813,1.5964817401518832,0.5298245614035088,0,0.05
1757392052.5673826,0.118,-0.248,9.854,0.1694817468047813,1.5964817401518832,0.5298245614035088,0,0.05
1757392052.5947597,0.065,-0.331,9.82,0.16951290511344558,1.9673645024921815,0.5324812030075188,0,0.05
1757392052.6217484,0.065,-0.331,9.82,0.16951290511344558,1.9673645024921815,0.5324812030075188,0,0.05
1757392052.6491117,0.219,-0.338,9.817,0.1698662047024069,2.3492675815565796,0.5402005012531328,0,0.05
1757392052.6766098,0.219,-0.338,9.817,0.1698662047024069,2.3492675815565796,0.5402005012531328,0,0.05
1757392052.7038782,0.048,-0.149,9.786,0.16988315837657364,0.916447805096665,0.5487719298245615,0,0.05
1757392052.7315116,0.048,-0.149,9.786,0.16988315837657364,0.916447805096665,0.5487719298245615,0,0.05
1757392052.758402,0.202,-0.356,9.793,0.17018312930487559,2.3933897346350395,0.5564912280701755,0,0.05
1757392052.7856762,0.202,-0.356,9.793,0.17018312930487559,2.3933897346350395,0.5564912280701755,0,0.05
1757392052.8132825,-0.016,-0.311,9.856,0.1701850096218818,1.8097219408549956,0.5674185463659148,0,0.05
1757392052.8405585,-0.016,-0.311,9.856,0.1701850096218818,1.8097219408549956,0.5674185463659148,0,0.05
1757392052.8677258,0.223,-0.349,9.852,0.17054987540306207,2.407202562606398,0.5793984962406016,0,0.05
1757392052.8955898,0.261,-0.44,9.829,0.17104842150689378,2.9794826768464544,0.5813032581453634,0,0.05
1757392052.9227476,0.261,-0.44,9.829,0.17104842150689378,2.9794826768464544,0.5813032581453634,0,0.05
1757392052.9498773,0.155,-0.47,9.809,0.1712239031210304,2.888326961688839,0.5866165413533835,0,0.05
1757392052.977026,0.155,-0.47,9.809,0.1712239031210304,2.888326961688839,0.5866165413533835,0,0.05
1757392053.0034585,0.282,-0.336,9.895,0.17180347784605526,2.5383276549246743,0.5929824561403508,0,0.05
1757392053.03064,0.282,-0.336,9.895,0.17180347784605526,2.5383276549246743,0.5929824561403508,0,0.05
1757392053.0578678,0.282,-0.336,9.895,0.17180347784605526,2.5383276549246743,0.5929824561403508,0,0.05
1757392053.0849981,0.153,-0.231,9.848,0.1719737116538455,1.611594620204353,0.5994486215538847,0,0.05
1757392053.1121953,0.153,-0.231,9.848,0.1719737116538455,1.611594620204353,0.5994486215538847,0,0.05
1757392053.1395445,0.276,-0.393,9.885,0.1725265124553325,2.781363955385189,0.6056140350877194,0,0.05
1757392053.166917,0.261,-0.33,10.007,0.17301936307824045,2.4075505668627866,0.6063659147869674,0,0.05
1757392053.1940882,0.261,-0.33,10.007,0.17301936307824045,2.4075505668627866,0.6063659147869674,0,0.05
1757392053.220435,0.269,-0.233,9.974,0.17354135674242033,2.04348599397609,0.6067669172932332,0,0.05
1757392053.2471678,0.269,-0.233,9.974,0.17354135674242033,2.04348599397609,0.6067669172932332,0,0.05
1757392053.274011,0.103,-0.176,9.99,0.17361775542841235,1.1694056476852959,0.6150877192982457,0,0.05
1757392053.3015888,0.103,-0.176,9.99,0.17361775542841235,1.1694056476852959,0.6150877192982457,0,0.05
1757392053.3285472,0.103,-0.176,9.99,0.17361775542841235,1.1694056476852959,0.6150877192982457,0,0.05
1757392053.3555877,0.372,-0.343,9.973,0.17461123961532374,2.904507789572282,0.6285714285714286,0,0.05
1757392053.382887,0.31,-0.229,9.886,0.17529784653554648,2.2325712081831806,0.6316791979949875,0,0.05
1757392053.4102693,0.31,-0.229,9.886,0.17529784653554648,2.2325712081831806,0.6316791979949875,0,0.05
1757392053.437322,0.304,-0.447,9.836,0.17595560519631082,3.1457637503348255,0.6319799498746868,0,0.05
1757392053.4644244,0.304,-0.447,9.836,0.17595560519631082,3.1457637503348255,0.6319799498746868,0,0.05
1757392053.4899867,0.199,-0.325,9.869,0.17623670871870026,2.2113422114730183,0.6372431077694236,0,0.05
1757392053.5168433,0.199,-0.325,9.869,0.17623670871870026,2.2113422114730183,0.6372431077694236,0,0.05
1757392053.5440521,0.258,-0.33,9.803,0.17670819873452392,2.446772155958083,0.6402005012531328,0,0.05
1757392053.571416,0.258,-0.33,9.803,0.17670819873452392,2.446772155958083,0.6402005012531328,0,0.05
1757392053.597742,0.284,-0.386,9.84,0.17727782574253328,2.7881725524588266,0.6415037593984964,0,0.05
1757392053.624745,0.284,-0.386,9.84,0.17727782574253328,2.7881725524588266,0.6415037593984964,0,0.05
1757392053.6514533,0.239,-0.353,9.865,0.17768013394862128,2.47439337286431,0.6437593984962406,0,0.05
1757392053.6784601,0.239,-0.353,9.865,0.17768013394862128,2.47439337286431,0.6437593984962406,0,0.05
1757392053.705185,0.371,-0.42,9.766,0.17864582978620017,3.2841508637905314,0.6503759398496242,0,0.05
1757392053.7315974,0.371,-0.42,9.766,0.17864582978620017,3.2841508637905314,0.6503759398496242,0,0.05
1757392053.7579422,0.463,-0.351,9.652,0.18013954313253935,3.4447959854766084,0.6549874686716792,0,0.05
1757392053.7850878,0.463,-0.351,9.652,0.18013954313253935,3.4447959854766084,0.6549874686716792,0,0.05
1757392053.8121831,0.463,-0.351,9.652,0.18013954313253935,3.4447959854766084,0.6549874686716792,0,0.05
1757392053.8393087,0.355,-0.406,9.72,0.18101192640265448,3.175806510478398,0.6604010025062657,0,0.05
1757392053.8667355,0.355,-0.406,9.72,0.18101192640265448,3.175806510478398,0.6604010025062657,0,0.05
1757392053.893351,0.425,-0.434,9.716,0.18225498621436945,3.577439074300382,0.6639097744360903,0,0.05
1757392053.9200075,0.425,-0.434,9.716,0.18225498621436945,3.577439074300382,0.6639097744360903,0,0.05
1757392053.9470074,0.382,-0.376,9.799,0.18325307637254007,3.1309497786017833,0.6660651629072681,0,0.05
1757392053.9741824,0.109,-0.463,9.876,0.18333410075596956,2.7574038355775277,0.679749373433584,0,0.05
1757392054.0003424,0.109,-0.463,9.876,0.18333410075596956,2.7574038355775277,0.679749373433584,0,0.05
1757392054.0262864,0.109,-0.463,9.876,0.18333410075596956,2.7574038355775277,0.679749373433584,0,0.05
1757392054.0535197,0.486,-0.418,9.794,0.18493750971612005,3.7447442777960633,0.6986466165413535,0,0.05
1757392054.081411,0.486,-0.418,9.794,0.18493750971612005,3.7447442777960633,0.6986466165413535,0,0.05
1757392054.1084146,0.364,-0.42,9.776,0.18583089759240792,3.2538710345032515,0.7047619047619049,0,0.05
1757392054.135684,0.364,-0.42,9.776,0.18583089759240792,3.2538710345032515,0.7047619047619049,0,0.05
1757392054.1628785,0.37,-0.531,9.837,0.1867494912978346,3.764172096732871,0.705062656641604,0,0.05
1757392054.1902597,0.37,-0.531,9.837,0.1867494912978346,3.764172096732871,0.705062656641604,0,0.05
1757392054.2175002,0.351,-0.645,9.869,0.18757231938641694,4.255350539588717,0.7060150375939851,0,0.05
1757392054.2444339,0.351,-0.645,9.869,0.18757231938641694,4.255350539588717,0.7060150375939851,0,0.05
1757392054.2714248,0.307,-0.462,9.798,0.18819935573747323,3.240265983335173,0.7082205513784462,0,0.05
1757392054.2985418,0.404,-0.643,9.874,0.1892803146130099,4.397817905891566,0.7130827067669172,0,0.05
1757392054.3255885,0.404,-0.643,9.874,0.1892803146130099,4.397817905891566,0.7130827067669172,0,0.05
1757392054.3524375,0.404,-0.643,9.874,0.1892803146130099,4.397817905891566,0.7130827067669172,0,0.05
1757392054.379657,0.266,-0.625,9.833,0.1897470091990912,3.9516372726364217,0.72,0,0.05
1757392054.4067404,0.435,-0.61,9.834,0.19098950232931655,4.3567381685271735,0.728471177944862,0,0.05
1757392054.4338536,0.435,-0.61,9.834,0.19098950232931655,4.3567381685271735,0.728471177944862,0,0.05
1757392054.4610825,0.297,-0.437,9.712,0.19156594817451247,3.1140574948871587,0.7353884711779448,0,0.05
1757392054.4885392,0.297,-0.437,9.712,0.19156594817451247,3.1140574948871587,0.7353884711779448,0,0.05
1757392054.5154135,0.264,-0.515,9.888,0.19202018774076854,3.3495788466574434,0.7370426065162905,0,0.05
1757392054.5428393,0.264,-0.515,9.888,0.19202018774076854,3.3495788466574434,0.7370426065162905,0,0.05
1757392054.570428,0.19,-0.426,9.886,0.19225504544744726,2.701379198178666,0.7407518796992482,0,0.05
1757392054.5984938,0.19,-0.426,9.886,0.19225504544744726,2.701379198178666,0.7407518796992482,0,0.05
1757392054.6263573,0.386,-0.256,9.723,0.19322135622130387,2.7273457366230986,0.7505764411027571,0,0.05
1757392054.6546988,0.386,-0.256,9.723,0.19322135622130387,2.7273457366230986,0.7505764411027571,0,0.05
1757392054.6826339,0.127,-0.379,9.873,0.19332567082516489,2.318376692165813,0.763558897243108,0,0.05
1757392054.7090151,0.127,-0.379,9.873,0.19332567082516489,2.318376692165813,0.763558897243108,0,0.05
1757392054.7363677,0.331,-0.426,9.858,0.19403277429341675,3.132383576699092,0.7737844611528822,0,0.05
1757392054.7642832,0.331,-0.426,9.858,0.19403277429341675,3.132383576699092,0.7737844611528822,0,0.05
1757392054.7914448,0.169,-0.445,9.747,0.19421668311450488,2.795910677960416,0.7819047619047618,0,0.05
1757392054.8190696,0.169,-0.445,9.747,0.19421668311450488,2.795910677960416,0.7819047619047618,0,0.05
1757392054.8467705,0.293,-0.566,9.636,0.19476843301726285,3.7841327488619503,0.7881203007518796,0,0.05
1757392054.873399,0.293,-0.566,9.636,0.19476843301726285,3.7841327488619503,0.7881203007518796,0,0.05
1757392054.9009597,0.297,-0.607,9.739,0.19533372724647427,3.9692482633158312,0.7883208020050124,0,0.05
1757392054.9288502,0.297,-0.607,9.739,0.19533372724647427,3.9692482633158312,0.7883208020050124,0,0.05
1757392054.9560776,0.25,-0.319,9.738,0.19573327514758443,2.3832495604789226,0.7906766917293233,0,0.05
1757392054.98304,0.25,-0.319,9.738,0.19573327514758443,2.3832495604789226,0.7906766917293233,0,0.05
1757392055.0100963,0.324,-0.448,9.708,0.19640253307938776,3.2595488788803495,0.7943859649122808,0,0.05
1757392055.037305,0.324,-0.448,9.708,0.19640253307938776,3.2595488788803495,0.7943859649122808,0,0.05
1757392055.0641334,0.437,-0.733,9.723,0.19761421381064673,5.015953442437792,0.8000501253132832,0,0.05
1757392055.0911157,0.437,-0.733,9.723,0.19761421381064673,5.015953442437792,0.8000501253132832,0,0.05
1757392055.117501,0.444,-0.511,9.713,0.1988572792230649,3.986778385257263,0.8004010025062656,0,0.05
1757392055.1437747,0.444,-0.511,9.713,0.1988572792230649,3.986778385257263,0.8004010025062656,0,0.05
1757392055.171333,0.353,-0.514,9.742,0.199639024241254,3.662253628636346,0.8049624060150374,0,0.05
1757392055.198431,0.353,-0.514,9.742,0.199639024241254,3.662253628636346,0.8049624060150374,0,0.05
1757392055.2251322,0.429,-0.485,9.822,0.2007880536784995,3.771720991500191,0.8087719298245613,0,0.05
1757392055.2516916,0.429,-0.485,9.822,0.2007880536784995,3.771720991500191,0.8087719298245613,0,0.05
1757392055.278298,0.387,-0.498,9.834,0.20171828127366145,3.669574401505774,0.8108771929824561,0,0.05
1757392055.3053038,0.387,-0.498,9.834,0.20171828127366145,3.669574401505774,0.8108771929824561,0,0.05
1757392055.3324337,0.365,-0.478,9.768,0.20254216227738858,3.5232928478973133,0.8119799498746866,0,0.05
1757392055.3588605,0.365,-0.478,9.768,0.20254216227738858,3.5232928478973133,0.8119799498746866,0,0.05
1757392055.3857577,0.285,-0.498,9.851,0.20304282799448986,3.3335036942118204,0.8159899749373433,0,0.05
1757392055.4128835,0.285,-0.498,9.851,0.20304282799448986,3.3335036942118204,0.8159899749373433,0,0.05
1757392055.440089,0.381,-0.367,9.768,0.2039345299354673,3.0999563499334086,0.8208020050125312,0,0.05
1757392055.4668756,0.381,-0.367,9.768,0.2039345299354673,3.0999563499334086,0.8208020050125312,0,0.05
1757392055.493393,0.268,-0.361,9.721,0.20437429510581803,2.6480964810512755,0.8264661654135337,0,0.05
1757392055.5204961,0.268,-0.361,9.721,0.20437429510581803,2.6480964810512755,0.8264661654135337,0,0.05
1757392055.5473692,0.306,-0.401,9.741,0.2049461941583693,2.9642954661579433,0.8283709273182956,0,0.05
1757392055.57437,0.306,-0.401,9.741,0.2049461941583693,2.9642954661579433,0.8283709273182956,0,0.05
1757392055.6012845,0.392,-0.3,9.707,0.20588128253923424,2.91111492365547,0.8326817042606515,0,0.05
1757392055.6268022,0.392,-0.3,9.707,0.20588128253923424,2.91111492365547,0.8326817042606515,0,0.05
1757392055.6539545,0.263,-0.185,9.778,0.20630081192278427,1.8834920415744303,0.8391478696741853,0,0.05
1757392055.6815484,0.263,-0.185,9.778,0.20630081192278427,1.8834920415744303,0.8391478696741853,0,0.05
1757392055.7083879,0.277,-0.451,9.675,0.20676519895765827,3.1312576046264864,0.8398496240601503,0,0.05
1757392055.7351627,0.277,-0.451,9.675,0.20676519895765827,3.1312576046264864,0.8398496240601503,0,0.05
1757392055.7617943,0.067,-0.473,9.69,0.20679233544790773,2.822424391025752,0.8503759398496239,0,0.05
1757392055.7886033,0.067,-0.473,9.69,0.20679233544790773,2.822424391025752,0.8503759398496239,0,0.05
1757392055.815583,0.267,-0.478,9.917,0.2072228088314604,3.1600786927948907,0.8604010025062655,0,0.05
1757392055.8427348,0.267,-0.478,9.917,0.2072228088314604,3.1600786927948907,0.8604010025062655,0,0.05
1757392055.869827,0.536,-0.384,9.829,0.2089486360328777,3.8378138090302856,0.8738847117794486,0,0.05
1757392055.89742,0.536,-0.384,9.829,0.2089486360328777,3.8378138090302856,0.8738847117794486,0,0.05
1757392055.9248524,0.495,-0.412,9.755,0.21040935102794267,3.7771889735384043,0.87593984962406,0,0.05
1757392055.952096,0.495,-0.412,9.755,0.21040935102794267,3.7771889735384043,0.87593984962406,0,0.05
1757392055.978514,0.48,-0.457,9.888,0.2117736881673453,3.8346034916464444,0.8766917293233083,0,0.05
1757392056.0055342,0.48,-0.457,9.888,0.2117736881673453,3.8346034916464444,0.8766917293233083,0,0.05
1757392056.0327473,0.345,-0.177,9.804,0.21247507500881133,2.2649077972547698,0.8834586466165412,0,0.05
1757392056.0598383,0.345,-0.177,9.804,0.21247507500881133,2.2649077972547698,0.8834586466165412,0,0.05
1757392056.0873816,0.286,0.021,9.743,0.21295574070684264,1.6859247747691957,0.8864160401002505,0,0.05
1757392056.114813,0.286,0.021,9.743,0.21295574070684264,1.6859247747691957,0.8864160401002505,0,0.05
1757392056.1418781,0.462,-0.287,9.857,0.21420494275342947,3.1582487705214493,0.8952380952380954,0,0.05
1757392056.1692793,0.462,-0.287,9.857,0.21420494275342947,3.1582487705214493,0.8952380952380954,0,0.05
1757392056.1964297,0.344,-0.214,9.781,0.21489438685084353,2.371853299000453,0.9011528822055138,0,0.05
1757392056.2234871,0.344,-0.214,9.781,0.21489438685084353,2.371853299000453,0.9011528822055138,0,0.05
1757392056.2502358,0.342,-0.316,9.786,0.2155736707021523,2.7242041810630444,0.9012531328320803,0,0.05
1757392056.2770765,0.342,-0.316,9.786,0.2155736707021523,2.7242041810630444,0.9012531328320803,0,0.05
1757392056.3043437,0.31,-0.352,9.91,0.2161301864617712,2.709818985998274,0.9028571428571429,0,0.05
1757392056.331796,0.31,-0.352,9.91,0.2161301864617712,2.709818985998274,0.9028571428571429,0,0.05
1757392056.3587313,0.252,-0.358,10.052,0.21649715356096486,2.4938514412156216,0.9057644110275689,0,0.05
1757392056.3855367,0.252,-0.358,10.052,0.21649715356096486,2.4938514412156216,0.9057644110275689,0,0.05
1757392056.412169,0.237,-0.401,9.802,0.21682121667401463,2.7207033058732093,0.906516290726817,0,0.05
1757392056.4390945,0.237,-0.401,9.802,0.21682121667401463,2.7207033058732093,0.906516290726817,0,0.05
1757392056.4658294,0.298,-0.489,9.867,0.21733257924204555,3.3215276645153486,0.9095739348370926,0,0.05
1757392056.4927545,0.298,-0.489,9.867,0.21733257924204555,3.3215276645153486,0.9095739348370926,0,0.05
1757392056.5197136,0.441,-0.363,9.779,0.21844828335329167,3.342799214043207,0.9167418546365915,0,0.05
1757392056.546911,0.441,-0.363,9.779,0.21844828335329167,3.342799214043207,0.9167418546365915,0,0.05
1757392056.574575,0.441,-0.363,9.779,0.21844828335329167,3.342799214043207,0.9167418546365915,0,0.05
1757392056.6015308,0.309,-0.249,9.659,0.21899396110395372,2.352673961895847,0.9233583959899749,0,0.05
1757392056.6278942,0.184,-0.423,9.743,0.21918712325316922,2.7106674859916136,0.9296240601503758,0,0.05
1757392056.6547728,0.184,-0.423,9.743,0.21918712325316922,2.7106674859916136,0.9296240601503758,0,0.05
1757392056.681949,0.383,-0.425,9.672,0.22002208411884477,3.3851887073389,0.9395989974937343,0,0.05
1757392056.709592,0.383,-0.425,9.672,0.22002208411884477,3.3851887073389,0.9395989974937343,0,0.05
1757392056.737066,0.081,-0.256,9.637,0.22005935562933926,1.5959784620478012,0.954736842105263,0,0.05
1757392056.7646468,0.081,-0.256,9.637,0.22005935562933926,1.5959784620478012,0.954736842105263,0,0.05
1757392056.7917466,0.391,-0.431,9.596,0.2209260566343409,3.470333940719928,0.9702756892230575,0,0.05
1757392056.818899,0.391,-0.431,9.596,0.2209260566343409,3.470333940719928,0.9702756892230575,0,0.05
1757392056.8465447,0.152,-0.327,9.765,0.22105674045366722,2.1148515170827284,0.9822556390977443,0,0.05
1757392056.8737671,0.152,-0.327,9.765,0.22105674045366722,2.1148515170827284,0.9822556390977443,0,0.05
1757392056.9007058,0.152,-0.327,9.765,0.22105674045366722,2.1148515170827284,0.9822556390977443,0,0.05
1757392056.9271982,0.236,-0.278,9.685,0.22137145818736434,2.1563093360723475,0.9864661654135337,0,0.05
1757392056.9545286,0.12,-0.31,9.764,0.2214527545550066,1.9498818350888298,0.9922807017543859,0,0.05
1757392056.9811668,0.12,-0.31,9.764,0.2214527545550066,1.9498818350888298,0.9922807017543859,0,0.05
1757392057.0079937,0.318,-0.254,9.78,0.2220228197731035,2.3829552056806507,1.0022055137844612,0,0.05
1757392057.035318,0.318,-0.254,9.78,0.2220228197731035,2.3829552056806507,1.0022055137844612,0,0.05
1757392057.0628254,0.145,-0.192,9.845,0.2221411600762002,1.3999692465931468,1.0108771929824563,0,0.05
1757392057.0899649,0.145,-0.192,9.845,0.2221411600762002,1.3999692465931468,1.0108771929824563,0,0.05
1757392057.1159003,0.244,-0.285,9.75,0.2224759200452939,2.2036619334209093,1.0158395989974938,0,0.05
1757392057.1431925,0.244,-0.285,9.75,0.2224759200452939,2.2036619334209093,1.0158395989974938,0,0.05
1757392057.1698332,0.133,-0.398,9.898,0.22257528501610416,2.4276508726989676,1.02140350877193,0,0.05
1757392057.1968262,0.133,-0.398,9.898,0.22257528501610416,2.4276508726989676,1.02140350877193,0,0.05
1757392057.223921,0.117,-0.317,9.925,0.2226521502254133,1.9499147289685543,1.0222055137844612,0,0.05
1757392057.2508154,0.117,-0.317,9.925,0.2226521502254133,1.9499147289685543,1.0222055137844612,0,0.05
1757392057.2778573,0.292,-0.339,9.71,0.22313032066485272,2.638226539795972,1.0309774436090224,0,0.05
1757392057.3051927,0.292,-0.339,9.71,0.22313032066485272,2.638226539795972,1.0309774436090224,0,0.05
1757392057.3320053,0.203,-0.44,9.767,0.22336105860243413,2.840291153920079,1.035438596491228,0,0.05
1757392057.3581262,0.203,-0.44,9.767,0.22336105860243413,2.840291153920079,1.035438596491228,0,0.05
1757392057.3850567,0.388,-0.427,9.766,0.2242019681001931,3.3809652561821535,1.0447117794486216,0,0.05
1757392057.4122758,0.388,-0.427,9.766,0.2242019681001931,3.3809652561821535,1.0447117794486216,0,0.05
1757392057.4393096,0.265,-0.266,9.834,0.22459315439255936,2.1865620981808247,1.050877192982456,0,0.05
1757392057.4668367,0.265,-0.266,9.834,0.22459315439255936,2.1865620981808247,1.050877192982456,0,0.05
1757392057.4944458,0.452,-0.345,9.797,0.2257273687438012,3.3217343641402177,1.060250626566416,0,0.05
1757392057.521961,0.452,-0.345,9.797,0.2257273687438012,3.3217343641402177,1.060250626566416,0,0.05
1757392057.5491993,0.051,-0.38,9.841,0.22574177172158458,2.231125252528749,1.0803508771929824,0,0.05
1757392057.5763233,0.051,-0.38,9.841,0.22574177172158458,2.231125252528749,1.0803508771929824,0,0.05
1757392057.603518,0.353,-0.252,9.894,0.2264307178807681,2.510048856054029,1.0954887218045113,0,0.05
1757392057.6309853,0.353,-0.252,9.894,0.2264307178807681,2.510048856054029,1.0954887218045113,0,0.05
1757392057.6584146,0.299,-0.214,9.774,0.2269237151555562,2.15441357696019,1.0981954887218046,0,0.05
1757392057.6854832,0.299,-0.214,9.774,0.2269237151555562,2.15441357696019,1.0981954887218046,0,0.05
1757392057.7126791,0.289,-0.319,9.71,0.22738332172786993,2.538258069115749,1.0986967418546365,0,0.05
1757392057.7403536,0.289,-0.319,9.71,0.22738332172786993,2.538258069115749,1.0986967418546365,0,0.05
1757392057.7657905,0.425,-0.367,9.666,0.22837411740387745,3.324754843669703,1.105513784461153,0,0.05
1757392057.7934117,0.425,-0.367,9.666,0.22837411740387745,3.324754843669703,1.105513784461153,0,0.05
1757392057.8214023,0.278,-0.266,9.58,0.22879673839458464,2.2999230806334,1.1128822055137846,0,0.05
1757392057.8485634,0.278,-0.266,9.58,0.22879673839458464,2.2999230806334,1.1128822055137846,0,0.05
1757392057.8755126,0.55,-0.398,9.586,0.23044348005530554,4.051034258817424,1.126516290726817,0,0.05
1757392057.9030716,0.55,-0.398,9.586,0.23044348005530554,4.051034258817424,1.126516290726817,0,0.05
1757392057.9303944,0.373,-0.395,9.699,0.2311969290453487,3.2060213851607915,1.135388471177945,0,0.05
1757392057.9579806,0.373,-0.395,9.699,0.2311969290453487,3.2060213851607915,1.135388471177945,0,0.05
1757392057.9851975,0.539,-0.432,9.569,0.23276237346272272,4.128845209988004,1.1437092731829572,0,0.05
1757392058.0124981,0.539,-0.432,9.569,0.23276237346272272,4.128845209988004,1.1437092731829572,0,0.05
1757392058.0409672,0.363,-0.419,9.711,0.23346893797676813,3.267307732390826,1.1525313283208019,0,0.05
1757392058.0684817,0.363,-0.419,9.711,0.23346893797676813,3.267307732390826,1.1525313283208019,0,0.05
1757392058.0950801,0.452,-0.478,9.745,0.2345602374657734,3.8620683075927325,1.1569924812030072,0,0.05
1757392058.1222074,0.452,-0.478,9.745,0.2345602374657734,3.8620683075927325,1.1569924812030072,0,0.05
1757392058.149602,0.361,-0.495,9.717,0.2352537087911687,3.6077117788291573,1.1615538847117794,0,0.05
1757392058.1769145,0.361,-0.495,9.717,0.2352537087911687,3.6077117788291573,1.1615538847117794,0,0.05
1757392058.2040172,0.422,-0.767,9.703,0.23619804719768536,5.15540085355287,1.164611528822055,0,0.05
1757392058.231996,0.422,-0.767,9.703,0.23619804719768536,5.15540085355287,1.164611528822055,0,0.05
1757392058.260544,0.504,-0.578,9.823,0.23753853897841504,4.463998911668086,1.168721804511278,0,0.05
1757392058.2885394,0.504,-0.578,9.823,0.23753853897841504,4.463998911668086,1.168721804511278,0,0.05
1757392058.316055,0.433,-0.507,9.693,0.23852312256886124,3.9349146870714655,1.172280701754386,0,0.05
1757392058.3445008,0.433,-0.507,9.693,0.23852312256886124,3.9349146870714655,1.172280701754386,0,0.05
1757392058.371305,0.403,-0.577,9.746,0.23937272714325664,4.130416149060445,1.1737844611528825,0,0.05
1757392058.3980405,0.403,-0.577,9.746,0.23937272714325664,4.130416149060445,1.1737844611528825,0,0.05
1757392058.4250484,0.431,-0.398,9.782,0.24034081010098973,3.432088283515048,1.175187969924812,0,0.05
1757392058.452432,0.431,-0.398,9.782,0.24034081010098973,3.432088283515048,1.175187969924812,0,0.05
1757392058.4783783,0.388,-0.325,9.728,0.24112251035521343,2.9783171713896817,1.17734335839599,0,0.05
1757392058.5055888,0.388,-0.325,9.728,0.24112251035521343,2.9783171713896817,1.17734335839599,0,0.05
1757392058.5328608,0.233,-0.357,9.72,0.24140378518159156,2.5113139141533214,1.1851127819548872,0,0.05
1757392058.5607324,0.233,-0.357,9.72,0.24140378518159156,2.5113139141533214,1.1851127819548872,0,0.05
1757392058.588136,0.434,-0.381,9.712,0.24237713897973134,3.4029992578761163,1.195187969924812,0,0.05
1757392058.6156693,0.434,-0.381,9.712,0.24237713897973134,3.4029992578761163,1.195187969924812,0,0.05
1757392058.6429672,0.313,-0.378,9.703,0.24288186428797023,2.8954941973414132,1.2012531328320801,0,0.05
1757392058.670144,0.313,-0.378,9.703,0.24288186428797023,2.8954941973414132,1.2012531328320801,0,0.05
1757392058.6961884,0.443,-0.369,9.636,0.24388977530843722,3.424092027056853,1.2077694235588974,0,0.05
1757392058.7231185,0.443,-0.369,9.636,0.24388977530843722,3.424092027056853,1.2077694235588974,0,0.05
1757392058.7496514,0.345,-0.408,9.733,0.24449904907790543,3.142207737814124,1.212681704260652,0,0.05
1757392058.7768,0.345,-0.408,9.733,0.24449904907790543,3.142207737814124,1.212681704260652,0,0.05
1757392058.80445,0.361,-0.362,9.824,0.24516440912171572,2.9789719212631156,1.213483709273183,0,0.05
1757392058.8316987,0.361,-0.362,9.824,0.24516440912171572,2.9789719212631156,1.213483709273183,0,0.05
1757392058.858574,0.418,-0.285,9.771,0.24605364760555776,2.963962416414135,1.2163408521303258,0,0.05
1757392058.8857605,0.418,-0.285,9.771,0.24605364760555776,2.963962416414135,1.2163408521303258,0,0.05
1757392058.9128797,0.348,-0.43,9.736,0.24666811204531483,3.2519131305782425,1.2198496240601504,0,0.05
1757392058.9392314,0.348,-0.43,9.736,0.24666811204531483,3.2519131305782425,1.2198496240601504,0,0.05
1757392058.966308,0.332,-0.472,9.77,0.24722604535121293,3.3802678960147894,1.2206516290726817,0,0.05
1757392058.9922564,0.332,-0.472,9.77,0.24722604535121293,3.3802678960147894,1.2206516290726817,0,0.05
1757392059.019354,0.329,-0.411,9.787,0.24777271843364837,3.0790839079960963,1.2208020050125312,0,0.05
1757392059.0465236,0.329,-0.411,9.787,0.24777271843364837,3.0790839079960963,1.2208020050125312,0,0.05
1757392059.073718,0.244,-0.555,9.655,0.24807289251347073,3.5930663270321874,1.2250626566416039,0,0.05
1757392059.1002061,0.244,-0.555,9.655,0.24807289251347073,3.5930663270321874,1.2250626566416039,0,0.05
1757392059.127392,0.33,-0.586,9.665,0.24862101681072743,3.9804545727932825,1.22937343358396,0,0.05
1757392059.154498,0.33,-0.586,9.665,0.24862101681072743,3.9804545727932825,1.22937343358396,0,0.05
1757392059.181657,0.089,-0.587,9.822,0.24866083829183877,3.459138844172556,1.241453634085213,0,0.05
1757392059.208777,0.089,-0.587,9.822,0.24866083829183877,3.459138844172556,1.241453634085213,0,0.05
1757392059.2353253,0.197,-0.701,9.814,0.2488558518500218,4.243317252309915,1.2468671679197996,0,0.05
1757392059.2627742,0.197,-0.701,9.814,0.2488558518500218,4.243317252309915,1.2468671679197996,0,0.05
1757392059.2898443,0.164,-0.579,9.744,0.24899091348882593,3.534032685175796,1.2485213032581453,0,0.05
1757392059.3169725,0.164,-0.579,9.744,0.24899091348882593,3.534032685175796,1.2485213032581453,0,0.05
1757392059.3437269,0.213,-0.432,9.644,0.2492185737460192,2.8591843906485948,1.2509774436090224,0,0.05
1757392059.3702142,0.213,-0.432,9.644,0.2492185737460192,2.8591843906485948,1.2509774436090224,0,0.05
1757392059.397356,0.208,-0.403,9.586,0.24943547762898527,2.7086328904762724,1.2512280701754386,0,0.05
1757392059.4247,0.208,-0.403,9.586,0.24943547762898527,2.7086328904762724,1.2512280701754386,0,0.05
1757392059.4516304,0.308,-0.49,9.638,0.24991041895047114,3.4364780253368443,1.2562406015037595,0,0.05
1757392059.4785593,0.308,-0.49,9.638,0.24991041895047114,3.4364780253368443,1.2562406015037595,0,0.05
1757392059.505611,0.169,-0.38,9.722,0.25005323433221177,2.4494941594677893,1.2632080200501252,0,0.05
1757392059.5327222,0.169,-0.38,9.722,0.25005323433221177,2.4494941594677893,1.2632080200501252,0,0.05
1757392059.5598047,0.351,-0.39,9.554,0.2506683516122448,3.143440488943993,1.272330827067669,0,0.05
1757392059.5868087,0.351,-0.39,9.554,0.2506683516122448,3.143440488943993,1.272330827067669,0,0.05
1757392059.6128857,0.357,-0.332,9.624,0.25130309389261407,2.8999190687801475,1.2726315789473681,0,0.05
1757392059.6400392,0.357,-0.332,9.624,0.25130309389261407,2.8999190687801475,1.2726315789473681,0,0.05
1757392059.6673746,0.429,-0.386,9.733,0.2522168660101858,3.3932354132608094,1.2762406015037593,0,0.05
1757392059.695384,0.429,-0.386,9.733,0.2522168660101858,3.3932354132608094,1.2762406015037593,0,0.05
1757392059.7219944,0.26,-0.261,9.722,0.2525516729305114,2.1701152404822137,1.2847117794486214,0,0.05
1757392059.7498431,0.26,-0.261,9.722,0.2525516729305114,2.1701152404822137,1.2847117794486214,0,0.05
1757392059.776887,0.278,-0.421,9.729,0.2529338994678254,2.9684574588647457,1.2856140350877194,0,0.05
1757392059.8040183,0.278,-0.421,9.729,0.2529338994678254,2.9684574588647457,1.2856140350877194,0,0.05
1757392059.8300712,0.466,-0.334,9.767,0.25400481786769324,3.359472830723779,1.2950375939849625,0,0.05
1757392059.8564937,0.466,-0.334,9.767,0.25400481786769324,3.359472830723779,1.2950375939849625,0,0.05
1757392059.8833787,0.171,-0.343,9.674,0.25414867695898,2.2687445596461937,1.309824561403509,0,0.05
1757392059.9098713,0.171,-0.343,9.674,0.25414867695898,2.2687445596461937,1.309824561403509,0,0.05
1757392059.9359431,0.431,-0.454,9.698,0.255060683955799,3.6932885882480972,1.3228571428571427,0,0.05
1757392059.9643462,0.431,-0.454,9.698,0.255060683955799,3.6932885882480972,1.3228571428571427,0,0.05
1757392059.9916956,0.526,-0.371,9.708,0.25641303106511576,3.793359836024738,1.3276190476190475,0,0.05
1757392060.0202825,0.526,-0.371,9.708,0.25641303106511576,3.793359836024738,1.3276190476190475,0,0.05
1757392060.0472894,0.482,-0.325,9.762,0.2575431080421295,3.4079783088329805,1.3298245614035085,0,0.05
1757392060.075192,0.482,-0.325,9.762,0.2575431080421295,3.4079783088329805,1.3298245614035085,0,0.05
1757392060.1006048,0.471,-0.28,9.685,0.2586175844756114,3.2381373908940803,1.330375939849624,0,0.05
1757392060.1268566,0.471,-0.28,9.685,0.2586175844756114,3.2381373908940803,1.330375939849624,0,0.05
1757392060.1537006,0.577,-0.297,9.712,0.2602217852140747,3.822795511551137,1.335689223057644,0,0.05
1757392060.1813555,0.577,-0.297,9.712,0.2602217852140747,3.822795511551137,1.335689223057644,0,0.05
1757392060.2094126,0.484,-0.285,9.704,0.2613446335779635,3.31263937307993,1.3403508771929824,0,0.05
1757392060.2366443,0.484,-0.285,9.704,0.2613446335779635,3.31263937307993,1.3403508771929824,0,0.05
1757392060.2645173,0.436,-0.363,9.576,0.26225227835044634,3.3905333484065454,1.3427568922305764,0,0.05
1757392060.2922084,0.436,-0.363,9.576,0.26225227835044634,3.3905333484065454,1.3427568922305764,0,0.05
1757392060.3188105,0.385,-0.362,9.782,0.2629578293186951,3.0923195678417423,1.3453132832080203,0,0.05
1757392060.3472157,0.385,-0.362,9.782,0.2629578293186951,3.0923195678417423,1.3453132832080203,0,0.05
1757392060.3746614,0.442,-0.206,9.707,0.26388488020347056,2.875931783404296,1.3481704260651628,0,0.05
1757392060.4020717,0.251,-0.222,9.644,0.2641831419678402,1.9899933371635652,1.3577443609022555,0,0.05
1757392060.4297576,0.251,-0.222,9.644,0.2641831419678402,1.9899933371635652,1.3577443609022555,0,0.05
1757392060.4573877,0.399,-0.303,9.692,0.26493534116836887,2.9591593310129882,1.3651629072681704,0,0.05
1757392060.4853287,0.399,-0.303,9.692,0.26493534116836887,2.9591593310129882,1.3651629072681704,0,0.05
1757392060.5120392,0.253,-0.279,9.754,0.26523717216860837,2.2112551278826342,1.3724812030075189,0,0.05
1757392060.5395272,0.253,-0.279,9.754,0.26523717216860837,2.2112551278826342,1.3724812030075189,0,0.05
1757392060.566875,0.44,-0.221,9.731,0.2661479992410238,2.8966629343722072,1.3818546365914788,0,0.05
1757392060.5939498,0.44,-0.221,9.731,0.2661479992410238,2.8966629343722072,1.3818546365914788,0,0.05
1757392060.6212559,0.375,-0.259,9.735,0.2668076460673494,2.6803667409370218,1.3851127819548874,0,0.05
1757392060.6478086,0.375,-0.259,9.735,0.2668076460673494,2.6803667409370218,1.3851127819548874,0,0.05
1757392060.6751368,0.299,-0.315,9.762,0.26722616357684736,2.5474068424465615,1.388922305764411,0,0.05
1757392060.7027261,0.299,-0.315,9.762,0.26722616357684736,2.5474068424465615,1.388922305764411,0,0.05
1757392060.7300825,0.299,-0.315,9.762,0.26722616357684736,2.5474068424465615,1.388922305764411,0,0.05
1757392060.757845,0.367,-0.247,9.751,0.26785545542325623,2.597580286550911,1.392330827067669,0,0.05
1757392060.7850757,0.57,-0.233,9.638,0.26936739780455987,3.65572632546394,1.4025062656641605,0,0.05
1757392060.8130627,0.57,-0.233,9.638,0.26936739780455987,3.65572632546394,1.4025062656641605,0,0.05
1757392060.8406627,0.492,-0.314,9.677,0.2704883638902051,3.4515698301809477,1.4064160401002508,0,0.05
1757392060.8684194,0.492,-0.314,9.677,0.2704883638902051,3.4515698301809477,1.4064160401002508,0,0.05
1757392060.8958228,0.49,-0.332,9.676,0.2715956645456624,3.500426124820553,1.4065162907268172,0,0.05
1757392060.9232185,0.49,-0.332,9.676,0.2715956645456624,3.500426124820553,1.4065162907268172,0,0.05
1757392060.9499402,0.56,-0.283,9.588,0.27303517172701397,3.7441431048894667,1.4100250626566417,0,0.05
1757392060.977073,0.56,-0.283,9.588,0.27303517172701397,3.7441431048894667,1.4100250626566417,0,0.05
1757392061.0043395,0.514,-0.387,9.787,0.2742420372590606,3.761234233852275,1.412330827067669,0,0.05
1757392061.0312254,0.514,-0.387,9.787,0.2742420372590606,3.761234233852275,1.412330827067669,0,0.05
1757392061.0588782,0.449,-0.399,9.75,0.2751594038007787,3.525363820994943,1.4155889724310777,0,0.05
1757392061.086429,0.449,-0.399,9.75,0.2751594038007787,3.525363820994943,1.4155889724310777,0,0.05
1757392061.1138666,0.391,-0.387,9.658,0.27585304058501875,3.260143526195258,1.4184962406015038,0,0.05
1757392061.1418893,0.391,-0.387,9.658,0.27585304058501875,3.260143526195258,1.4184962406015038,0,0.05
1757392061.1696222,0.512,-0.349,9.733,0.2770383727933732,3.6427109785774845,1.424561403508772,0,0.05
1757392061.196715,0.512,-0.349,9.733,0.2770383727933732,3.6427109785774845,1.424561403508772,0,0.05
1757392061.2224944,0.28,-0.328,9.842,0.2773918888504132,2.5089923741536992,1.436190476190476,0,0.05
1757392061.249135,0.28,-0.328,9.842,0.2773918888504132,2.5089923741536992,1.436190476190476,0,0.05
1757392061.2760222,0.348,-0.336,9.766,0.2779370792103853,2.8356918871432177,1.439598997493734,0,0.05
1757392061.3043466,0.348,-0.336,9.766,0.2779370792103853,2.8356918871432177,1.439598997493734,0,0.05
1757392061.3320694,0.402,-0.266,9.752,0.27866293259061203,2.829803608240235,1.4423057644110273,0,0.05
1757392061.3596988,0.402,-0.266,9.752,0.27866293259061203,2.829803608240235,1.4423057644110273,0,0.05
1757392061.3879008,0.209,-0.411,9.893,0.2788588038775179,2.6684810639413157,1.4519799498746868,0,0.05
1757392061.415556,0.209,-0.411,9.893,0.2788588038775179,2.6684810639413157,1.4519799498746868,0,0.05
1757392061.4430606,0.198,-0.176,9.911,0.2790344826361072,1.5311172218644489,1.4525313283208021,0,0.05
1757392061.4701753,0.198,-0.176,9.911,0.2790344826361072,1.5311172218644489,1.4525313283208021,0,0.05
1757392061.4969738,0.266,-0.435,9.806,0.2793512708043405,2.9765323446510727,1.45593984962406,0,0.05
1757392061.5242572,0.266,-0.435,9.806,0.2793512708043405,2.9765323446510727,1.45593984962406,0,0.05
1757392061.5512047,0.351,-0.534,9.878,0.2799020096390878,3.7014241903581957,1.460200501253133,0,0.05
1757392061.578216,0.351,-0.534,9.878,0.2799020096390878,3.7014241903581957,1.460200501253133,0,0.05
1757392061.6046743,0.32,-0.456,9.846,0.28035893957568037,3.2382926996840533,1.4617543859649123,0,0.05
1757392061.6326153,0.32,-0.456,9.846,0.28035893957568037,3.2382926996840533,1.4617543859649123,0,0.05
1757392061.6604493,0.2,-0.334,9.767,0.2805372256938462,2.282538846570577,1.4677694235588974,0,0.05
1757392061.6882367,0.2,-0.334,9.767,0.2805372256938462,2.282538846570577,1.4677694235588974,0,0.05
1757392061.7146168,0.387,-0.363,9.846,0.28120376508859196,3.0846892682015037,1.477142857142857,0,0.05
1757392061.7415283,0.387,-0.363,9.846,0.28120376508859196,3.0846892682015037,1.477142857142857,0,0.05
1757392061.768521,0.423,-0.34,9.86,0.28199801417740517,3.1504439340590373,1.4789473684210528,0,0.05
1757392061.7966573,0.423,-0.34,9.86,0.28199801417740517,3.1504439340590373,1.4789473684210528,0,0.05
1757392061.8238695,0.434,-0.237,9.631,0.28283169907208067,2.939217249097396,1.4794987468671679,0,0.05
1757392061.8500988,0.434,-0.237,9.631,0.28283169907208067,2.939217249097396,1.4794987468671679,0,0.05
1757392061.8778358,0.572,-0.338,9.668,0.28427404032025155,3.93127703548746,1.4864160401002506,0,0.05
1757392061.905914,0.572,-0.338,9.668,0.28427404032025155,3.93127703548746,1.4864160401002506,0,0.05
1757392061.9333363,0.449,-0.315,9.719,0.28515913539636073,3.229968845401945,1.4925814536340851,0,0.05
1757392061.9610584,0.449,-0.315,9.719,0.28515913539636073,3.229968845401945,1.4925814536340851,0,0.05
1757392061.9879236,0.436,-0.476,9.699,0.28599121052927484,3.807613381335374,1.4932330827067668,0,0.05
1757392062.0156047,0.436,-0.476,9.699,0.28599121052927484,3.807613381335374,1.4932330827067668,0,0.05
1757392062.0425625,0.534,-0.398,9.567,0.2872348559976661,3.9821989753959244,1.4981453634085213,0,0.05
1757392062.0701702,0.534,-0.398,9.567,0.2872348559976661,3.9821989753959244,1.4981453634085213,0,0.05
1757392062.095965,0.458,-0.297,9.806,0.2881462692800308,3.186186584220709,1.501954887218045,0,0.05
1757392062.1227012,0.458,-0.297,9.806,0.2881462692800308,3.186186584220709,1.501954887218045,0,0.05
1757392062.149899,0.368,-0.164,9.728,0.28873315102357056,2.3715755561981418,1.5064661654135336,0,0.05
1757392062.178508,0.368,-0.164,9.728,0.28873315102357056,2.3715755561981418,1.5064661654135336,0,0.05
1757392062.2057595,0.347,-0.208,9.758,0.2892539628077721,2.374114640285387,1.5075187969924813,0,0.05
1757392062.233106,0.347,-0.208,9.758,0.2892539628077721,2.374114640285387,1.5075187969924813,0,0.05
1757392062.260636,0.336,-0.168,9.906,0.2897414278283311,2.171753522648621,1.5080701754385966,0,0.05
1757392062.288013,0.336,-0.168,9.906,0.2897414278283311,2.171753522648621,1.5080701754385966,0,0.05
1757392062.3137813,0.144,-0.222,9.92,0.2898308730967079,1.5279848188985912,1.5176942355889722,0,0.05
1757392062.3411152,0.144,-0.222,9.92,0.2898308730967079,1.5279848188985912,1.5176942355889722,0,0.05
1757392062.3682797,0.131,-0.139,9.893,0.28990487664059744,1.1060633190789213,1.5183458646616539,0,0.05
1757392062.3957865,0.131,-0.139,9.893,0.28990487664059744,1.1060633190789213,1.5183458646616539,0,0.05
1757392062.4230654,0.192,-0.211,9.894,0.29006378177911146,1.6515913466804424,1.5214035087719298,0,0.05
1757392062.4502769,0.192,-0.211,9.894,0.29006378177911146,1.6515913466804424,1.5214035087719298,0,0.05
1757392062.4769175,0.107,-0.197,9.822,0.2901131158703446,1.3075247061921946,1.5256641604010026,0,0.05
1757392062.5032427,0.107,-0.197,9.822,0.2901131158703446,1.3075247061921946,1.5256641604010026,0,0.05
1757392062.5285592,0.114,-0.248,9.699,0.29016910586759576,1.6119783367581393,1.526015037593985,0,0.05
1757392062.5558355,0.114,-0.248,9.699,0.29016910586759576,1.6119783367581393,1.526015037593985,0,0.05
1757392062.5827246,0.272,-0.256,9.75,0.2904876417336889,2.1939358212262414,1.5339348370927317,0,0.05
1757392062.6107543,0.272,-0.256,9.75,0.2904876417336889,2.1939358212262414,1.5339348370927317,0,0.05
1757392062.6382196,0.258,-0.288,9.794,0.29077393280691444,2.2608370699028093,1.5346365914786966,0,0.05
1757392062.6661134,0.258,-0.288,9.794,0.29077393280691444,2.2608370699028093,1.5346365914786966,0,0.05
1757392062.6936336,0.152,-0.451,9.813,0.2908732369950869,2.7766399056817503,1.5399498746867166,0,0.05
1757392062.7208543,0.152,-0.451,9.813,0.2908732369950869,2.7766399056817503,1.5399498746867166,0,0.05
1757392062.7479572,0.268,-0.194,9.711,0.29118173019610966,1.951274877987887,1.545764411027569,0,0.1
1757392062.7749002,0.268,-0.194,9.711,0.29118173019610966,1.951274877987887,1.545764411027569,0,0.1
1757392062.8017454,0.268,-0.142,9.834,0.29148989690896665,1.766527381585809,1.545764411027569,0,0.1
1757392062.828857,0.268,-0.142,9.834,0.29148989690896665,1.766527381585809,1.545764411027569,0,0.1
1757392062.8557172,0.252,-0.001,9.71,0.2917620948649773,1.486653935492742,1.5465664160401,0,0.1
1757392062.8830485,0.252,-0.001,9.71,0.2917620948649773,1.486653935492742,1.5465664160401,0,0.1
1757392062.9101949,0.325,-0.021,9.674,0.2922142749764289,1.9281492869367356,1.5502255639097744,0,0.1
1757392062.937588,0.325,-0.021,9.674,0.2922142749764289,1.9281492869367356,1.5502255639097744,0,0.1
1757392062.9648693,0.436,-0.109,9.839,0.29302631707749394,2.615296087977136,1.5557894736842106,0,0.1
1757392062.9916773,0.436,-0.109,9.839,0.29302631707749394,2.615296087977136,1.5557894736842106,0,0.1
1757392063.0186055,0.332,-0.066,9.697,0.29349613711256917,1.9992326669554046,1.5610025062656643,0,0.1
1757392063.0459516,0.332,-0.066,9.697,0.29349613711256917,1.9992326669554046,1.5610025062656643,0,0.1
1757392063.0730937,0.274,-0.079,9.828,0.29381571179907995,1.6619820470940547,1.5639097744360901,0,0.1
1757392063.0994308,0.274,-0.079,9.828,0.29381571179907995,1.6619820470940547,1.5639097744360901,0,0.1
1757392063.127425,0.491,0.017,9.815,0.2948395750234354,2.8655741559983507,1.5747869674185464,0,0.1
1757392063.1551871,0.392,-0.032,9.809,0.29549032979101025,2.2961149828563725,1.579749373433584,0,0.1
1757392063.1832552,0.392,-0.032,9.809,0.29549032979101025,2.2961149828563725,1.579749373433584,0,0.1
1757392063.211208,0.154,-0.078,9.787,0.29559063753779485,1.0104995956999376,1.5916791979949874,0,0.1
1757392063.2397144,0.154,-0.078,9.787,0.29559063753779485,1.0104995956999376,1.5916791979949874,0,0.1
1757392063.2669003,0.42,-0.139,9.769,0.2963356627205035,2.592952769188335,1.6050125313283208,0,0.1
1757392063.2948534,0.42,-0.139,9.769,0.2963356627205035,2.592952769188335,1.6050125313283208,0,0.1
1757392063.321901,0.264,-0.235,9.764,0.29662950797248744,2.0731131479170117,1.6128320802005012,0,0.1
1757392063.3493302,0.264,-0.235,9.764,0.29662950797248744,2.0731131479170117,1.6128320802005012,0,0.1
1757392063.3761404,0.159,-0.407,9.692,0.29673602325973164,2.581382289930045,1.618095238095238,0,0.1
1757392063.4029944,0.159,-0.407,9.692,0.29673602325973164,2.581382289930045,1.618095238095238,0,0.1
1757392063.4303563,0.117,-0.104,9.808,0.2967936825473211,0.914392500791264,1.6202005012531329,0,0.1
1757392063.4574137,0.117,-0.104,9.808,0.2967936825473211,0.914392500791264,1.6202005012531329,0,0.1
1757392063.4844465,0.217,-0.17,9.756,0.29699194012632735,1.6184924160306664,1.6252130325814538,0,0.1
1757392063.512005,0.217,-0.17,9.756,0.29699194012632735,1.6184924160306664,1.6252130325814538,0,0.1
1757392063.5392733,0.087,-0.155,9.724,0.2970237953430667,1.0472048042568738,1.6317293233082706,0,0.1
1757392063.5672772,0.087,-0.155,9.724,0.2970237953430667,1.0472048042568738,1.6317293233082706,0,0.1
1757392063.5939553,0.306,-0.216,9.765,0.2974175936288908,2.1966152154292162,1.642706766917293,0,0.1
1757392063.6209757,0.306,-0.216,9.765,0.2974175936288908,2.1966152154292162,1.642706766917293,0,0.1
1757392063.647869,0.048,-0.192,9.814,0.2974272768257814,1.155269788057034,1.6556390977443607,0,0.1
1757392063.6755118,0.048,-0.192,9.814,0.2974272768257814,1.155269788057034,1.6556390977443607,0,0.1
1757392063.7021272,0.236,-0.142,9.765,0.2976612588161247,1.615629133018278,1.665062656641604,0,0.1
1757392063.7296226,0.236,-0.142,9.765,0.2976612588161247,1.615629133018278,1.665062656641604,0,0.1
1757392063.7572885,0.24,-0.141,9.884,0.29790304630869424,1.6131424887785872,1.665263157894737,0,0.1
1757392063.7845676,0.24,-0.141,9.884,0.29790304630869424,1.6131424887785872,1.665263157894737,0,0.1
1757392063.812006,0.35,-0.389,9.841,0.2984166131434375,3.043742919371987,1.6707769423558896,0,0.1
1757392063.8391664,0.35,-0.389,9.841,0.2984166131434375,3.043742919371987,1.6707769423558896,0,0.1
1757392063.8665266,0.486,-0.205,9.753,0.2994043503357959,3.095682930662333,1.6775939849624057,0,0.1
1757392063.8943474,0.486,-0.205,9.753,0.2994043503357959,3.095682930662333,1.6775939849624057,0,0.1
1757392063.9222333,0.566,-0.219,9.737,0.3007388485048116,3.566538390795657,1.6816040100250624,0,0.1
1757392063.9493005,0.566,-0.219,9.737,0.3007388485048116,3.566538390795657,1.6816040100250624,0,0.1
1757392063.9762645,0.434,-0.302,9.727,0.3015207206810172,3.111387042414434,1.6882205513784458,0,0.1
1757392064.0037212,0.434,-0.302,9.727,0.3015207206810172,3.111387042414434,1.6882205513784458,0,0.1
1757392064.0308013,0.508,-0.431,9.74,0.3025886729538963,3.9128541781416075,1.6919298245614034,0,0.1
1757392064.0582454,0.508,-0.431,9.74,0.3025886729538963,3.9128541781416075,1.6919298245614034,0,0.1
1757392064.0854323,0.607,-0.597,9.721,0.30410693431751934,5.005314765076911,1.696892230576441,0,0.1
1757392064.1122055,0.607,-0.597,9.721,0.30410693431751934,5.005314765076911,1.696892230576441,0,0.1
1757392064.1394954,0.369,-0.556,9.907,0.3046660959148556,3.85345106954433,1.7088220551378444,0,0.1
1757392064.1670737,0.369,-0.556,9.907,0.3046660959148556,3.85345106954433,1.7088220551378444,0,0.1
1757392064.194413,0.365,-0.463,9.795,0.3052122089628788,3.444535557573887,1.7090225563909773,0,0.1
1757392064.2211208,0.365,-0.463,9.795,0.3052122089628788,3.444535557573887,1.7090225563909773,0,0.1
1757392064.2486315,0.524,-0.379,9.721,0.30633467400867304,3.8060375909397086,1.7169924812030073,0,0.1
1757392064.276625,0.524,-0.379,9.721,0.30633467400867304,3.8060375909397086,1.7169924812030073,0,0.1
1757392064.3026981,0.388,-0.382,9.751,0.30694835477649984,3.1960356590930568,1.7238095238095237,0,0.1
1757392064.3295717,0.388,-0.382,9.751,0.30694835477649984,3.1960356590930568,1.7238095238095237,0,0.1
1757392064.3566756,0.275,-0.328,9.727,0.3072561716223126,2.519631533223212,1.7294736842105263,0,0.1
1757392064.383658,0.275,-0.328,9.727,0.3072561716223126,2.519631533223212,1.7294736842105263,0,0.1
1757392064.41023,0.454,-0.341,9.663,0.3080935653336499,3.3628465939858736,1.7384461152882205,0,0.1
1757392064.4374077,0.454,-0.341,9.663,0.3080935653336499,3.3628465939858736,1.7384461152882205,0,0.1
1757392064.4637263,0.48,-0.296,9.594,0.3090269324832384,3.3639380300911146,1.7397493734335838,0,0.05
1757392064.4905305,0.48,-0.296,9.594,0.3090269324832384,3.3639380300911146,1.7397493734335838,0,0.05
1757392064.5178008,0.37,-0.352,9.655,0.3095801915497825,3.0277704906689333,1.7452631578947366,0,0.05
1757392064.545356,0.37,-0.352,9.655,0.3095801915497825,3.0277704906689333,1.7452631578947366,0,0.05
1757392064.5719774,0.323,-0.341,9.546,0.3100011572559045,2.8168498716752968,1.7476190476190474,0,0.05
1757392064.5992715,0.323,-0.341,9.546,0.3100011572559045,2.8168498716752968,1.7476190476190474,0,0.05
1757392064.6258934,0.262,-0.392,9.754,0.31027782308763224,2.7674482427459153,1.7506766917293233,0,0.05
1757392064.652864,0.262,-0.392,9.754,0.31027782308763224,2.7674482427459153,1.7506766917293233,0,0.05
1757392064.6805775,0.53,-0.336,9.644,0.3114074140093649,3.72296762685459,1.764110275689223,0,0.05
1757392064.707412,0.53,-0.336,9.644,0.3114074140093649,3.72296762685459,1.764110275689223,0,0.05
1757392064.7338078,0.386,-0.396,9.782,0.3120049158266581,3.235640141114676,1.771328320802005,0,0.05
1757392064.7612076,0.386,-0.396,9.782,0.3120049158266581,3.235640141114676,1.771328320802005,0,0.05
1757392064.7884567,0.347,-0.252,9.899,0.312486943727254,2.4806531308515334,1.77328320802005,0,0.05
1757392064.815755,0.347,-0.252,9.899,0.312486943727254,2.4806531308515334,1.77328320802005,0,0.05
1757392064.84301,0.409,-0.308,9.843,0.3131553807616915,2.977657200710974,1.7763909774436089,0,0.05
1757392064.870055,0.409,-0.308,9.843,0.3131553807616915,2.977657200710974,1.7763909774436089,0,0.05
1757392064.8969703,0.229,-0.365,9.844,0.31336463584776125,2.5063405612614065,1.7854135338345865,0,0.05
1757392064.9237347,0.229,-0.365,9.844,0.31336463584776125,2.5063405612614065,1.7854135338345865,0,0.05
1757392064.9509397,0.392,-0.32,9.805,0.3139769975651083,2.954365068564336,1.793583959899749,0,0.05
1757392064.9775133,0.392,-0.32,9.805,0.3139769975651083,2.954365068564336,1.793583959899749,0,0.05
1757392065.0048482,0.367,-0.394,9.851,0.3145127620622095,3.1286227803929036,1.7948370927318296,0,0.05
1757392065.0320287,0.367,-0.394,9.851,0.3145127620622095,3.1286227803929036,1.7948370927318296,0,0.05
1757392065.0593216,0.335,-0.398,9.842,0.3149584734532475,3.025676356036549,1.796441102756892,0,0.05
1757392065.086755,0.335,-0.398,9.842,0.3149584734532475,3.025676356036549,1.796441102756892,0,0.05
1757392065.1139975,0.421,-0.362,9.875,0.31566111971543154,3.2181382160723158,1.800751879699248,0,0.05
1757392065.1415954,0.421,-0.362,9.875,0.31566111971543154,3.2181382160723158,1.800751879699248,0,0.05
1757392065.1687212,0.403,-0.363,9.857,0.31630359624892035,3.149526254683756,1.8016541353383455,0,0.05
1757392065.1960764,0.403,-0.363,9.857,0.31630359624892035,3.149526254683756,1.8016541353383455,0,0.05
1757392065.2235296,0.497,-0.445,9.817,0.31727824933329424,3.887525720803027,1.806365914786967,0,0.05
1757392065.2512512,0.497,-0.445,9.817,0.31727824933329424,3.887525720803027,1.806365914786967,0,0.05
1757392065.2784934,0.471,-0.336,9.784,0.31815104903174535,3.3841733403173766,1.8076691729323309,0,0.05
1757392065.3052793,0.471,-0.336,9.784,0.31815104903174535,3.3841733403173766,1.8076691729323309,0,0.05
1757392065.3326263,0.27,-0.345,9.868,0.31843734077523006,2.5419920438325927,1.8177443609022557,0,0.05
1757392065.3600862,0.27,-0.345,9.868,0.31843734077523006,2.5419920438325927,1.8177443609022557,0,0.05
1757392065.3872538,0.281,-0.364,9.953,0.3187471450852541,2.6452756471909966,1.8182957393483707,0,0.05
1757392065.414592,0.281,-0.364,9.953,0.3187471450852541,2.6452756471909966,1.8182957393483707,0,0.05
1757392065.442072,0.378,-0.39,9.974,0.3193069878659094,3.1169065883687574,1.8231578947368416,0,0.05
1757392065.469346,0.378,-0.39,9.974,0.3193069878659094,3.1169065883687574,1.8231578947368416,0,0.05
1757392065.4961278,0.14,-0.185,9.884,0.3193837073177027,1.34462807437245,1.8350877192982455,0,0.05
1757392065.5215266,0.14,-0.185,9.884,0.3193837073177027,1.34462807437245,1.8350877192982455,0,0.05
1757392065.548216,0.242,-0.3,9.933,0.3196128321891973,2.2221898085138907,1.8402005012531328,0,0.05
1757392065.575282,0.242,-0.3,9.933,0.3196128321891973,2.2221898085138907,1.8402005012531328,0,0.05
1757392065.6020386,0.212,-0.234,9.96,0.319788559051133,1.815789265482969,1.841704260651629,0,0.05
1757392065.629144,0.212,-0.234,9.96,0.319788559051133,1.815789265482969,1.841704260651629,0,0.05
1757392065.6565125,0.233,-0.373,9.886,0.3200006953117446,2.5472068835383523,1.8427568922305761,0,0.05
1757392065.6837726,0.233,-0.373,9.886,0.3200006953117446,2.5472068835383523,1.8427568922305761,0,0.05
1757392065.7111094,0.185,-0.435,9.963,0.3201343585121722,2.7164212234574094,1.84516290726817,0,0.05
1757392065.7387893,0.185,-0.435,9.963,0.3201343585121722,2.7164212234574094,1.84516290726817,0,0.05
1757392065.7667325,0.345,-0.445,9.916,0.3205987679327542,3.2500037198369514,1.8531829573934833,0,0.05
1757392065.7941396,0.345,-0.445,9.916,0.3205987679327542,3.2500037198369514,1.8531829573934833,0,0.05
1757392065.820656,0.182,-0.555,9.972,0.32072789089818804,3.352096476805271,1.8613533834586464,0,0.05
1757392065.8477643,0.182,-0.555,9.972,0.32072789089818804,3.352096476805271,1.8613533834586464,0,0.05
1757392065.8748598,0.182,-0.555,9.972,0.32072789089818804,3.352096476805271,1.8613533834586464,0,0.05
1757392065.9020388,0.294,-0.482,9.869,0.3210645885176377,3.2742231807895483,1.8669674185463658,0,0.05
1757392065.9289527,0.217,-0.653,9.957,0.32124786769720354,3.953331516501898,1.8708270676691727,0,0.05
1757392065.9549897,0.217,-0.653,9.957,0.32124786769720354,3.953331516501898,1.8708270676691727,0,0.05
1757392065.9824624,0.408,-0.585,9.743,0.3218949401590525,4.186799213936108,1.8804010025062656,0,0.05
1757392066.0100267,0.408,-0.585,9.743,0.3218949401590525,4.186799213936108,1.8804010025062656,0,0.05
1757392066.0362177,0.216,-0.446,9.577,0.32207606632595354,2.9620706869542475,1.8900250626566413,0,0.05
1757392066.062592,0.216,-0.446,9.577,0.32207606632595354,2.9620706869542475,1.8900250626566413,0,0.05
1757392066.0899885,0.528,-0.553,9.675,0.32315623543419364,4.518526203507125,1.9056641604010023,0,1.1
1757392066.1171439,0.528,-0.553,9.675,0.32315623543419364,4.518526203507125,1.9056641604010023,0,1.1
1757392066.143977,0.337,-0.518,9.65,0.3235952332776242,3.664152525913701,1.9152380952380947,0,1.1
1757392066.1713386,0.337,-0.518,9.65,0.3235952332776242,3.664152525913701,1.9152380952380947,0,1.1
1757392066.1986947,0.391,-0.341,9.487,0.3241852518237065,3.1301722276317423,1.9179448621553885,0,1.1
1757392066.2262032,0.391,-0.341,9.487,0.3241852518237065,3.1301722276317423,1.9179448621553885,0,1.1
1757392066.2523253,0.23,-0.474,9.593,0.3243891605772301,3.143569464411633,1.926015037593985,0,1.1
1757392066.2791135,0.23,-0.474,9.593,0.3243891605772301,3.143569464411633,1.926015037593985,0,1.1
1757392066.3056688,0.304,-0.48,9.722,0.32474508079415154,3.344651244947606,1.9297243107769424,0,1.1
1757392066.3317564,0.304,-0.48,9.722,0.32474508079415154,3.344651244947606,1.9297243107769424,0,1.1
1757392066.3583534,0.304,-0.48,9.722,0.32474508079415154,3.344651244947606,1.9297243107769424,0,1.1
1757392066.3857775,0.057,-0.395,9.671,0.32475758651646613,2.3630741368449195,1.9316791979949874,0,1.1
1757392066.4132235,0.35,-0.426,9.757,0.3250624247740732,3.2341813716365917,1.9456641604010023,0,1.1
1757392066.4410427,0.35,-0.426,9.757,0.3250624247740732,3.2341813716365917,1.9456641604010023,0,1.1
1757392066.4666772,0.166,-0.578,9.808,0.32502366067718824,3.5086258998811366,1.9547368421052633,0,1.1
1757392066.493654,0.166,-0.578,9.808,0.32502366067718824,3.5086258998811366,1.9547368421052633,0,1.1
1757392066.5216517,0.225,-0.497,9.642,0.32507805216593755,3.238425857077273,1.9575939849624058,0,1.1
1757392066.5492187,0.225,-0.497,9.642,0.32507805216593755,3.238425857077273,1.9575939849624058,0,1.1
1757392066.575695,0.346,-0.326,9.685,0.3253950022664761,2.8100957590172415,1.963558897243108,0,1.1
1757392066.6029153,0.346,-0.326,9.685,0.3253950022664761,2.8100957590172415,1.963558897243108,0,1.1
1757392066.630332,0.334,-0.477,9.895,0.32568327405625236,3.3679103691215513,1.9634586466165413,0,1.1
1757392066.657774,0.334,-0.477,9.895,0.32568327405625236,3.3679103691215513,1.9634586466165413,0,1.1
1757392066.6851747,0.124,-0.396,9.673,0.32558097687057824,2.456414940016552,1.9733333333333334,0,1.1
1757392066.7122252,0.124,-0.396,9.673,0.32558097687057824,2.456414940016552,1.9733333333333334,0,1.1
1757392066.7395635,0.356,-0.396,9.733,0.32588495285913405,3.1315511796904816,1.984912280701754,0,1.1
1757392066.7662995,0.356,-0.396,9.733,0.32588495285913405,3.1315511796904816,1.984912280701754,0,1.1
1757392066.793709,0.141,-0.462,9.861,0.325777228332491,2.8043699797370643,1.9950877192982455,0,1.1
1757392066.8216634,0.141,-0.462,9.861,0.325777228332491,2.8043699797370643,1.9950877192982455,0,1.1
1757392066.8484519,0.184,-0.403,9.981,0.3257023794816366,2.5414703295601613,1.9967418546365914,0,1.1
1757392066.8767426,0.184,-0.403,9.981,0.3257023794816366,2.5414703295601613,1.9967418546365914,0,1.1
1757392066.9044142,0.162,-0.305,9.967,0.32558017061854366,1.9844869563019845,1.9967418546365914,0,1.1
1757392066.9319155,0.162,-0.305,9.967,0.32558017061854366,1.9844869563019845,1.9967418546365914,0,1.1
1757392066.9597204,0.3,-0.414,10.002,0.3256601372596898,2.926223005974665,2.0028571428571427,0,1.1
1757392066.9875162,0.3,-0.414,10.002,0.3256601372596898,2.926223005974665,2.0028571428571427,0,1.1
1757392067.015297,0.377,-0.398,10.015,0.32590680416339884,3.133174335258352,2.0064160401002504,0,1.1
1757392067.0425038,0.377,-0.398,10.015,0.32590680416339884,3.133174335258352,2.0064160401002504,0,1.1
1757392067.0695739,0.249,-0.352,9.915,0.32585875007432286,2.490014717241753,2.0126315789473685,0,1.1
1757392067.096738,0.249,-0.352,9.915,0.32585875007432286,2.490014717241753,2.0126315789473685,0,1.1
1757392067.1240106,0.343,-0.387,9.95,0.32603242936861354,2.975118709599577,2.0167418546365914,0,1.1
1757392067.151238,0.343,-0.387,9.95,0.32603242936861354,2.975118709599577,2.0167418546365914,0,1.1
1757392067.1792486,0.478,-0.329,10.016,0.3266546073454345,3.3157425262812645,2.0234085213032578,0,1.1
1757392067.2062888,0.19,-0.366,9.982,0.32653603170247536,2.3656699825900454,2.037142857142857,0,1.1
1757392067.234086,0.19,-0.366,9.982,0.32653603170247536,2.3656699825900454,2.037142857142857,0,1.1
1757392067.26033,0.162,-0.328,10.175,0.326406690341972,2.05908693995048,2.0379448621553884,0,1.1
1757392067.2865064,0.162,-0.328,10.175,0.326406690341972,2.05908693995048,2.0379448621553884,0,1.1
1757392067.3137934,0.252,-0.362,10.123,0.32644197799915375,2.49489442228564,2.0408521303258143,0,1.1
1757392067.3409405,0.252,-0.362,10.123,0.32644197799915375,2.49489442228564,2.0408521303258143,0,1.1
1757392067.3675344,0.146,-0.3,9.859,0.32636889021473847,1.9382190393305485,2.0450125313283207,0,1.1
1757392067.394287,0.146,-0.3,9.859,0.32636889021473847,1.9382190393305485,2.0450125313283207,0,1.1
1757392067.4218688,0.146,-0.3,9.859,0.32636889021473847,1.9382190393305485,2.0450125313283207,0,1.1
1757392067.4495826,0.187,-0.376,9.931,0.3263814715942068,2.4213221826494937,2.046817042606516,0,1.1
1757392067.4774547,0.264,-0.452,9.931,0.3265337386856066,3.017193952994219,2.0501253132832082,0,1.1
1757392067.5052698,0.264,-0.452,9.931,0.3265337386856066,3.017193952994219,2.0501253132832082,0,1.1
1757392067.5328343,0.359,-0.509,9.805,0.32689730038652814,3.6348496721187615,2.0547869674185466,0,1.1
1757392067.5602615,0.359,-0.509,9.805,0.32689730038652814,3.6348496721187615,2.0547869674185466,0,1.1
1757392067.5877807,0.278,-0.42,9.865,0.32706611716899076,2.922773368729829,2.058345864661654,0,1.1
1757392067.6143653,0.278,-0.42,9.865,0.32706611716899076,2.922773368729829,2.058345864661654,0,1.1
1757392067.6410642,0.308,-0.408,9.85,0.32728770982119076,2.970912819148435,2.058997493734336,0,1.1
1757392067.6676483,0.308,-0.408,9.85,0.32728770982119076,2.970912819148435,2.058997493734336,0,1.1
1757392067.6943226,0.272,-0.299,9.788,0.32740342469192346,2.3647654109784533,2.059548872180451,0,1.1
1757392067.721446,0.272,-0.299,9.788,0.32740342469192346,2.3647654109784533,2.059548872180451,0,1.1
1757392067.7493963,0.315,-0.341,9.745,0.3275731597674022,2.7273588077786663,2.060651629072682,0,1.1
1757392067.7766576,0.315,-0.341,9.745,0.3275731597674022,2.7273588077786663,2.060651629072682,0,1.1
1757392067.8039188,0.471,-0.449,9.886,0.3281710148687723,3.765936153258738,2.067218045112782,0,1.1
1757392067.8314543,0.471,-0.449,9.886,0.3281710148687723,3.765936153258738,2.067218045112782,0,1.1
1757392067.858685,0.292,-0.479,9.833,0.32819715873236927,3.265260912706637,2.0760401002506264,0,1.1
1757392067.8851848,0.292,-0.479,9.833,0.32819715873236927,3.265260912706637,2.0760401002506264,0,1.1
1757392067.9123263,0.329,-0.36,9.862,0.3283171561158509,2.831048805704841,2.077844611528822,0,1.1
1757392067.939233,0.329,-0.36,9.862,0.3283171561158509,2.831048805704841,2.077844611528822,0,1.1
1757392067.9666615,0.367,-0.525,10.048,0.32853985679061837,3.6476560327324092,2.079598997493734,0,1.1
1757392067.9939337,0.367,-0.525,10.048,0.32853985679061837,3.6476560327324092,2.079598997493734,0,1.1
1757392068.0213697,0.416,-0.522,9.967,0.32891451016943596,3.8313649286554847,2.081754385964912,0,1.1
1757392068.0485406,0.416,-0.522,9.967,0.32891451016943596,3.8313649286554847,2.081754385964912,0,1.1
1757392068.074855,0.332,-0.449,9.86,0.3290624446818567,3.241436395128101,2.0858145363408522,0,1.1
1757392068.1023328,0.332,-0.449,9.86,0.3290624446818567,3.241436395128101,2.0858145363408522,0,1.1
1757392068.129596,0.496,-0.376,9.874,0.32971939964157404,3.606871000727928,2.0934335839598996,0,1.1
1757392068.1571465,0.496,-0.376,9.874,0.32971939964157404,3.606871000727928,2.0934335839598996,0,1.1
1757392068.1847212,0.216,-0.35,9.91,0.32964391773548624,2.3765312033589447,2.1063659147869673,0,1.1
1757392068.2122214,0.216,-0.35,9.91,0.32964391773548624,2.3765312033589447,2.1063659147869673,0,1.1
1757392068.2396595,0.438,-0.347,9.725,0.3301597832868201,3.288584881173642,2.115438596491228,0,1.1
1757392068.2678351,0.438,-0.347,9.725,0.3301597832868201,3.288584881173642,2.115438596491228,0,1.1
1757392068.2954953,0.38,-0.198,9.837,0.3305622785497462,2.49417303918301,2.117142857142857,0,1.1
1757392068.3222373,0.38,-0.198,9.837,0.3305622785497462,2.49417303918301,2.117142857142857,0,1.1
1757392068.349532,0.376,-0.288,9.864,0.3309860382251795,2.7489709291133178,2.1168922305764406,0,1.1
1757392068.3769126,0.376,-0.288,9.864,0.3309860382251795,2.7489709291133178,2.1168922305764406,0,1.1
1757392068.4041483,0.393,-0.201,9.766,0.3314698628834905,2.5879782699108507,2.117543859649123,0,1.1
1757392068.4306064,0.393,-0.201,9.766,0.3314698628834905,2.5879782699108507,2.117543859649123,0,1.1
1757392068.457508,0.327,-0.268,9.7,0.3317690499428782,2.4957597042426185,2.1208521303258143,0,1.1
1757392068.484652,0.327,-0.268,9.7,0.3317690499428782,2.4957597042426185,2.1208521303258143,0,1.1
1757392068.5120566,0.527,-0.352,9.717,0.332710286886354,3.731560376658839,2.129573934837093,0,1.1
1757392068.5401914,0.527,-0.352,9.717,0.332710286886354,3.731560376658839,2.129573934837093,0,1.1
1757392068.5668478,0.458,-0.287,9.637,0.333359243159688,3.2100835560887697,2.1318295739348367,0,1.1
1757392068.5934563,0.458,-0.287,9.637,0.333359243159688,3.2100835560887697,2.1318295739348367,0,1.1
1757392068.620898,0.416,-0.19,9.658,0.33383286986155214,2.7111047773564816,2.1329824561403505,0,1.1
1757392068.6479182,0.416,-0.19,9.658,0.33383286986155214,2.7111047773564816,2.1329824561403505,0,1.1
1757392068.6752827,0.36,-0.115,9.875,0.33411124270218745,2.191672967480225,2.1348872180451126,0,1.1
1757392068.7018669,0.36,-0.115,9.875,0.33411124270218745,2.191672967480225,2.1348872180451126,0,1.1
1757392068.7291138,0.457,-0.165,9.728,0.33465268936615467,2.859317676958879,2.1390977443609023,0,1.1
1757392068.7567325,0.457,-0.165,9.728,0.33465268936615467,2.859317676958879,2.1390977443609023,0,1.1
1757392068.7844098,0.166,-0.318,9.728,0.3344912891242461,2.111824705876934,2.1526315789473682,0,1.1
1757392068.8120008,0.166,-0.318,9.728,0.3344912891242461,2.111824705876934,2.1526315789473682,0,1.1
1757392068.8399677,0.299,-0.348,9.849,0.3345175668032996,2.6671524804933395,2.158446115288221,0,1.1
1757392068.867621,0.299,-0.348,9.849,0.3345175668032996,2.6671524804933395,2.158446115288221,0,1.1
1757392068.894302,0.357,-0.271,9.725,0.33464844986941145,2.6387908321725915,2.1613533834586467,0,1.1
1757392068.9215832,0.357,-0.271,9.725,0.33464844986941145,2.6387908321725915,2.1613533834586467,0,1.1
1757392068.9483774,0.127,-0.318,9.782,0.3343633764334844,2.004839722879258,2.17203007518797,0,1.1
1757392068.9757476,0.127,-0.318,9.782,0.3343633764334844,2.004839722879258,2.17203007518797,0,1.1
1757392069.0022564,0.251,-0.269,9.744,0.3342909623367045,2.1623574026180736,2.177844611528822,0,1.1
1757392069.0303452,0.251,-0.269,9.744,0.3342909623367045,2.1623574026180736,2.177844611528822,0,1.1
1757392069.0578794,0.285,-0.236,9.778,0.3343036157447299,2.167207241020805,2.1787969924812027,0,1.1
1757392069.0855007,0.285,-0.236,9.778,0.3343036157447299,2.167207241020805,2.1787969924812027,0,1.1
1757392069.1128685,0.38,-0.399,9.722,0.33458282606852374,3.2438014102773947,2.1833082706766915,0,1.1
1757392069.1403728,0.38,-0.399,9.722,0.33458282606852374,3.2438014102773947,2.1833082706766915,0,1.1
1757392069.1678112,0.176,-0.315,9.772,0.33444791074246527,2.1147014701681,2.1932832080200497,0,1.1
1757392069.1951046,0.176,-0.315,9.772,0.33444791074246527,2.1147014701681,2.1932832080200497,0,1.1
1757392069.2209532,0.303,-0.449,9.744,0.3345499028545667,3.181823201242716,2.198095238095238,0,1.1
1757392069.248703,0.303,-0.449,9.744,0.3345499028545667,3.181823201242716,2.198095238095238,0,1.1
1757392069.276262,0.16,-0.399,9.83,0.3344597359922417,2.504059488702024,2.204661654135338,0,1.1
1757392069.3034122,0.16,-0.399,9.83,0.3344597359922417,2.504059488702024,2.204661654135338,0,1.1
1757392069.3305228,0.141,-0.253,9.906,0.33436763449831686,1.6747720053763793,2.2055137844611528,0,1.1
1757392069.3583105,0.141,-0.253,9.906,0.33436763449831686,1.6747720053763793,2.2055137844611528,0,1.1
1757392069.3858051,0.207,-0.216,9.992,0.3343645241349626,1.7150000086093355,2.208621553884712,0,1.1
1757392069.4132164,0.207,-0.216,9.992,0.3343645241349626,1.7150000086093355,2.208621553884712,0,1.1
1757392069.4396963,0.103,-0.164,9.969,0.33424705683072214,1.1129124427373995,2.213483709273183,0,1.1
1757392069.4661496,0.103,-0.164,9.969,0.33424705683072214,1.1129124427373995,2.213483709273183,0,1.1
1757392069.4937613,0.126,-0.153,9.908,0.33413833213206773,1.1460197215996997,2.2142857142857144,0,1.1
1757392069.5217917,0.126,-0.153,9.908,0.33413833213206773,1.1460197215996997,2.2142857142857144,0,1.1
1757392069.5493622,0.141,-0.256,9.968,0.33403326930112814,1.6794317429578691,2.214436090225564,0,1.1
1757392069.575923,0.141,-0.256,9.968,0.33403326930112814,1.6794317429578691,2.214436090225564,0,1.1
1757392069.6034014,0.283,-0.406,9.901,0.3341332743083215,2.8615334696730943,2.221503759398496,0,1.1
1757392069.6310313,0.283,-0.406,9.901,0.3341332743083215,2.8615334696730943,2.221503759398496,0,1.1
1757392069.659125,0.09,-0.532,9.882,0.3339621760020138,3.125257270089388,2.229724310776942,0,1.1
1757392069.6862543,0.09,-0.532,9.882,0.3339621760020138,3.125257270089388,2.229724310776942,0,1.1
1757392069.7141082,0.351,-0.334,9.717,0.3341682734790961,2.854566488598026,2.2424561403508774,0,1.1
1757392069.7418208,0.166,-0.404,9.822,0.33400264220511783,2.5462086704700293,2.251077694235589,0,1.1
1757392069.769712,0.166,-0.404,9.822,0.33400264220511783,2.5462086704700293,2.251077694235589,0,1.1
1757392069.7971804,0.209,-0.289,9.701,0.3338705812137392,2.1055111341048933,2.253182957393484,0,1.1
1757392069.8241386,0.209,-0.289,9.701,0.3338705812137392,2.1055111341048933,2.253182957393484,0,1.1
1757392069.8519747,0.39,-0.325,9.63,0.33414639755652015,3.0176772401973926,2.2618045112781955,0,1.1
1757392069.8809187,0.39,-0.325,9.63,0.33414639755652015,3.0176772401973926,2.2618045112781955,0,1.1
1757392069.908913,0.078,-0.387,9.808,0.3338943283435644,2.30497055967431,2.276992481203007,0,1.1
1757392069.9364314,0.078,-0.387,9.808,0.3338943283435644,2.30497055967431,2.276992481203007,0,1.1
1757392069.964073,0.259,-0.231,9.751,0.3338884768901137,2.0383519809060124,2.2857644110275688,0,1.1
1757392069.9920557,0.259,-0.231,9.751,0.3338884768901137,2.0383519809060124,2.2857644110275688,0,1.1
1757392070.0199156,0.026,-0.365,9.905,0.3336455679310007,2.115741485548655,2.2971929824561403,0,1.1
1757392070.0479972,0.026,-0.365,9.905,0.3336455679310007,2.115741485548655,2.2971929824561403,0,1.1
1757392070.0754542,0.305,-0.416,9.845,0.3337580336111777,2.9992792285195313,2.310927318295739,0,1.1
1757392070.1020238,0.305,-0.416,9.845,0.3337580336111777,2.9992792285195313,2.310927318295739,0,1.1
1757392070.129622,0.051,-0.38,9.973,0.33354105819224117,2.201623921059249,2.3226065162907266,0,1.1
1757392070.1578207,0.051,-0.38,9.973,0.33354105819224117,2.201623921059249,2.3226065162907266,0,1.1
1757392070.1851091,0.147,-0.359,9.873,0.3334322982255918,2.2501111332649213,2.3273182957393486,0,1.1
1757392070.2130065,0.147,-0.359,9.873,0.3334322982255918,2.2501111332649213,2.3273182957393486,0,1.1
1757392070.2414641,0.037,-0.39,9.908,0.33325095273682265,2.2642313807894676,2.3204010025062654,0,1.1
1757392070.2692451,0.037,-0.39,9.908,0.33325095273682265,2.2642313807894676,2.3204010025062654,0,1.1
1757392070.2970905,0.308,-0.4,9.895,0.33277433044031507,2.920684732740244,2.3238095238095235,0,1.1
1757392070.3236387,0.308,-0.4,9.895,0.33277433044031507,2.920684732740244,2.3238095238095235,0,1.1
1757392070.3506088,-0.022,-0.313,9.865,0.3310653636368504,1.8217703573802182,2.318095238095238,0,1.1
1757392070.3785698,-0.022,-0.313,9.865,0.3310653636368504,1.8217703573802182,2.318095238095238,0,1.1
1757392070.4057205,0.131,-0.17,9.77,0.3309303967604064,1.258417960180541,2.3110275689223054,0,1.1
1757392070.4332683,0.131,-0.17,9.77,0.3309303967604064,1.258417960180541,2.3110275689223054,0,1.1
1757392070.460403,0.272,-0.128,9.674,0.33017184540781186,1.7798530886112156,2.3064160401002507,0,1.1
1757392070.4888453,0.272,-0.128,9.674,0.33017184540781186,1.7798530886112156,2.3064160401002507,0,1.1
1757392070.5167067,0.178,-0.263,9.759,0.329971142677659,1.8638394326382555,2.305413533834586,0,1.1
1757392070.54481,0.178,-0.263,9.759,0.329971142677659,1.8638394326382555,2.305413533834586,0,1.1
1757392070.5722272,0.211,-0.162,9.643,0.33002111296097403,1.5801910184779795,2.2907769423558895,0,1.1
1757392070.598788,0.211,-0.162,9.643,0.33002111296097403,1.5801910184779795,2.2907769423558895,0,1.1
1757392070.6262994,0.224,-0.18,9.715,0.329255774436835,1.694260316278449,2.2883709273182955,0,0.30000000000000004
1757392070.6543138,0.224,-0.18,9.715,0.329255774436835,1.694260316278449,2.2883709273182955,0,0.30000000000000004
1757392070.680731,0.28,-0.25,9.589,0.32881478449120866,2.2417290711218225,2.2842606516290727,0,0.30000000000000004
1757392070.707358,0.28,-0.25,9.589,0.32881478449120866,2.2417290711218225,2.2842606516290727,0,0.30000000000000004
1757392070.7348416,0.222,-0.295,9.661,0.32865308457399267,2.188525096244578,2.2771929824561403,0,0.30000000000000004
1757392070.7631786,0.222,-0.295,9.661,0.32865308457399267,2.188525096244578,2.2771929824561403,0,0.30000000000000004
1757392070.7920399,0.426,-0.345,9.708,0.32838472863396073,3.2318774135109627,2.285563909774436,0,0.30000000000000004
1757392070.8189006,0.426,-0.345,9.708,0.32838472863396073,3.2318774135109627,2.285563909774436,0,0.30000000000000004
1757392070.844528,0.53,-0.309,9.644,0.3286308225045241,3.639942012453018,2.2864160401002507,0,0.30000000000000004
1757392070.8721988,0.53,-0.309,9.644,0.3286308225045241,3.639942012453018,2.2864160401002507,0,0.30000000000000004
1757392070.901035,0.383,-0.284,9.515,0.3286452951131356,2.8687547118481693,2.2890726817042606,0,0.30000000000000004
1757392070.9284694,0.383,-0.284,9.515,0.3286452951131356,2.8687547118481693,2.2890726817042606,0,0.30000000000000004
1757392070.9547527,0.511,-0.34,9.662,0.32933097713394655,3.6348153258120814,2.2952380952380946,0,0.30000000000000004
1757392070.9812212,0.511,-0.34,9.662,0.32933097713394655,3.6348153258120814,2.2952380952380946,0,0.30000000000000004
1757392071.0092285,0.504,-0.255,9.724,0.3299989848469234,3.324399393361004,2.286065162907268,0,0.30000000000000004
1757392071.0372937,0.504,-0.255,9.724,0.3299989848469234,3.324399393361004,2.286065162907268,0,0.30000000000000004
1757392071.0655458,0.465,-0.254,9.702,0.32998483298479037,3.125957552788211,2.2756390977443606,0,0.30000000000000004
1757392071.0927832,0.465,-0.254,9.702,0.32998483298479037,3.125957552788211,2.2756390977443606,0,0.30000000000000004
1757392071.1203878,0.397,-0.184,9.842,0.3303949189984616,2.545646350086911,2.2714285714285714,0,0.30000000000000004
1757392071.1481426,0.397,-0.184,9.842,0.3303949189984616,2.545646350086911,2.2714285714285714,0,0.30000000000000004
1757392071.1757915,0.469,-0.17,9.727,0.33069776987454874,2.9359036668443323,2.264210526315789,0,0.30000000000000004
1757392071.2033656,0.469,-0.17,9.727,0.33069776987454874,2.9359036668443323,2.264210526315789,0,0.30000000000000004
1757392071.2316425,0.395,-0.21,9.67,0.33119279506052063,2.648727596104712,2.267268170426065,0,0.30000000000000004
1757392071.2600417,0.534,-0.317,9.61,0.33218819214415196,3.697342454925042,2.270075187969925,0,0.30000000000000004
1757392071.2883823,0.534,-0.317,9.61,0.33218819214415196,3.697342454925042,2.270075187969925,0,0.30000000000000004
1757392071.315,0.355,-0.251,9.696,0.33264763263850233,2.567438088204651,2.2740852130325813,0,0.30000000000000004
1757392071.3425977,0.355,-0.251,9.696,0.33264763263850233,2.567438088204651,2.2740852130325813,0,0.30000000000000004
1757392071.3701916,0.412,-0.283,9.538,0.3331876423278631,2.9998057428748433,2.276240601503759,0,0.30000000000000004
1757392071.3977637,0.412,-0.283,9.538,0.3331876423278631,2.9998057428748433,2.276240601503759,0,0.30000000000000004
1757392071.425389,0.59,-0.365,9.531,0.3344102757093448,4.163303547765306,2.278796992481203,0,0.30000000000000004
1757392071.45364,0.59,-0.365,9.531,0.3344102757093448,4.163303547765306,2.278796992481203,0,0.30000000000000004
1757392071.4812284,0.351,-0.385,9.569,0.33459011491674406,3.1164002370556214,2.2860150375939847,0,0.30000000000000004
1757392071.5088024,0.351,-0.385,9.569,0.33459011491674406,3.1164002370556214,2.2860150375939847,0,0.30000000000000004
1757392071.5364766,0.353,-0.421,9.546,0.33493576249782586,3.2939572180588343,2.28250626566416,0,0.30000000000000004
1757392071.5638099,0.353,-0.421,9.546,0.33493576249782586,3.2939572180588343,2.28250626566416,0,0.30000000000000004
1757392071.5912097,0.255,-0.453,9.539,0.3349433160999037,3.1193233856922467,2.283458646616541,0,0.30000000000000004
1757392071.6187913,0.255,-0.453,9.539,0.3349433160999037,3.1193233856922467,2.283458646616541,0,0.30000000000000004
1757392071.6454318,0.461,-0.453,9.611,0.3353298040735419,3.8472330847608562,2.291278195488722,0,0.30000000000000004
1757392071.6732302,0.461,-0.453,9.611,0.3353298040735419,3.8472330847608562,2.291278195488722,0,0.30000000000000004
1757392071.7009282,0.393,-0.547,9.564,0.33536726137176837,4.028384442044089,2.2855639097744356,0,0.30000000000000004
1757392071.7295322,0.393,-0.547,9.564,0.33536726137176837,4.028384442044089,2.2855639097744356,0,0.30000000000000004
1757392071.7571945,0.312,-0.179,9.561,0.33558389413081197,2.1545496454524993,2.2804010025062653,0,0.30000000000000004
1757392071.7848825,0.312,-0.179,9.561,0.33558389413081197,2.1545496454524993,2.2804010025062653,0,0.30000000000000004
1757392071.8122888,0.311,-0.099,9.583,0.33540057021418435,1.9506213157743295,2.2791979949874683,0,0.30000000000000004
1757392071.83963,0.311,-0.099,9.583,0.33540057021418435,1.9506213157743295,2.2791979949874683,0,0.30000000000000004
1757392071.8679512,0.31,-0.195,9.691,0.3351412687211171,2.16422439904215,2.2712781954887213,0,0.30000000000000004
1757392071.895707,0.31,-0.195,9.691,0.3351412687211171,2.16422439904215,2.2712781954887213,0,0.30000000000000004
1757392071.9232616,0.336,-0.199,9.643,0.3353328943005741,2.3190166868888236,2.267067669172932,0,0.30000000000000004
1757392071.950837,0.336,-0.199,9.643,0.3353328943005741,2.3190166868888236,2.267067669172932,0,0.30000000000000004
1757392071.9792402,0.351,-0.156,9.673,0.3353143935174868,2.2739651701497543,2.266616541353383,0,0.30000000000000004
1757392072.0064003,0.351,-0.156,9.673,0.3353143935174868,2.2739651701497543,2.266616541353383,0,0.30000000000000004
1757392072.0343766,0.452,-0.105,9.672,0.3355319545140224,2.746785314018963,2.2618546365914782,0,0.30000000000000004
1757392072.0604496,0.452,-0.105,9.672,0.3355319545140224,2.746785314018963,2.2618546365914782,0,0.30000000000000004
1757392072.0873775,0.355,-0.294,9.755,0.33587239392364476,2.7052790505836586,2.2584461152882205,0,0.30000000000000004
1757392072.113863,0.355,-0.294,9.755,0.33587239392364476,2.7052790505836586,2.2584461152882205,0,0.30000000000000004
1757392072.1404035,0.196,-0.203,9.781,0.3355567053420331,1.6525083057890395,2.265814536340852,0,0.30000000000000004
1757392072.167955,0.196,-0.203,9.781,0.3355567053420331,1.6525083057890395,2.265814536340852,0,0.30000000000000004
1757392072.1954656,0.334,-0.142,9.929,0.3354814003786201,2.093387726461329,2.2633082706766916,0,0.30000000000000004
1757392072.2233791,0.334,-0.142,9.929,0.3354814003786201,2.093387726461329,2.2633082706766916,0,0.30000000000000004
1757392072.2508879,0.394,-0.309,9.879,0.3349281378146661,2.9015499822045037,2.2523809523809524,0,0.30000000000000004
1757392072.278792,0.394,-0.309,9.879,0.3349281378146661,2.9015499822045037,2.2523809523809524,0,0.30000000000000004
1757392072.3062212,0.139,-0.269,9.673,0.33472203019819297,1.7929232360416174,2.2572932330827067,0,0.30000000000000004
1757392072.333606,0.139,-0.269,9.673,0.33472203019819297,1.7929232360416174,2.2572932330827067,0,0.30000000000000004
1757392072.3612707,0.276,-0.479,9.815,0.33431576017292397,3.2237581370156345,2.2596491228070175,0,0.30000000000000004
1757392072.3888006,0.276,-0.479,9.815,0.33431576017292397,3.2237581370156345,2.2596491228070175,0,0.30000000000000004
1757392072.4156377,0.412,-0.459,9.779,0.33451814225838333,3.6090076812966707,2.2577944862155386,0,0.30000000000000004
1757392072.442216,0.412,-0.459,9.779,0.33451814225838333,3.6090076812966707,2.2577944862155386,0,0.30000000000000004
1757392072.4688942,0.234,-0.418,9.641,0.33461852160333266,2.8445655389613993,2.25719298245614,0,0.30000000000000004
1757392072.4964206,0.234,-0.418,9.641,0.33461852160333266,2.8445655389613993,2.25719298245614,0,0.30000000000000004
1757392072.5221229,0.419,-0.388,9.679,0.3347982004133236,3.3765074498309797,2.2612030075187968,0,0.30000000000000004
1757392072.549312,0.419,-0.388,9.679,0.3347982004133236,3.3765074498309797,2.2612030075187968,0,0.30000000000000004
1757392072.5766735,0.445,-0.353,9.792,0.3353000708320832,3.3198609115176376,2.2581954887218045,0,0.30000000000000004
1757392072.6029916,0.445,-0.353,9.792,0.3353000708320832,3.3198609115176376,2.2581954887218045,0,0.30000000000000004
1757392072.6297424,0.346,-0.391,9.679,0.33532046984936664,3.0876777980100227,2.261904761904762,0,0.30000000000000004
1757392072.656822,0.346,-0.391,9.679,0.33532046984936664,3.0876777980100227,2.261904761904762,0,0.30000000000000004
1757392072.6837964,0.392,-0.372,9.759,0.3354020795999929,3.1695754869289705,2.250526315789474,0,0.30000000000000004
1757392072.7111995,0.392,-0.372,9.759,0.3354020795999929,3.1695754869289705,2.250526315789474,0,0.30000000000000004
1757392072.7389064,0.525,-0.385,9.734,0.33639763301783204,3.8264060752454423,2.2435588972431075,0,0.30000000000000004
1757392072.766308,0.525,-0.385,9.734,0.33639763301783204,3.8264060752454423,2.2435588972431075,0,0.30000000000000004
1757392072.792593,0.341,-0.364,9.713,0.336342771588747,2.9396325891500497,2.2499749373433584,0,0.30000000000000004
1757392072.8193464,0.341,-0.364,9.713,0.336342771588747,2.9396325891500497,2.2499749373433584,0,0.30000000000000004
1757392072.8468935,0.444,-0.197,9.848,0.3367272041282082,2.823762470321103,2.250927318295739,0,0.30000000000000004
1757392072.8742757,0.444,-0.197,9.848,0.3367272041282082,2.823762470321103,2.250927318295739,0,0.30000000000000004
1757392072.9018216,0.583,-0.21,9.818,0.33780426655091256,3.61146415118749,2.252581453634085,0,0.30000000000000004
1757392072.9294777,0.583,-0.21,9.818,0.33780426655091256,3.61146415118749,2.252581453634085,0,0.30000000000000004
1757392072.9563308,0.417,-0.311,9.586,0.3380495303945858,3.106213873114083,2.2572932330827067,0,0.30000000000000004
1757392072.9831436,0.417,-0.311,9.586,0.3380495303945858,3.106213873114083,2.2572932330827067,0,0.30000000000000004
1757392073.0106053,0.559,-0.327,9.615,0.33861288738026496,3.8533394356854673,2.2552882205513782,0,0.30000000000000004
1757392073.0379913,0.401,-0.445,9.663,0.3390307950614516,3.547294219298858,2.2589974937343356,0,0.30000000000000004
1757392073.065414,0.401,-0.445,9.663,0.3390307950614516,3.547294219298858,2.2589974937343356,0,0.30000000000000004
1757392073.0931487,0.409,-0.326,9.601,0.33931117355607376,3.118178816615218,2.257844611528822,0,0.30000000000000004
1757392073.1208382,0.409,-0.326,9.601,0.33931117355607376,3.118178816615218,2.257844611528822,0,0.30000000000000004
1757392073.1478124,0.429,-0.227,9.547,0.3397183723321422,2.9103281916090498,2.2551378446115287,0,0.30000000000000004
1757392073.1755583,0.429,-0.227,9.547,0.3397183723321422,2.9103281916090498,2.2551378446115287,0,0.30000000000000004
1757392073.2033892,0.56,-0.34,9.605,0.3404335618002432,3.9019615773090983,2.2486215538847114,0,0.30000000000000004
1757392073.2307572,0.56,-0.34,9.605,0.3404335618002432,3.9019615773090983,2.2486215538847114,0,0.30000000000000004
1757392073.2582648,0.402,-0.397,9.568,0.3410005571842955,3.379385472023042,2.2471177944862153,0,0.5
1757392073.2858033,0.402,-0.397,9.568,0.3410005571842955,3.379385472023042,2.2471177944862153,0,0.5
1757392073.312561,0.336,-0.401,9.64,0.34114316642723475,3.1063815471911465,2.246065162907268,0,0.5
1757392073.3391633,0.336,-0.401,9.64,0.34114316642723475,3.1063815471911465,2.246065162907268,0,0.5
1757392073.3655033,0.379,-0.352,9.616,0.3411972450064625,3.078989866160533,2.2328822055137842,0,0.5
1757392073.39336,0.379,-0.352,9.616,0.3411972450064625,3.078989866160533,2.2328822055137842,0,0.5
1757392073.4199238,0.407,-0.443,9.731,0.3417933001098763,3.5375769794704164,2.225062656641604,0,0.5
1757392073.4472287,0.407,-0.443,9.731,0.3417933001098763,3.5375769794704164,2.225062656641604,0,0.5
1757392073.4748983,0.045,-0.409,9.71,0.3415952283039094,2.4264973699268264,2.2381453634085213,0,0.5
1757392073.5024185,0.045,-0.409,9.71,0.3415952283039094,2.4264973699268264,2.2381453634085213,0,0.5
1757392073.5299325,0.279,-0.117,9.793,0.34146199276054134,1.7694997359070423,2.2492731829573938,0,0.5
1757392073.5573723,0.279,-0.117,9.793,0.34146199276054134,1.7694997359070423,2.2492731829573938,0,0.5
1757392073.5855184,0.214,-0.184,9.752,0.34118108461636615,1.6577005399765286,2.2497243107769425,0,0.5
1757392073.612698,0.214,-0.184,9.752,0.34118108461636615,1.6577005399765286,2.2497243107769425,0,0.5
1757392073.639968,0.16,-0.24,9.64,0.3409581242616166,1.713869316916055,2.2478696741854636,0,0.5
1757392073.6666842,0.16,-0.24,9.64,0.3409581242616166,1.713869316916055,2.2478696741854636,0,0.5
1757392073.6928904,0.29,-0.115,9.805,0.3411153324024003,1.8223876041196434,2.2452130325814537,0,0.5
1757392073.7203321,0.29,-0.115,9.805,0.3411153324024003,1.8223876041196434,2.2452130325814537,0,0.5
1757392073.747818,0.359,-0.169,9.917,0.3410416140297251,2.2912423451835626,2.245363408521303,0,0.5
1757392073.7748845,0.359,-0.169,9.917,0.3410416140297251,2.2912423451835626,2.245363408521303,0,0.5
1757392073.8020413,0.193,-0.363,9.805,0.34080273619793605,2.400972576433364,2.248922305764411,0,0.5
1757392073.8287027,0.193,-0.363,9.805,0.34080273619793605,2.400972576433364,2.248922305764411,0,0.5
1757392073.8563173,0.43,-0.153,9.787,0.3412948761701529,2.670007802285164,2.256892230576441,0,0.5
1757392073.8841112,0.43,-0.153,9.787,0.3412948761701529,2.670007802285164,2.256892230576441,0,0.5
1757392073.911639,0.563,-0.101,9.721,0.3423749297188683,3.3674253155513103,2.2598496240601498,0,0.5
1757392073.939094,0.563,-0.101,9.721,0.3423749297188683,3.3674253155513103,2.2598496240601498,0,0.5
1757392073.966568,0.738,-0.232,9.65,0.34418033064078485,4.583402636892513,2.2658646616541356,0,0.5
1757392073.9941893,0.738,-0.232,9.65,0.34418033064078485,4.583402636892513,2.2658646616541356,0,0.5
1757392074.0212622,0.508,-0.206,9.62,0.34501647786736217,3.261372419779665,2.271328320802005,0,0.5
1757392074.0481374,0.508,-0.206,9.62,0.34501647786736217,3.261372419779665,2.271328320802005,0,0.5
1757392074.07597,0.68,-0.23,9.61,0.3466804111858644,4.271923957035253,2.2762907268170425,0,1.1
1757392074.1033964,0.68,-0.23,9.61,0.3466804111858644,4.271923957035253,2.2762907268170425,0,1.1
1757392074.1302352,0.655,-0.135,9.554,0.3481738933349254,4.00409848121755,2.2748872180451127,0,1.1
1757392074.157363,0.655,-0.135,9.554,0.3481738933349254,4.00409848121755,2.2748872180451127,0,1.1
1757392074.184762,0.465,-0.123,9.557,0.3489341771738618,2.8811990732929975,2.2766917293233084,0,1.1
1757392074.211464,0.465,-0.123,9.557,0.3489341771738618,2.8811990732929975,2.2766917293233084,0,1.1
1757392074.2393687,0.534,-0.031,9.606,0.3497828576417089,3.1871581374973967,2.271578947368421,0,1.1
1757392074.2671936,0.534,-0.031,9.606,0.3497828576417089,3.1871581374973967,2.271578947368421,0,1.1
1757392074.294513,0.455,-0.146,9.71,0.35051369445429664,2.817378019326448,2.2678195488721804,0,1.1
1757392074.3227932,0.455,-0.146,9.71,0.35051369445429664,2.817378019326448,2.2678195488721804,0,1.1
1757392074.3504303,0.406,-0.171,9.577,0.3509557379499586,2.633747514093579,2.259348370927318,0,1.1
1757392074.3779254,0.406,-0.171,9.577,0.3509557379499586,2.633747514093579,2.259348370927318,0,1.1
1757392074.4053214,0.465,-0.215,9.706,0.35172411418610466,3.021362393136704,2.2503258145363407,0,0.35000000000000003
1757392074.432907,0.465,-0.215,9.706,0.35172411418610466,3.021362393136704,2.2503258145363407,0,0.35000000000000003
1757392074.4608462,0.538,-0.146,9.699,0.35257501329504337,3.2895060198024137,2.252080200501253,0,0.35000000000000003
1757392074.4884098,0.538,-0.146,9.699,0.35257501329504337,3.2895060198024137,2.252080200501253,0,0.35000000000000003
1757392074.5157273,0.159,-0.289,9.586,0.3524230979944419,1.9707536034388922,2.2657644110275688,0,0.35000000000000003
1757392074.5430522,0.159,-0.289,9.586,0.3524230979944419,1.9707536034388922,2.2657644110275688,0,0.35000000000000003
1757392074.5702655,0.411,-0.218,9.594,0.3529366515396212,2.7762375668851242,2.2720300751879696,0,0.35000000000000003
1757392074.5977843,0.411,-0.218,9.594,0.3529366515396212,2.7762375668851242,2.2720300751879696,0,0.35000000000000003
1757392074.6252482,0.403,-0.104,9.603,0.35323008436428516,2.481699984489678,2.2659649122807015,0,0.35000000000000003
1757392074.653445,0.403,-0.104,9.603,0.35323008436428516,2.481699984489678,2.2659649122807015,0,0.35000000000000003
1757392074.6808958,0.383,-0.264,9.647,0.35366607485027457,2.760626642475666,2.2608020050125313,0,0.35000000000000003
1757392074.7071493,0.383,-0.264,9.647,0.35366607485027457,2.760626642475666,2.2608020050125313,0,0.35000000000000003
1757392074.7338943,0.337,-0.202,9.627,0.35379821226230074,2.337095051389677,2.2623558897243106,0,0.35000000000000003
1757392074.760648,0.337,-0.202,9.627,0.35379821226230074,2.337095051389677,2.2623558897243106,0,0.35000000000000003
1757392074.7869644,0.418,-0.437,9.807,0.3541746497139512,3.5285416565007677,2.2660150375939847,0,0.35000000000000003
1757392074.8142555,0.418,-0.437,9.807,0.3541746497139512,3.5285416565007677,2.2660150375939847,0,0.35000000000000003
1757392074.8418999,0.347,-0.544,9.783,0.3543441864910443,3.77353761657524,2.2612531328320804,0,0.35000000000000003
1757392074.8701103,0.347,-0.544,9.783,0.3543441864910443,3.77353761657524,2.2612531328320804,0,0.35000000000000003
1757392074.8982098,0.416,-0.396,9.752,0.3549167789778331,3.3705461970991424,2.2512280701754386,0,0.35000000000000003
1757392074.9257445,0.416,-0.396,9.752,0.3549167789778331,3.3705461970991424,2.2512280701754386,0,0.35000000000000003
1757392074.9537747,0.393,-0.454,9.814,0.3549733546338373,3.501283648311601,2.2492731829573933,0,0.35000000000000003
1757392074.9815903,0.393,-0.454,9.814,0.3549733546338373,3.501283648311601,2.2492731829573933,0,0.35000000000000003
1757392075.0091064,0.518,-0.531,9.717,0.35557930550019357,4.365587462692796,2.255238095238095,0,0.35000000000000003
1757392075.036458,0.518,-0.531,9.717,0.35557930550019357,4.365587462692796,2.255238095238095,0,0.35000000000000003
1757392075.0643866,0.454,-0.466,9.696,0.3559787809687538,3.8387452256487613,2.253182957393484,0,1.1
1757392075.0920484,0.37,-0.444,9.809,0.3563202772787426,3.372039922192186,2.254436090225564,0,1.1
1757392075.1195197,0.37,-0.444,9.809,0.3563202772787426,3.372039922192186,2.254436090225564,0,1.1
1757392075.1469035,0.551,-0.438,9.846,0.3571508539818994,4.089049025150535,2.262205513784461,0,0.30000000000000004
1757392075.1743314,0.551,-0.438,9.846,0.3571508539818994,4.089049025150535,2.262205513784461,0,0.30000000000000004
1757392075.2020328,0.515,-0.401,9.716,0.35779624788418335,3.8432721193026675,2.2617543859649123,0,0.30000000000000004
1757392075.2301233,0.515,-0.401,9.716,0.35779624788418335,3.8432721193026675,2.2617543859649123,0,0.30000000000000004
1757392075.257916,0.377,-0.213,9.759,0.3580931094003346,2.5405682965722556,2.2620551378446114,0,0.30000000000000004
1757392075.2855325,0.377,-0.213,9.759,0.3580931094003346,2.5405682965722556,2.2620551378446114,0,0.30000000000000004
1757392075.3130388,0.484,-0.101,9.814,0.3584302058978847,2.884103171634183,2.2628070175438593,0,0.30000000000000004
1757392075.3406122,0.484,-0.101,9.814,0.3584302058978847,2.884103171634183,2.2628070175438593,0,0.30000000000000004
1757392075.3681164,0.482,-0.164,9.745,0.35849281722232595,2.990751666226173,2.2574937343358394,0,0.30000000000000004
1757392075.3960328,0.482,-0.164,9.745,0.35849281722232595,2.990751666226173,2.2574937343358394,0,0.30000000000000004
1757392075.4242365,0.324,-0.086,9.779,0.3584194156292318,1.963302488910262,2.261904761904762,0,0.30000000000000004
1757392075.451885,0.324,-0.086,9.779,0.3584194156292318,1.963302488910262,2.261904761904762,0,0.30000000000000004
1757392075.4797292,0.329,-0.144,9.842,0.35816688498519794,2.0897905551833995,2.2600000000000002,0,0.30000000000000004
1757392075.5073204,0.329,-0.144,9.842,0.35816688498519794,2.0897905551833995,2.2600000000000002,0,0.30000000000000004
1757392075.5351372,0.336,-0.262,9.862,0.35805159893512556,2.4738525213210734,2.246666666666667,0,0.30000000000000004
1757392075.5626667,0.336,-0.262,9.862,0.35805159893512556,2.4738525213210734,2.246666666666667,0,0.30000000000000004
1757392075.589824,0.235,-0.218,9.803,0.35820288594593985,1.8728272532728267,2.232832080200501,0,0.30000000000000004
1757392075.616299,0.235,-0.218,9.803,0.35820288594593985,1.8728272532728267,2.232832080200501,0,0.30000000000000004
1757392075.6436875,0.308,-0.195,9.834,0.3577093477951059,2.122942040387932,2.2303759398496235,0,0.30000000000000004
1757392075.6717734,0.308,-0.195,9.834,0.3577093477951059,2.122942040387932,2.2303759398496235,0,0.30000000000000004
1757392075.6998332,0.474,-0.293,9.671,0.35803132195382015,3.2977641146136842,2.2383959899749373,0,0.30000000000000004
1757392075.7278543,0.474,-0.293,9.671,0.35803132195382015,3.2977641146136842,2.2383959899749373,0,0.30000000000000004
1757392075.7563133,0.361,-0.338,9.67,0.35800835185788615,2.9276227839832036,2.243107769423559,0,0.30000000000000004
1757392075.7843943,0.361,-0.338,9.67,0.35800835185788615,2.9276227839832036,2.243107769423559,0,0.30000000000000004
1757392075.8123376,0.394,-0.268,9.758,0.3581201858315166,2.7956788609737884,2.2425563909774437,0,0.30000000000000004
1757392075.8398921,0.394,-0.268,9.758,0.3581201858315166,2.7956788609737884,2.2425563909774437,0,0.30000000000000004
1757392075.8674204,0.492,-0.505,9.864,0.3586357553284391,4.088355828061074,2.2426065162907265,0,0.30000000000000004
1757392075.894444,0.492,-0.505,9.864,0.3586357553284391,4.088355828061074,2.2426065162907265,0,0.30000000000000004
1757392075.9213326,0.197,-0.381,9.766,0.35820188092750155,2.51478238949769,2.2504761904761903,0,0.30000000000000004
1757392075.9485314,0.197,-0.381,9.766,0.35820188092750155,2.51478238949769,2.2504761904761903,0,0.30000000000000004
1757392075.9759302,0.497,-0.323,9.489,0.3588164154550346,3.57438091490138,2.2570426065162907,0,0.30000000000000004
1757392076.003549,0.497,-0.323,9.489,0.3588164154550346,3.57438091490138,2.2570426065162907,0,0.30000000000000004
1757392076.0304003,0.216,-0.334,9.599,0.35831940709372695,2.372837322460813,2.2642105263157895,0,0.30000000000000004
1757392076.0571826,0.216,-0.334,9.599,0.35831940709372695,2.372837322460813,2.2642105263157895,0,0.30000000000000004
1757392076.084314,0.468,-0.413,9.551,0.3587754659950984,3.739058271646198,2.275187969924812,0,0.30000000000000004
1757392076.1118312,0.468,-0.413,9.551,0.3587754659950984,3.739058271646198,2.275187969924812,0,0.30000000000000004
1757392076.1389787,0.293,-0.384,9.465,0.3588317398168674,2.9213760070532038,2.2802506265664158,0,0.30000000000000004
1757392076.1656353,0.293,-0.384,9.465,0.3588317398168674,2.9213760070532038,2.2802506265664158,0,0.30000000000000004
1757392076.1925206,0.337,-0.401,9.54,0.35910150375625,3.142727459011641,2.2726315789473683,0,0.30000000000000004
1757392076.2198865,0.337,-0.401,9.54,0.35910150375625,3.142727459011641,2.2726315789473683,0,0.30000000000000004
