timestamp,ax,ay,az,rms,tilt_now,jerk,tilt_crosses,freq
1757391628.4187503,0.348,-0.384,9.74,0.0174,3.0456151756491483,0.01744360902255639,0,0.75
1757391628.4471982,0.345,-0.368,9.742,0.024501479547162044,2.964061498628816,0.017593984962406013,0,0.05
1757391628.4750166,0.356,-0.369,9.747,0.03028469085197998,3.0112330256769035,0.018145363408521305,0,0.05
1757391628.5014465,0.356,-0.366,9.75,0.03512837172429146,2.997680534701204,0.018145363408521305,0,0.05
1757391628.5291479,0.358,-0.372,9.762,0.03942603835030854,3.027381278619289,0.01824561403508772,0,0.05
1757391628.5548856,0.337,-0.37,9.749,0.04287580903026787,2.9387218756448106,0.019298245614035085,0,0.05
1757391628.5808883,0.33,-0.365,9.747,0.0459411036001531,2.890033958043953,0.019649122807017545,0,0.05
1757391628.606435,0.329,-0.363,9.742,0.048797412841256244,2.878879447308668,0.01969924812030075,0,0.05
1757391628.63164,0.334,-0.361,9.75,0.0515759391577119,2.8876687254856566,0.01994987468671679,0,0.05
1757391628.6567755,0.337,-0.356,9.754,0.054258639865002144,2.8771071661238072,0.02010025062656641,0,0.05
1757391628.6820536,0.321,-0.35,9.747,0.056582704954782785,2.789466153957066,0.020902255639097745,0,0.05
1757391628.7076957,0.323,-0.347,9.738,0.05884237418731504,2.7870732704273014,0.021002506265664158,0,0.05
1757391628.7327619,0.303,-0.355,9.731,0.06076139810768018,2.7459669249294545,0.02200501253132832,0,0.05
1757391628.758219,0.298,-0.352,9.729,0.06256162961432511,2.7140718315399983,0.02225563909774436,0,0.05
1757391628.783328,0.287,-0.341,9.736,0.06418629137128894,2.6210979125748985,0.022807017543859647,0,0.05
1757391628.8085153,0.28,-0.332,9.734,0.06569535752243076,2.5547112768416222,0.023157894736842103,0,0.05
1757391628.833642,0.28,-0.332,9.734,0.06569535752243076,2.5547112768416222,0.023157894736842103,0,0.05
1757391628.8585043,0.291,-0.342,9.718,0.06728731306866101,2.6456394250531923,0.02370927318295739,0,0.05
1757391628.8832202,0.291,-0.342,9.718,0.06728731306866101,2.6456394250531923,0.02370927318295739,0,0.05
1757391628.9080975,0.281,-0.354,9.727,0.06873852631530589,2.6603647846933876,0.024210526315789464,0,0.05
1757391628.9332252,0.281,-0.354,9.727,0.06873852631530589,2.6603647846933876,0.024210526315789464,0,0.05
1757391628.9588225,0.274,-0.353,9.742,0.07009047724191925,2.6262914403312343,0.024561403508771923,0,0.05
1757391628.984069,0.274,-0.353,9.742,0.07009047724191925,2.6262914403312343,0.024561403508771923,0,0.05
1757391629.0092096,0.265,-0.347,9.741,0.07133188277341346,2.566425612357764,0.025012531328320795,0,0.05
1757391629.0342264,0.265,-0.347,9.741,0.07133188277341346,2.566425612357764,0.025012531328320795,0,0.05
1757391629.0591877,0.256,-0.352,9.734,0.07247121842497199,2.5602239020753723,0.025463659147869664,0,0.05
1757391629.0848129,0.256,-0.352,9.734,0.07247121842497199,2.5602239020753723,0.025463659147869664,0,0.05
1757391629.1104784,0.258,-0.345,9.724,0.07361037630660504,2.536704644268898,0.02556390977443608,0,0.05
1757391629.1358223,0.258,-0.345,9.724,0.07361037630660504,2.536704644268898,0.02556390977443608,0,0.05
1757391629.160896,0.258,-0.345,9.724,0.07361037630660504,2.536704644268898,0.02556390977443608,0,0.05
1757391629.1861446,0.254,-0.343,9.745,0.07469790827058011,2.507816733945905,0.025764411027568913,0,0.05
1757391629.2117789,0.254,-0.343,9.745,0.07469790827058011,2.507816733945905,0.025764411027568913,0,0.05
1757391629.2370358,0.254,-0.353,9.755,0.07576983238730306,2.5525976497020375,0.025764411027568913,0,0.05
1757391629.2625124,0.254,-0.353,9.755,0.07576983238730306,2.5525976497020375,0.025764411027568913,0,0.05
1757391629.2879865,0.24,-0.348,9.762,0.07671419360196652,2.4795890941794565,0.02646616541353382,0,0.05
1757391629.313322,0.24,-0.348,9.762,0.07671419360196652,2.4795890941794565,0.02646616541353382,0,0.05
1757391629.3388321,0.233,-0.334,9.752,0.07759374974828837,2.3912658966373015,0.026817042606516274,0,0.05
1757391629.3643823,0.233,-0.334,9.752,0.07759374974828837,2.3912658966373015,0.026817042606516274,0,0.05
1757391629.3900566,0.23,-0.343,9.759,0.07844131564424453,2.423164312596037,0.0269674185463659,0,0.05
1757391629.4153738,0.23,-0.343,9.759,0.07844131564424453,2.423164312596037,0.0269674185463659,0,0.05
1757391629.4404006,0.238,-0.341,9.745,0.07933883034176896,2.443465895503811,0.027368421052631566,0,0.05
1757391629.4657757,0.238,-0.341,9.745,0.07933883034176896,2.443465895503811,0.027368421052631566,0,0.05
1757391629.491001,0.239,-0.353,9.747,0.08023373666980742,2.504311184403695,0.027418546365914773,0,0.05
1757391629.518053,0.239,-0.353,9.747,0.08023373666980742,2.504311184403695,0.027418546365914773,0,0.05
1757391629.5437973,0.242,-0.346,9.758,0.08114100381434777,2.477663393455802,0.0275689223057644,0,0.05
1757391629.5690298,0.242,-0.346,9.758,0.08114100381434777,2.477663393455802,0.0275689223057644,0,0.05
1757391629.5943303,0.242,-0.346,9.758,0.08114100381434777,2.477663393455802,0.0275689223057644,0,0.05
1757391629.6196306,0.249,-0.336,9.752,0.08209059020374991,2.4555800770421072,0.027919799498746865,0,0.05
1757391629.6446786,0.249,-0.336,9.752,0.08209059020374991,2.4555800770421072,0.027919799498746865,0,0.05
1757391629.6696804,0.25,-0.349,9.747,0.08303682917838326,2.52194095564987,0.02796992481203007,0,0.05
1757391629.6947877,0.25,-0.349,9.747,0.08303682917838326,2.52194095564987,0.02796992481203007,0,0.05
1757391629.720142,0.244,-0.355,9.751,0.0839282729477975,2.5294991936073723,0.028270676691729318,0,0.05
1757391629.745522,0.244,-0.355,9.751,0.0839282729477975,2.5294991936073723,0.028270676691729318,0,0.05
1757391629.770704,0.252,-0.354,9.751,0.08486881052542211,2.551586151160521,0.02867167919799498,0,0.05
1757391629.7959018,0.252,-0.354,9.751,0.08486881052542211,2.551586151160521,0.02867167919799498,0,0.05
1757391629.821482,0.257,-0.355,9.755,0.08583610836938031,2.57239529415229,0.02892230576441102,0,0.05
1757391629.8467588,0.257,-0.355,9.755,0.08583610836938031,2.57239529415229,0.02892230576441102,0,0.05
1757391629.872071,0.27,-0.36,9.738,0.08689123948937545,2.6457970409121456,0.029573934837092725,0,0.05
1757391629.8974667,0.27,-0.36,9.738,0.08689123948937545,2.6457970409121456,0.029573934837092725,0,0.05
1757391629.922755,0.268,-0.358,9.734,0.08791841388469199,2.630437496995655,0.029674185463659138,0,0.05
1757391629.9480784,0.268,-0.358,9.734,0.08791841388469199,2.630437496995655,0.029674185463659138,0,0.05
1757391629.9735243,0.268,-0.358,9.734,0.08791841388469199,2.630437496995655,0.029674185463659138,0,0.05
1757391629.999066,0.278,-0.371,9.746,0.08901043478154683,2.7234063706875977,0.030175438596491216,0,0.05
1757391630.0247695,0.278,-0.371,9.746,0.08901043478154683,2.7234063706875977,0.030175438596491216,0,0.05
1757391630.050088,0.279,-0.368,9.755,0.09009694778403983,2.710385289490033,0.030225563909774423,0,0.05
1757391630.0754,0.279,-0.368,9.755,0.09009694778403983,2.710385289490033,0.030225563909774423,0,0.05
1757391630.100687,0.284,-0.366,9.746,0.09120910042314857,2.7214255533256377,0.030476190476190462,0,0.05
1757391630.125827,0.284,-0.366,9.746,0.09120910042314857,2.7214255533256377,0.030476190476190462,0,0.05
1757391630.150843,0.276,-0.359,9.736,0.09224716797820949,2.6629713414594565,0.030877192982456125,0,0.05
1757391630.175906,0.276,-0.359,9.736,0.09224716797820949,2.6629713414594565,0.030877192982456125,0,0.05
1757391630.20096,0.271,-0.362,9.732,0.09323702322575511,2.6603513760207926,0.031127819548872164,0,0.05
1757391630.2264695,0.271,-0.362,9.732,0.09323702322575511,2.6603513760207926,0.031127819548872164,0,0.05
1757391630.2516072,0.279,-0.363,9.714,0.09427483757609981,2.698418271693165,0.03152882205513783,0,0.05
1757391630.2768667,0.279,-0.363,9.714,0.09427483757609981,2.698418271693165,0.03152882205513783,0,0.05
1757391630.302673,0.272,-0.37,9.736,0.09525074802855882,2.7004872182423605,0.031879699248120286,0,0.05
1757391630.3280296,0.272,-0.37,9.736,0.09525074802855882,2.7004872182423605,0.031879699248120286,0,0.05
1757391630.3533666,0.273,-0.37,9.757,0.09622384060096541,2.6981581627084976,0.0319298245614035,0,0.05
1757391630.3787243,0.273,-0.37,9.757,0.09622384060096541,2.6981581627084976,0.0319298245614035,0,0.05
1757391630.403814,0.273,-0.37,9.757,0.09622384060096541,2.6981581627084976,0.0319298245614035,0,0.05
1757391630.4287884,0.277,-0.383,9.762,0.0972154823060607,2.77206787366598,0.032130325814536335,0,0.05
1757391630.453638,0.277,-0.383,9.762,0.0972154823060607,2.77206787366598,0.032130325814536335,0,0.05
1757391630.4786987,0.284,-0.377,9.758,0.09824708647079566,2.769277170118184,0.032481203007518784,0,0.05
1757391630.5036335,0.284,-0.377,9.758,0.09824708647079566,2.769277170118184,0.032481203007518784,0,0.05
1757391630.5286765,0.284,-0.375,9.751,0.09926797066526545,2.761906498241924,0.032481203007518784,0,0.05
1757391630.5536556,0.284,-0.375,9.751,0.09926797066526545,2.761906498241924,0.032481203007518784,0,0.05
1757391630.5788443,0.286,-0.379,9.741,0.1002926717163323,2.7905390357344584,0.032581453634085204,0,0.05
1757391630.6037672,0.286,-0.379,9.741,0.1002926717163323,2.7905390357344584,0.032581453634085204,0,0.05
1757391630.6288013,0.299,-0.389,9.741,0.10140080127888537,2.883434731254775,0.033233082706766906,0,0.05
1757391630.6539965,0.299,-0.389,9.741,0.10140080127888537,2.883434731254775,0.033233082706766906,0,0.05
1757391630.6790013,0.3,-0.389,9.751,0.10250425600920188,2.8840581994193633,0.033283208020050116,0,0.05
1757391630.704129,0.3,-0.389,9.751,0.10250425600920188,2.8840581994193633,0.033283208020050116,0,0.05
1757391630.7297273,0.3,-0.389,9.751,0.10250425600920188,2.8840581994193633,0.033283208020050116,0,0.05
1757391630.7553377,0.307,-0.384,9.745,0.10364721414490599,2.888122144489999,0.03363408521303257,0,0.05
1757391630.7803261,0.307,-0.384,9.745,0.10364721414490599,2.888122144489999,0.03363408521303257,0,0.05
1757391630.8055701,0.317,-0.381,9.743,0.10485212205768656,2.912152477920949,0.03413533834586466,0,0.05
1757391630.8306735,0.317,-0.381,9.743,0.10485212205768656,2.912152477920949,0.03413533834586466,0,0.05
1757391630.8557785,0.309,-0.396,9.748,0.10598429128885091,2.9497093946841395,0.034536340852130316,0,0.05
1757391630.8812234,0.309,-0.396,9.748,0.10598429128885091,2.9497093946841395,0.034536340852130316,0,0.05
1757391630.906736,0.308,-0.388,9.768,0.1070972922160033,2.9032832812310128,0.034586466165413526,0,0.05
1757391630.9320216,0.308,-0.388,9.768,0.1070972922160033,2.9032832812310128,0.034586466165413526,0,0.05
1757391630.9571004,0.307,-0.395,9.777,0.10819173951831998,2.9291815447234852,0.03463659147869672,0,0.05
1757391630.9822233,0.307,-0.395,9.777,0.10819173951831998,2.9291815447234852,0.03463659147869672,0,0.05
1757391631.0070326,0.318,-0.395,9.769,0.10935384081046262,2.9714971824758227,0.03518796992481201,0,0.05
1757391631.0324082,0.318,-0.395,9.769,0.10935384081046262,2.9714971824758227,0.03518796992481201,0,0.05
1757391631.057803,0.325,-0.397,9.763,0.11055462450752569,3.0082298497684827,0.035538847117794474,0,0.05
1757391631.0831254,0.325,-0.397,9.763,0.11055462450752569,3.0082298497684827,0.035538847117794474,0,0.05
1757391631.108588,0.319,-0.407,9.76,0.11169927260282406,3.0328835955946514,0.03583959899749372,0,0.05
1757391631.1335673,0.319,-0.407,9.76,0.11169927260282406,3.0328835955946514,0.03583959899749372,0,0.05
1757391631.1585584,0.319,-0.407,9.76,0.11169927260282406,3.0328835955946514,0.03583959899749372,0,0.05
1757391631.1835039,0.332,-0.41,9.755,0.11292602667233094,3.0956212193177457,0.03649122807017542,0,0.05
1757391631.2087975,0.332,-0.41,9.755,0.11292602667233094,3.0956212193177457,0.03649122807017542,0,0.05
1757391631.2337856,0.344,-0.408,9.733,0.11422840058409292,3.138421329569167,0.03709273182957392,0,0.05
1757391631.2592509,0.344,-0.408,9.733,0.11422840058409292,3.138421329569167,0.03709273182957392,0,0.05
1757391631.2842894,0.349,-0.407,9.755,0.115553580645517,3.1458629256223145,0.03734335839598996,0,0.05
1757391631.3094954,0.349,-0.407,9.755,0.115553580645517,3.1458629256223145,0.03734335839598996,0,0.05
1757391631.3343897,0.366,-0.398,9.746,0.11699367504271331,3.1754860747234708,0.0381954887218045,0,0.05
1757391631.3599923,0.366,-0.398,9.746,0.11699367504271331,3.1754860747234708,0.0381954887218045,0,0.05
1757391631.385588,0.377,-0.394,9.753,0.11850249997362924,3.2002019466476495,0.038746867167919787,0,0.05
1757391631.4110916,0.377,-0.394,9.753,0.11850249997362924,3.2002019466476495,0.038746867167919787,0,0.05
1757391631.4368086,0.371,-0.395,9.744,0.11994559183229703,3.1832081144537305,0.03904761904761903,0,0.05
1757391631.4636514,0.371,-0.395,9.744,0.11994559183229703,3.1832081144537305,0.03904761904761903,0,0.05
1757391631.4901006,0.407,-0.43,9.811,0.12165963792482698,3.453483148597126,0.04085213032581452,0,0.05
1757391631.5165884,0.407,-0.43,9.811,0.12165963792482698,3.453483148597126,0.04085213032581452,0,0.05
1757391631.5434778,0.706,-0.296,9.68,0.12667737564379836,4.521810720263309,0.05583959899749372,0,0.05
1757391631.5709598,0.706,-0.296,9.68,0.12667737564379836,4.521810720263309,0.05583959899749372,0,0.05
1757391631.597741,0.447,-0.251,9.787,0.12863389910906067,2.9984531109673522,0.06882205513784459,0,0.05
1757391631.6247694,0.447,-0.251,9.787,0.12863389910906067,2.9984531109673522,0.06882205513784459,0,0.05
1757391631.6516328,0.666,-0.446,9.786,0.13287426387378407,4.682482247249666,0.07979949874686715,0,0.05
1757391631.6790924,0.666,-0.446,9.786,0.13287426387378407,4.682482247249666,0.07979949874686715,0,0.05
1757391631.7049963,0.412,-0.416,9.799,0.13446163021471963,3.4193633930380525,0.09253132832080199,0,0.05
1757391631.7320786,0.412,-0.416,9.799,0.13446163021471963,3.4193633930380525,0.09253132832080199,0,0.05
1757391631.7587533,0.809,-0.726,9.83,0.1404141463670951,6.310090828025731,0.11243107769423559,0,0.05
1757391631.7854974,0.809,-0.726,9.83,0.1404141463670951,6.310090828025731,0.11243107769423559,0,0.05
1757391631.812018,0.616,-0.459,9.583,0.1437524695440047,4.583211178915445,0.12210526315789473,0,0.05
1757391631.83911,0.616,-0.459,9.583,0.1437524695440047,4.583211178915445,0.12210526315789473,0,0.05
1757391631.8657537,0.053,-0.558,9.823,0.14377689313655376,3.2658199033320603,0.15032581453634083,0,0.05
1757391631.8927946,0.053,-0.558,9.823,0.14377689313655376,3.2658199033320603,0.15032581453634083,0,0.05
1757391631.9195154,0.205,-0.634,9.857,0.1441417965060794,3.867228755047032,0.15794486215538847,0,0.05
1757391631.9465146,0.205,-0.634,9.857,0.1441417965060794,3.867228755047032,0.15794486215538847,0,0.05
1757391631.972697,0.487,-0.416,9.535,0.14618406205876208,3.8429176150815683,0.1720802005012531,0,0.05
1757391631.999832,0.487,-0.416,9.535,0.14618406205876208,3.8429176150815683,0.1720802005012531,0,0.05
1757391632.0265682,0.418,-0.462,9.703,0.14767054547200673,3.6739282632591177,0.17553884711779447,0,0.05
1757391632.0538037,0.418,-0.462,9.703,0.14767054547200673,3.6739282632591177,0.17553884711779447,0,0.05
1757391632.0804632,0.545,-0.412,9.79,0.150163752283965,3.991971292035404,0.1819047619047619,0,0.05
1757391632.1073165,0.545,-0.412,9.79,0.150163752283965,3.991971292035404,0.1819047619047619,0,0.05
1757391632.1342077,0.514,-0.308,9.795,0.15234711188598227,3.5007476356413303,0.18345864661654135,0,0.05
1757391632.1610668,0.514,-0.308,9.795,0.15234711188598227,3.5007476356413303,0.18345864661654135,0,0.05
1757391632.18785,0.514,-0.308,9.795,0.15234711188598227,3.5007476356413303,0.18345864661654135,0,0.05
1757391632.214581,0.636,-0.387,9.74,0.1556305962849208,4.370979269346626,0.18957393483709273,0,0.05
1757391632.2417543,0.636,-0.387,9.74,0.1556305962849208,4.370979269346626,0.18957393483709273,0,0.05
1757391632.2682068,0.537,-0.525,9.992,0.1579297470396252,4.298249991649087,0.19453634085213034,0,0.05
1757391632.2950726,0.537,-0.525,9.992,0.1579297470396252,4.298249991649087,0.19453634085213034,0,0.05
1757391632.3217409,0.559,-0.396,9.757,0.1603839377867996,4.016225579457379,0.19563909774436092,0,0.05
1757391632.3481166,0.559,-0.396,9.757,0.1603839377867996,4.016225579457379,0.19563909774436092,0,0.05
1757391632.3741155,0.492,-0.519,9.751,0.16225956828489344,4.194571521351136,0.19899749373433587,0,0.05
1757391632.400175,0.492,-0.519,9.751,0.16225956828489344,4.194571521351136,0.19899749373433587,0,0.05
1757391632.4266584,0.6,-0.402,9.78,0.16500959820568015,4.223443032407585,0.20441102756892232,0,0.05
1757391632.4535267,0.6,-0.402,9.78,0.16500959820568015,4.223443032407585,0.20441102756892232,0,0.05
1757391632.4801414,0.183,-0.281,10.125,0.16526309327856598,1.8969182394804356,0.22531328320802008,0,0.05
1757391632.5074039,0.183,-0.281,10.125,0.16526309327856598,1.8969182394804356,0.22531328320802008,0,0.05
1757391632.5343027,0.132,-0.121,10.109,0.165394830632641,1.0148097729025445,0.22786967418546364,0,0.05
1757391632.5611324,0.132,-0.121,10.109,0.165394830632641,1.0148097729025445,0.22786967418546364,0,0.05
1757391632.5868144,0.211,-0.18,10.297,0.1657309642161054,1.5428701966967526,0.23182957393483708,0,0.05
1757391632.6133056,0.211,-0.18,10.297,0.1657309642161054,1.5428701966967526,0.23182957393483708,0,0.05
1757391632.6400828,0.028,-0.173,10.356,0.1657368773085821,0.9695054579754505,0.24100250626566416,0,0.05
1757391632.666973,0.028,-0.173,10.356,0.1657368773085821,0.9695054579754505,0.24100250626566416,0,0.05
1757391632.6941402,-0.123,-0.327,10.21,0.16585094211369436,1.9597947857048044,0.24857142857142855,0,0.05
1757391632.721283,-0.123,-0.327,10.21,0.16585094211369436,1.9597947857048044,0.24857142857142855,0,0.05
1757391632.7478063,0.085,-0.215,10.064,0.16590538719402695,1.315980580979569,0.25899749373433584,0,0.05
1757391632.7746108,0.085,-0.215,10.064,0.16590538719402695,1.315980580979569,0.25899749373433584,0,0.05
1757391632.8014188,0.398,-0.27,10.063,0.1670946064359948,2.736253882842195,0.2746867167919799,0,0.05
1757391632.8284094,0.398,-0.27,10.063,0.1670946064359948,2.736253882842195,0.2746867167919799,0,0.05
1757391632.8552282,0.028,-0.277,10.194,0.16710047127402125,1.564434301665275,0.2932330827067669,0,0.05
1757391632.8824897,0.028,-0.277,10.194,0.16710047127402125,1.564434301665275,0.2932330827067669,0,0.05
1757391632.9092185,0.12,-0.344,10.23,0.1672081562005873,2.039660337227896,0.2978446115288221,0,0.05
1757391632.9364655,0.12,-0.344,10.23,0.1672081562005873,2.039660337227896,0.2978446115288221,0,0.05
1757391632.9631782,0.292,-0.505,10.278,0.16784435498401487,3.248420881720751,0.30646616541353383,0,0.05
1757391632.9900446,0.292,-0.505,10.278,0.16784435498401487,3.248420881720751,0.30646616541353383,0,0.05
1757391633.0162704,0.238,-0.47,10.148,0.16826567534705347,2.9717919241856112,0.30917293233082704,0,0.05
1757391633.043305,0.238,-0.47,10.148,0.16826567534705347,2.9717919241856112,0.30917293233082704,0,0.05
1757391633.0702214,0.159,-0.578,10.253,0.168453376338974,3.346150100945631,0.31313283208020054,0,0.05
1757391633.097071,0.159,-0.578,10.253,0.168453376338974,3.346150100945631,0.31313283208020054,0,0.05
1757391633.1236796,0.477,-0.591,10.099,0.17013336680381072,4.300747279778627,0.32907268170426063,0,0.05
1757391633.1507638,0.477,-0.591,10.099,0.17013336680381072,4.300747279778627,0.32907268170426063,0,0.05
1757391633.1780782,0.573,-0.861,9.808,0.17252879469816046,6.019508482669924,0.33388471177944856,0,0.05
1757391633.2050955,0.573,-0.861,9.808,0.17252879469816046,6.019508482669924,0.33388471177944856,0,0.05
1757391633.2320712,0.42,-0.674,9.897,0.17380214325490925,4.587675648726898,0.3415538847117794,0,0.05
1757391633.2595932,0.42,-0.674,9.897,0.17380214325490925,4.587675648726898,0.3415538847117794,0,0.05
1757391633.2865734,0.479,-0.679,10.009,0.17544454251985156,4.745842412571802,0.34451127819548866,0,0.05
1757391633.3138003,0.479,-0.679,10.009,0.17544454251985156,4.745842412571802,0.34451127819548866,0,0.05
1757391633.3406858,0.513,-0.572,9.647,0.17730964440774225,4.5537632052646195,0.34621553884711775,0,0.05
1757391633.3676658,0.513,-0.572,9.647,0.17730964440774225,4.5537632052646195,0.34621553884711775,0,0.05
1757391633.3945282,0.266,-0.637,9.674,0.17780776136040857,4.081538509757867,0.35859649122807014,0,0.05
1757391633.4223845,0.266,-0.637,9.674,0.17780776136040857,4.081538509757867,0.35859649122807014,0,0.05
1757391633.4493153,0.276,-0.349,9.741,0.17834247951623863,2.615319108583479,0.3590977443609022,0,0.05
1757391633.4762378,0.276,-0.349,9.741,0.17834247951623863,2.615319108583479,0.3590977443609022,0,0.05
1757391633.5031097,0.433,-0.287,9.623,0.17965178123247205,3.089999849711838,0.36696741854636583,0,0.05
1757391633.5304227,0.433,-0.287,9.623,0.17965178123247205,3.089999849711838,0.36696741854636583,0,0.05
1757391633.557383,0.423,-0.167,9.493,0.18089246805768336,2.7427196261527915,0.3674686716791979,0,0.05
1757391633.584292,0.423,-0.167,9.493,0.18089246805768336,2.7427196261527915,0.3674686716791979,0,0.05
1757391633.6109235,0.402,-0.248,9.656,0.18200575540350367,2.800508537030848,0.3685213032581452,0,0.05
1757391633.6380794,0.402,-0.248,9.656,0.18200575540350367,2.800508537030848,0.3685213032581452,0,0.05
1757391633.6647859,0.203,-0.083,9.628,0.1822885555925001,1.3048931857390875,0.37849624060150366,0,0.05
1757391633.6917174,0.203,-0.083,9.628,0.1822885555925001,1.3048931857390875,0.37849624060150366,0,0.05
1757391633.718526,0.372,-0.222,9.617,0.1832350334952353,2.5791977411168694,0.38696741854636574,0,0.05
1757391633.7449098,0.372,-0.222,9.617,0.1832350334952353,2.5791977411168694,0.38696741854636574,0,0.05
1757391633.7705665,0.356,-0.267,9.74,0.18409757602966967,2.6159038670655343,0.38776942355889704,0,0.05
1757391633.797331,0.356,-0.267,9.74,0.18409757602966967,2.6159038670655343,0.38776942355889704,0,0.05
1757391633.8239906,0.488,-0.152,9.614,0.1857075052333642,3.043240873803691,0.39438596491228045,0,0.05
1757391633.8508933,0.488,-0.152,9.614,0.1857075052333642,3.043240873803691,0.39438596491228045,0,0.05
1757391633.8776805,0.344,0.103,9.551,0.18650232572276412,2.1531363630681164,0.4016040100250625,0,0.05
1757391633.9048572,0.344,0.103,9.551,0.18650232572276412,2.1531363630681164,0.4016040100250625,0,0.05
1757391633.931599,0.463,0.02,9.681,0.18793360529719,2.7406703507243697,0.4075689223057643,0,0.05
1757391633.9584553,0.463,0.02,9.681,0.18793360529719,2.7406703507243697,0.4075689223057643,0,0.05
1757391633.9848318,0.35,0.02,9.771,0.18874662910897244,2.0548177623317514,0.4132330827067668,0,0.05
1757391634.0108006,0.35,0.02,9.771,0.18874662910897244,2.0548177623317514,0.4132330827067668,0,0.05
1757391634.0370474,0.289,-0.417,9.78,0.1892989500763277,2.9696642162379057,0.41629072681704254,0,0.05
1757391634.0643492,0.289,-0.417,9.78,0.1892989500763277,2.9696642162379057,0.41629072681704254,0,0.05
1757391634.0917907,0.256,-0.34,9.699,0.18973121119098987,2.5125779406536783,0.4179448621553883,0,0.05
1757391634.1187344,0.256,-0.34,9.699,0.18973121119098987,2.5125779406536783,0.4179448621553883,0,0.05
1757391634.1458018,0.303,-0.209,9.817,0.19033511236763437,2.1473066251647595,0.4203007518796992,0,0.05
1757391634.1727774,0.303,-0.209,9.817,0.19033511236763437,2.1473066251647595,0.4203007518796992,0,0.05
1757391634.1996424,0.363,-0.302,9.713,0.19119852902153825,2.7832587843225935,0.4233082706766916,0,0.05
1757391634.2265208,0.363,-0.302,9.713,0.19119852902153825,2.7832587843225935,0.4233082706766916,0,0.05
1757391634.252742,0.104,-0.148,9.618,0.19126922779161315,1.0774405357886885,0.43629072681704245,0,0.05
1757391634.280066,0.104,-0.148,9.618,0.19126922779161315,1.0774405357886885,0.43629072681704245,0,0.05
1757391634.3073332,0.285,-0.01,9.715,0.1917993222094385,1.6813850098758043,0.4453634085213032,0,0.05
1757391634.3349864,0.285,-0.01,9.715,0.1917993222094385,1.6813850098758043,0.4453634085213032,0,0.05
1757391634.3617861,0.185,0.061,9.804,0.19202224480512667,1.1382697382871745,0.45037593984962404,0,0.05
1757391634.388573,0.185,0.061,9.804,0.19202224480512667,1.1382697382871745,0.45037593984962404,0,0.05
1757391634.4149504,0.126,-0.023,9.71,0.1921255644103616,0.7557294270119567,0.4533333333333333,0,0.05
1757391634.4407532,0.126,-0.023,9.71,0.1921255644103616,0.7557294270119567,0.4533333333333333,0,0.05
1757391634.4668255,0.169,-0.076,9.903,0.19231129712006,1.0719791757413684,0.4554887218045113,0,0.05
1757391634.4930296,0.169,-0.076,9.903,0.19231129712006,1.0719791757413684,0.4554887218045113,0,0.05
1757391634.5198119,0.261,-0.073,9.851,0.19275356676336758,1.5759000840221555,0.4601002506265665,0,0.05
1757391634.5471187,0.261,-0.073,9.851,0.19275356676336758,1.5759000840221555,0.4601002506265665,0,0.05
1757391634.5740848,0.296,0.108,9.654,0.19332091842322705,1.869356292119345,0.4618546365914787,0,0.05
1757391634.6007118,0.296,0.108,9.654,0.19332091842322705,1.869356292119345,0.4618546365914787,0,0.05
1757391634.6281931,0.266,0.231,9.774,0.19377788186477837,2.064324445122343,0.463358395989975,0,0.05
1757391634.6551144,0.266,0.231,9.774,0.19377788186477837,2.064324445122343,0.463358395989975,0,0.05
1757391634.6822734,0.398,0.121,9.77,0.19479701614757863,2.4380654519848384,0.4699749373433583,0,0.05
1757391634.709969,0.398,0.121,9.77,0.19479701614757863,2.4380654519848384,0.4699749373433583,0,0.05
1757391634.7372568,0.227,0.001,9.663,0.19512739428383705,1.3457390413459338,0.4785463659147869,0,0.05
1757391634.7647364,0.227,0.001,9.663,0.19512739428383705,1.3457390413459338,0.4785463659147869,0,0.05
1757391634.7914577,0.307,-0.296,9.686,0.19573022888659788,2.5209970856517816,0.4825563909774435,0,0.05
1757391634.81837,0.307,-0.296,9.686,0.19573022888659788,2.5209970856517816,0.4825563909774435,0,0.05
1757391634.8449852,0.291,-0.199,9.683,0.1962702855757845,2.085091115821428,0.4833583959899748,0,0.05
1757391634.8708432,0.291,-0.199,9.683,0.1962702855757845,2.085091115821428,0.4833583959899748,0,0.05
1757391634.897649,0.322,-0.306,9.602,0.19692951784839163,2.6487254851157886,0.48491228070175424,0,0.05
1757391634.9245381,0.322,-0.306,9.602,0.19692951784839163,2.6487254851157886,0.48491228070175424,0,0.05
1757391634.9512286,0.175,-0.366,9.615,0.19712381261532053,2.4160486394068403,0.4922807017543858,0,0.05
1757391634.9781878,0.175,-0.366,9.615,0.19712381261532053,2.4160486394068403,0.4922807017543858,0,0.05
1757391635.0054803,0.249,-0.335,9.644,0.19751658158240792,2.4782833038732344,0.4959899749373432,0,0.05
1757391635.0325296,0.249,-0.335,9.644,0.19751658158240792,2.4782833038732344,0.4959899749373432,0,0.05
1757391635.059293,0.379,-0.27,9.411,0.19842354320997294,2.830762024700484,0.5025062656641603,0,0.05
1757391635.0861156,0.379,-0.27,9.411,0.19842354320997294,2.830762024700484,0.5025062656641603,0,0.05
1757391635.1123962,0.276,-0.343,9.401,0.19890284688761997,2.6812437133187546,0.5076691729323307,0,0.05
1757391635.1381502,0.276,-0.343,9.401,0.19890284688761997,2.6812437133187546,0.5076691729323307,0,0.05
1757391635.1649277,0.214,-0.438,9.604,0.19919044279282078,2.905746309211023,0.5107769423558897,0,0.05
1757391635.1916454,0.214,-0.438,9.604,0.19919044279282078,2.905746309211023,0.5107769423558897,0,0.05
1757391635.2185352,0.141,-0.45,9.583,0.19931516500256571,2.81721371955775,0.5144360902255639,0,0.05
1757391635.2463417,0.141,-0.45,9.583,0.19931516500256571,2.81721371955775,0.5144360902255639,0,0.05
1757391635.2732494,0.211,-0.349,9.529,0.19959418202943693,2.450672056866274,0.5179448621553885,0,0.05
1757391635.2998967,0.211,-0.349,9.529,0.19959418202943693,2.450672056866274,0.5179448621553885,0,0.05
1757391635.3263273,0.326,-0.266,9.694,0.2002586514985058,2.4852667667185346,0.5237092731829575,0,0.05
1757391635.3524146,0.326,-0.266,9.694,0.2002586514985058,2.4852667667185346,0.5237092731829575,0,0.05
1757391635.3782463,0.25,-0.307,9.85,0.2006483927172107,2.3017336860394515,0.5275187969924813,0,0.05
1757391635.4053288,0.25,-0.307,9.85,0.2006483927172107,2.3017336860394515,0.5275187969924813,0,0.05
1757391635.433114,0.199,-0.303,9.765,0.20089494767166247,2.126009542969304,0.5300751879699249,0,0.05
1757391635.4598875,0.199,-0.303,9.765,0.20089494767166247,2.126009542969304,0.5300751879699249,0,0.05
1757391635.4866214,0.254,-0.315,9.87,0.20129597611477482,2.3476916282228966,0.5328320802005014,0,0.05
1757391635.5133693,0.254,-0.315,9.87,0.20129597611477482,2.3476916282228966,0.5328320802005014,0,0.05
1757391635.5401998,0.364,-0.421,9.888,0.20211707003615503,3.2214599862570044,0.5383458646616542,0,0.05
1757391635.5672476,0.364,-0.421,9.888,0.20211707003615503,3.2214599862570044,0.5383458646616542,0,0.05
1757391635.5941918,0.17,-0.395,9.773,0.2022957241268337,2.5194891663286025,0.5480701754385965,0,0.05
1757391635.6199536,0.17,-0.395,9.773,0.2022957241268337,2.5194891663286025,0.5480701754385965,0,0.05
1757391635.6464443,0.354,-0.432,9.828,0.20306858447332515,3.2525662224746714,0.5572932330827068,0,0.05
1757391635.6735077,0.354,-0.432,9.828,0.20306858447332515,3.2525662224746714,0.5572932330827068,0,0.05
1757391635.7003675,0.352,-0.369,9.817,0.20382985551680108,2.973682533068819,0.5573934837092732,0,0.05
1757391635.7272177,0.352,-0.369,9.817,0.20382985551680108,2.973682533068819,0.5573934837092732,0,0.05
1757391635.7528517,0.421,-0.418,9.672,0.2049139148520666,3.5100419281515576,0.5608521303258145,0,0.05
1757391635.778501,0.421,-0.418,9.672,0.2049139148520666,3.5100419281515576,0.5608521303258145,0,0.05
1757391635.8046763,0.421,-0.418,9.672,0.2049139148520666,3.5100419281515576,0.5608521303258145,0,0.05
1757391635.8315945,0.258,-0.329,9.77,0.20531956190290296,2.450417544017298,0.5690225563909773,0,0.05
1757391635.8587723,0.258,-0.329,9.77,0.20531956190290296,2.450417544017298,0.5690225563909773,0,0.05
1757391635.8854392,0.31,-0.27,9.814,0.2059037942826698,2.398645734358489,0.5716290726817043,0,0.05
1757391635.9123979,0.31,-0.27,9.814,0.2059037942826698,2.398645734358489,0.5716290726817043,0,0.05
1757391635.9392834,0.345,-0.368,9.703,0.20662510738049236,2.9759538019398537,0.5733834586466164,0,0.05
1757391635.9663293,0.345,-0.368,9.703,0.20662510738049236,2.9759538019398537,0.5733834586466164,0,0.05
1757391635.9926856,0.197,-0.265,9.753,0.20685975321458738,1.9390969530274103,0.5808020050125312,0,0.05
1757391636.0195434,0.197,-0.265,9.753,0.20685975321458738,1.9390969530274103,0.5808020050125312,0,0.05
1757391636.0463946,0.323,-0.253,9.902,0.20748922863609087,2.372697840032268,0.5871177944862155,0,0.05
1757391636.0737152,0.323,-0.253,9.902,0.20748922863609087,2.372697840032268,0.5871177944862155,0,0.05
1757391636.1002529,0.342,-0.312,9.824,0.2081926751833503,2.697940209477662,0.5880701754385964,0,0.05
1757391636.127411,0.342,-0.312,9.824,0.2081926751833503,2.697940209477662,0.5880701754385964,0,0.05
1757391636.1544878,0.235,-0.298,9.692,0.20852398543093312,2.24239636685616,0.5934335839598996,0,0.05
1757391636.1814709,0.235,-0.298,9.692,0.20852398543093312,2.24239636685616,0.5934335839598996,0,0.05
1757391636.2087374,0.214,-0.254,9.828,0.20879832973469878,1.9355465215088548,0.5944862155388471,0,0.05
1757391636.2356303,0.214,-0.254,9.828,0.20879832973469878,1.9355465215088548,0.5944862155388471,0,0.05
1757391636.2616994,0.471,-0.364,9.662,0.21012221443721749,3.5254558553832944,0.6073684210526316,0,0.05
1757391636.2880998,0.471,-0.364,9.662,0.21012221443721749,3.5254558553832944,0.6073684210526316,0,0.05
1757391636.31506,0.407,-0.508,9.526,0.2111053469242312,3.9090692562855653,0.6105764411027569,0,0.05
1757391636.342343,0.407,-0.508,9.526,0.2111053469242312,3.9090692562855653,0.6105764411027569,0,0.05
1757391636.3691957,0.353,-0.432,9.658,0.21184189859421104,3.3059472343548153,0.6132832080200502,0,0.05
1757391636.3956883,0.353,-0.432,9.658,0.21184189859421104,3.3059472343548153,0.6132832080200502,0,0.05
1757391636.422507,0.533,-0.48,9.669,0.21351162146356342,4.2426220714298895,0.6223057644110275,0,0.05
1757391636.4494872,0.533,-0.48,9.669,0.21351162146356342,4.2426220714298895,0.6223057644110275,0,0.05
1757391636.4756863,0.336,-0.505,9.491,0.21417154923098447,3.6567705503632473,0.6321804511278195,0,0.05
1757391636.5022259,0.336,-0.505,9.491,0.21417154923098447,3.6567705503632473,0.6321804511278195,0,0.05
1757391636.5290494,0.352,-0.465,9.589,0.21489349106010633,3.480458827468549,0.6329824561403508,0,0.05
1757391636.555677,0.352,-0.465,9.589,0.21489349106010633,3.480458827468549,0.6329824561403508,0,0.05
1757391636.5828705,0.471,-0.545,9.701,0.21618005227124912,4.2465621413365335,0.6389473684210526,0,0.05
1757391636.6098154,0.471,-0.545,9.701,0.21618005227124912,4.2465621413365335,0.6389473684210526,0,0.05
1757391636.6366768,0.313,-0.457,9.526,0.2167457900398529,3.327849841967069,0.6468671679197994,0,0.05
1757391636.6637857,0.313,-0.457,9.526,0.2167457900398529,3.327849841967069,0.6468671679197994,0,0.05
1757391636.690581,0.432,-0.33,9.617,0.21781941488306317,3.2353216560435416,0.6528320802005012,0,0.05
1757391636.7181184,0.432,-0.33,9.617,0.21781941488306317,3.2353216560435416,0.6528320802005012,0,0.05
1757391636.7456973,0.489,-0.388,9.848,0.21918736277440812,3.6269340326927964,0.655689223057644,0,0.05
1757391636.7738576,0.489,-0.388,9.848,0.21918736277440812,3.6269340326927964,0.655689223057644,0,0.05
1757391636.801165,0.463,-0.434,9.681,0.22040649377910806,3.7504709350654584,0.6569924812030074,0,0.05
1757391636.8279724,0.463,-0.434,9.681,0.22040649377910806,3.7504709350654584,0.6569924812030074,0,0.05
1757391636.8547924,0.365,-0.389,9.727,0.22116076731644788,3.1389554799629584,0.6619047619047618,0,0.05
1757391636.8819432,0.365,-0.389,9.727,0.22116076731644788,3.1389554799629584,0.6619047619047618,0,0.05
1757391636.9088006,0.577,-0.539,9.851,0.22303454328870226,4.582639158868884,0.672531328320802,0,0.05
1757391636.9359097,0.577,-0.539,9.851,0.22303454328870226,4.582639158868884,0.672531328320802,0,0.05
1757391636.9623687,0.451,-0.499,9.761,0.22417160837180072,3.941890941972775,0.6788471177944863,0,0.05
1757391636.9895031,0.451,-0.499,9.761,0.22417160837180072,3.941890941972775,0.6788471177944863,0,0.05
1757391637.01636,0.379,-0.462,9.745,0.2249711370376209,3.508998128473696,0.6824561403508772,0,0.05
1757391637.0438838,0.379,-0.462,9.745,0.2249711370376209,3.508998128473696,0.6824561403508772,0,0.05
1757391637.071376,0.484,-0.396,9.878,0.22626898262908243,3.622453102410157,0.6877192982456142,0,0.05
1757391637.0988555,0.484,-0.396,9.878,0.22626898262908243,3.622453102410157,0.6877192982456142,0,0.05
1757391637.1260557,0.522,-0.501,9.871,0.2277693186098602,4.192158045423102,0.689624060150376,0,0.05
1757391637.1529372,0.522,-0.501,9.871,0.2277693186098602,4.192158045423102,0.689624060150376,0,0.05
1757391637.1796849,0.365,-0.477,9.764,0.2284992888391559,3.520088153721558,0.6974937343358396,0,0.05
1757391637.2068024,0.365,-0.477,9.764,0.2284992888391559,3.520088153721558,0.6974937343358396,0,0.05
1757391637.2337444,0.551,-0.473,9.747,0.23015413856804748,4.260801473814069,0.7068170426065163,0,0.05
1757391637.260773,0.551,-0.473,9.747,0.23015413856804748,4.260801473814069,0.7068170426065163,0,0.05
1757391637.2877285,0.449,-0.384,9.923,0.2312464702433315,3.407339588602366,0.7119298245614036,0,0.05
1757391637.3146212,0.449,-0.384,9.923,0.2312464702433315,3.407339588602366,0.7119298245614036,0,0.05
1757391637.3417072,0.466,-0.32,9.838,0.23241734014483514,3.288607322423199,0.7127819548872182,0,0.05
1757391637.3687613,0.466,-0.32,9.838,0.23241734014483514,3.288607322423199,0.7127819548872182,0,0.05
1757391637.3961186,0.449,-0.085,9.789,0.2334990845806467,2.6727688857046723,0.7136340852130326,0,0.05
1757391637.4232266,0.449,-0.085,9.789,0.2334990845806467,2.6727688857046723,0.7136340852130326,0,0.05
1757391637.4503071,0.511,-0.201,10.003,0.2348927946957931,3.1420724785521013,0.7167418546365913,0,0.05
1757391637.4775977,0.511,-0.201,10.003,0.2348927946957931,3.1420724785521013,0.7167418546365913,0,0.05
1757391637.5046017,0.438,-0.206,9.843,0.235911498236097,2.8152246764941853,0.7204010025062657,0,0.05
1757391637.5317035,0.438,-0.206,9.843,0.235911498236097,2.8152246764941853,0.7204010025062657,0,0.05
1757391637.5585794,0.486,-0.178,9.828,0.23715970357545987,3.01457867732747,0.7228070175438595,0,0.05
1757391637.585333,0.486,-0.178,9.828,0.23715970357545987,3.01457867732747,0.7228070175438595,0,0.05
1757391637.612298,0.595,-0.176,9.838,0.23901838318422286,3.6088753398596958,0.7282706766917292,0,0.05
1757391637.6392963,0.595,-0.176,9.838,0.23901838318422286,3.6088753398596958,0.7282706766917292,0,0.05
1757391637.6662343,0.581,-0.198,9.781,0.24077726221551735,3.5909180905905025,0.7289724310776942,0,0.05
1757391637.693293,0.581,-0.198,9.781,0.24077726221551735,3.5909180905905025,0.7289724310776942,0,0.05
1757391637.7203019,0.508,-0.221,9.671,0.24211329992381667,3.278527808127918,0.7326315789473685,0,0.05
1757391637.7471902,0.508,-0.221,9.671,0.24211329992381667,3.278527808127918,0.7326315789473685,0,0.05
1757391637.77273,0.655,-0.224,9.638,0.24431826067652004,4.108179659455523,0.7400000000000001,0,0.05
1757391637.7998784,0.655,-0.224,9.638,0.24431826067652004,4.108179659455523,0.7400000000000001,0,0.05
1757391637.8268032,0.614,-0.236,9.615,0.2462395226197452,3.9136915428529333,0.7420551378446116,0,0.05
1757391637.8528028,0.614,-0.236,9.615,0.2462395226197452,3.9136915428529333,0.7420551378446116,0,0.05
1757391637.8789716,0.582,-0.253,9.577,0.24795304495004694,3.791118025043423,0.7436591478696742,0,0.05
1757391637.9054694,0.582,-0.253,9.577,0.24795304495004694,3.791118025043423,0.7436591478696742,0,0.05
1757391637.9324389,0.528,-0.351,9.715,0.2493545116896825,3.733956974826472,0.7463659147869675,0,0.05
1757391637.9590986,0.528,-0.351,9.715,0.2493545116896825,3.733956974826472,0.7463659147869675,0,0.05
1757391637.9862275,0.532,-0.361,9.629,0.2507692814122176,3.819914624860411,0.7465664160401002,0,0.05
1757391638.0130677,0.532,-0.361,9.629,0.2507692814122176,3.819914624860411,0.7465664160401002,0,0.05
1757391638.0400743,0.536,-0.43,9.641,0.2521972888434767,4.076879597921821,0.7467669172932332,0,0.05
1757391638.0672257,0.536,-0.43,9.641,0.2521972888434767,4.076879597921821,0.7467669172932332,0,0.05
1757391638.0938275,0.566,-0.445,9.686,0.25378014599255,4.251133436207403,0.7482706766917293,0,0.05
1757391638.1202772,0.566,-0.445,9.686,0.25378014599255,4.251133436207403,0.7482706766917293,0,0.05
1757391638.1472204,0.521,-0.443,9.848,0.2551136315448471,3.9724366231178654,0.7505263157894738,0,0.05
1757391638.174382,0.521,-0.443,9.848,0.2551136315448471,3.9724366231178654,0.7505263157894738,0,0.05
1757391638.2011855,0.495,-0.402,9.744,0.25631138776886214,3.7442573058200477,0.7518295739348372,0,0.05
1757391638.2274866,0.495,-0.402,9.744,0.25631138776886214,3.7442573058200477,0.7518295739348372,0,0.05
1757391638.253747,0.572,-0.426,9.674,0.2579020889795195,4.216434558865159,0.7556892230576442,0,0.05
1757391638.279798,0.572,-0.426,9.674,0.2579020889795195,4.216434558865159,0.7556892230576442,0,0.05
1757391638.3067908,0.582,-0.435,9.815,0.25953862429318686,4.2338632302810995,0.7561904761904763,0,0.05
1757391638.3338044,0.582,-0.435,9.815,0.25953862429318686,4.2338632302810995,0.7561904761904763,0,0.05
1757391638.3609192,0.609,-0.413,9.681,0.26131877085276517,4.346576636802754,0.7575438596491227,0,0.05
1757391638.3880618,0.609,-0.413,9.681,0.26131877085276517,4.346576636802754,0.7575438596491227,0,0.05
1757391638.4149034,0.591,-0.319,9.666,0.2629842248120598,3.974540597291782,0.7584461152882206,0,0.05
1757391638.4413605,0.591,-0.319,9.666,0.2629842248120598,3.974540597291782,0.7584461152882206,0,0.05
1757391638.4672089,0.647,-0.318,9.741,0.2649664601416564,4.23270672954492,0.7612531328320802,0,0.05
1757391638.4933667,0.647,-0.318,9.741,0.2649664601416564,4.23270672954492,0.7612531328320802,0,0.05
1757391638.5203462,0.643,-0.395,9.684,0.26690981154689686,4.455824002672739,0.761453634085213,0,0.05
1757391638.5470557,0.643,-0.395,9.684,0.26690981154689686,4.455824002672739,0.761453634085213,0,0.05
1757391638.5740728,0.588,-0.521,9.607,0.2685241283385908,4.674953069265494,0.7642105263157896,0,0.05
1757391638.6010427,0.588,-0.521,9.607,0.2685241283385908,4.674953069265494,0.7642105263157896,0,0.05
1757391638.6279564,0.599,-0.628,9.775,0.2701892114796592,5.07363776027372,0.7647619047619048,0,0.05
1757391638.6553571,0.599,-0.628,9.775,0.2701892114796592,5.07363776027372,0.7647619047619048,0,0.05
1757391638.6823702,0.547,-0.428,9.732,0.2715699403468653,4.082115856536409,0.7673684210526317,0,0.05
1757391638.7095823,0.547,-0.428,9.732,0.2715699403468653,4.082115856536409,0.7673684210526317,0,0.05
1757391638.7352984,0.607,-0.422,9.626,0.2732605990625066,4.391706239670592,0.770375939849624,0,0.05
1757391638.7618012,0.607,-0.422,9.626,0.2732605990625066,4.391706239670592,0.770375939849624,0,0.05
1757391638.7888565,0.474,-0.369,9.715,0.27428642875650994,3.5382035270265626,0.7770426065162906,0,0.05
1757391638.8165088,0.474,-0.369,9.715,0.27428642875650994,3.5382035270265626,0.7770426065162906,0,0.05
1757391638.8435822,0.478,-0.352,9.807,0.2753257252782602,3.4639167241684063,0.7772431077694234,0,0.05
1757391638.8708138,0.478,-0.352,9.807,0.2753257252782602,3.4639167241684063,0.7772431077694234,0,0.05
1757391638.8977735,0.565,-0.344,9.668,0.2767712367642274,3.9140735182523225,0.7816040100250627,0,0.05
1757391638.9246619,0.565,-0.344,9.668,0.2767712367642274,3.9140735182523225,0.7816040100250627,0,0.05
1757391638.951654,0.453,-0.401,9.658,0.27769648899472965,3.5843864507795264,0.7872180451127818,0,0.05
1757391638.9788394,0.453,-0.401,9.658,0.27769648899472965,3.5843864507795264,0.7872180451127818,0,0.05
1757391639.0059795,0.481,-0.427,9.733,0.2787359727412305,3.780788889086684,0.7886215538847117,0,0.05
1757391639.0333893,0.481,-0.427,9.733,0.2787359727412305,3.780788889086684,0.7886215538847117,0,0.05
1757391639.06028,0.647,-0.46,9.582,0.2806069582173614,4.736069372787405,0.7969423558897244,0,0.05
1757391639.0878744,0.647,-0.46,9.582,0.2806069582173614,4.736069372787405,0.7969423558897244,0,0.05
1757391639.114913,0.532,-0.324,9.567,0.2818649055842178,3.7252048855334863,0.8027067669172931,0,0.05
1757391639.1422215,0.532,-0.324,9.567,0.2818649055842178,3.7252048855334863,0.8027067669172931,0,0.05
1757391639.1693976,0.469,-0.189,9.708,0.2828386951956892,2.981608819705781,0.8058646616541354,0,0.05
1757391639.1968963,0.469,-0.189,9.708,0.2828386951956892,2.981608819705781,0.8058646616541354,0,0.05
1757391639.2239048,0.618,-0.228,9.686,0.2845215940838235,3.8905302974806637,0.8133333333333332,0,0.05
1757391639.250095,0.618,-0.228,9.686,0.2845215940838235,3.8905302974806637,0.8133333333333332,0,0.05
1757391639.2780178,0.517,-0.362,9.699,0.28569347209903134,3.7231192408457994,0.8183959899749372,0,0.05
1757391639.3055894,0.517,-0.362,9.699,0.28569347209903134,3.7231192408457994,0.8183959899749372,0,0.05
1757391639.3328078,0.437,-0.307,9.865,0.2865278040609672,3.0987766327720605,0.8224060150375939,0,0.05
1757391639.3604953,0.437,-0.307,9.865,0.2865278040609672,3.0987766327720605,0.8224060150375939,0,0.05
1757391639.3875384,0.653,-0.34,9.754,0.28838204694467373,4.3163876744291985,0.8332330827067668,0,0.05
1757391639.4145565,0.653,-0.34,9.754,0.28838204694467373,4.3163876744291985,0.8332330827067668,0,0.05
1757391639.4417388,0.549,-0.539,9.72,0.2896855320860881,4.525682544091605,0.8384461152882204,0,0.05
1757391639.469352,0.549,-0.539,9.72,0.2896855320860881,4.525682544091605,0.8384461152882204,0,0.05
1757391639.4964027,0.545,-0.514,9.828,0.2909643792631669,4.358985402916576,0.8386466165413533,0,0.05
1757391639.521689,0.545,-0.514,9.828,0.2909643792631669,4.358985402916576,0.8386466165413533,0,0.05
1757391639.5483625,0.473,-0.36,9.863,0.2919239498568078,3.4488814203275657,0.8422556390977443,0,0.05
1757391639.5753808,0.473,-0.36,9.863,0.2919239498568078,3.4488814203275657,0.8422556390977443,0,0.05
1757391639.6024747,0.629,-0.462,9.709,0.29361317238843354,4.595727861493909,0.8500751879699249,0,0.05
1757391639.6296897,0.629,-0.462,9.709,0.29361317238843354,4.595727861493909,0.8500751879699249,0,0.05
1757391639.6567845,0.371,-0.347,9.735,0.2941985681474334,2.9870665064980324,0.8630075187969924,0,0.05
1757391639.6840413,0.371,-0.347,9.735,0.2941985681474334,2.9870665064980324,0.8630075187969924,0,0.05
1757391639.7110155,0.557,-0.206,9.658,0.29551382370373136,3.51870175335063,0.8723308270676691,0,0.05
1757391639.7383814,0.557,-0.206,9.658,0.29551382370373136,3.51870175335063,0.8723308270676691,0,0.05
1757391639.7654767,0.617,-0.183,9.633,0.29711974437926536,3.822167287910484,0.8753383458646616,0,0.05
1757391639.7927182,0.617,-0.183,9.633,0.29711974437926536,3.822167287910484,0.8753383458646616,0,0.05
1757391639.8197107,0.4,-0.19,9.627,0.29779211289085544,2.6336886349581783,0.8862155388471176,0,0.05
1757391639.8471663,0.4,-0.19,9.627,0.29779211289085544,2.6336886349581783,0.8862155388471176,0,0.05
1757391639.873236,0.442,-0.281,9.708,0.29861103881136075,3.088194990115358,0.8883208020050125,0,0.05
1757391639.9003124,0.442,-0.281,9.708,0.29861103881136075,3.088194990115358,0.8883208020050125,0,0.05
1757391639.9272811,0.422,-0.158,9.596,0.2993555787019845,2.688517342241317,0.8893233082706766,0,0.05
1757391639.9532206,0.422,-0.158,9.596,0.2993555787019845,2.688517342241317,0.8893233082706766,0,0.05
1757391639.979648,0.474,-0.24,9.552,0.30029227845550743,3.183596575860626,0.8919298245614035,0,0.05
1757391640.0067754,0.474,-0.24,9.552,0.30029227845550743,3.183596575860626,0.8919298245614035,0,0.05
1757391640.0338273,0.503,-0.356,9.654,0.3013436161593605,3.6523514435073814,0.8933834586466165,0,0.05
1757391640.0613346,0.503,-0.356,9.654,0.3013436161593605,3.6523514435073814,0.8933834586466165,0,0.05
1757391640.0884936,0.57,-0.199,9.404,0.302688329804768,3.673362294396467,0.8967418546365914,0,0.05
1757391640.1159651,0.57,-0.199,9.404,0.302688329804768,3.673362294396467,0.8967418546365914,0,0.05
1757391640.142389,0.421,-0.172,9.372,0.3034193920961546,2.7781221447704474,0.9042105263157894,0,0.05
1757391640.1695406,0.421,-0.172,9.372,0.3034193920961546,2.7781221447704474,0.9042105263157894,0,0.05
1757391640.1969187,0.535,-0.302,9.423,0.3045962737789154,3.7302407164136793,0.9099248120300752,0,0.05
1757391640.2242455,0.535,-0.302,9.423,0.3045962737789154,3.7302407164136793,0.9099248120300752,0,0.05
1757391640.2506704,0.402,-0.353,9.589,0.30525874270854225,3.193331339685179,0.916591478696742,0,0.05
1757391640.2782006,0.402,-0.353,9.589,0.30525874270854225,3.193331339685179,0.916591478696742,0,0.05
1757391640.3056133,0.369,-0.323,9.53,0.30581579831656835,2.945746367368819,0.9182456140350875,0,0.05
1757391640.333364,0.369,-0.323,9.53,0.30581579831656835,2.945746367368819,0.9182456140350875,0,0.05
1757391640.360918,0.445,-0.192,9.531,0.30662414288506373,2.910995915995892,0.9220551378446115,0,0.05
1757391640.3876503,0.445,-0.192,9.531,0.30662414288506373,2.910995915995892,0.9220551378446115,0,0.05
1757391640.4148939,0.373,-0.339,9.71,0.3071907998296824,2.9714839286746515,0.9256641604010023,0,0.05
1757391640.4420748,0.373,-0.339,9.71,0.3071907998296824,2.9714839286746515,0.9256641604010023,0,0.05
1757391640.4689796,0.4,-0.242,9.664,0.3078411725224552,2.769597008587294,0.9270175438596491,0,0.05
1757391640.4961016,0.4,-0.242,9.664,0.3078411725224552,2.769597008587294,0.9270175438596491,0,0.05
1757391640.5230832,0.218,-0.064,9.611,0.308034084964635,1.354198023851521,0.9361403508771928,0,0.05
1757391640.5503905,0.218,-0.064,9.611,0.308034084964635,1.354198023851521,0.9361403508771928,0,0.05
1757391640.5773106,0.417,-0.118,9.693,0.30873891882948606,2.559989078176696,0.9461152882205512,0,0.05
1757391640.6044986,0.417,-0.118,9.693,0.30873891882948606,2.559989078176696,0.9461152882205512,0,0.05
1757391640.631531,0.352,-0.127,9.66,0.3092401655671527,2.218419141870044,0.9493734335839598,0,0.05
1757391640.6585884,0.352,-0.127,9.66,0.3092401655671527,2.218419141870044,0.9493734335839598,0,0.05
1757391640.6856663,0.275,0.021,9.595,0.30954570341065957,1.6464683122045005,0.9532330827067669,0,0.05
1757391640.7126236,0.275,0.021,9.595,0.30954570341065957,1.6464683122045005,0.9532330827067669,0,0.05
1757391640.7393634,0.365,-0.025,9.749,0.3100832226999713,2.1491562956288535,0.9577443609022556,0,0.05
1757391640.7668104,0.365,-0.025,9.749,0.3100832226999713,2.1491562956288535,0.9577443609022556,0,0.05
1757391640.7937012,0.382,0.043,9.643,0.3106709110940385,2.282853872937189,0.9585964912280701,0,0.05
1757391640.820669,0.382,0.043,9.643,0.3106709110940385,2.282853872937189,0.9585964912280701,0,0.05
1757391640.8474605,0.281,0.052,9.644,0.3109884523579613,1.697291165929377,0.9636591478696742,0,0.05
1757391640.8743134,0.281,0.052,9.644,0.3109884523579613,1.697291165929377,0.9636591478696742,0,0.05
1757391640.9006436,0.369,0.026,9.791,0.3115352628515751,2.1636690985473694,0.9680701754385964,0,0.05
1757391640.927525,0.369,0.026,9.791,0.3115352628515751,2.1636690985473694,0.9680701754385964,0,0.05
1757391640.9538739,0.434,-0.095,9.706,0.3122901055108855,2.6207885467762275,0.971328320802005,0,0.05
1757391640.9809315,0.434,-0.095,9.706,0.3122901055108855,2.6207885467762275,0.971328320802005,0,0.05
1757391641.0076516,0.228,-0.135,9.662,0.3124981119942967,1.5708805229454332,0.9816541353383459,0,0.05
1757391641.0349782,0.228,-0.135,9.662,0.3124981119942967,1.5708805229454332,0.9816541353383459,0,0.05
1757391641.0622337,0.405,-0.154,9.613,0.31315352864050566,2.580770619028578,0.9905263157894736,0,0.05
1757391641.0894957,0.405,-0.154,9.613,0.31315352864050566,2.580770619028578,0.9905263157894736,0,0.05
1757391641.115985,0.444,-0.232,9.683,0.3139394408162186,2.961610379722333,0.9924812030075186,0,0.05
1757391641.1423974,0.444,-0.232,9.683,0.3139394408162186,2.961610379722333,0.9924812030075186,0,0.05
1757391641.169537,0.424,-0.282,9.54,0.31465443346630284,3.055368358679602,0.9934837092731831,0,0.05
1757391641.1965816,0.424,-0.282,9.54,0.31465443346630284,3.055368358679602,0.9934837092731831,0,0.05
1757391641.2232735,0.326,-0.238,9.534,0.3150763439231832,2.424238905953282,0.9983959899749374,0,0.05
1757391641.250836,0.326,-0.238,9.534,0.3150763439231832,2.424238905953282,0.9983959899749374,0,0.05
1757391641.2787454,0.437,-0.137,9.605,0.3158330650834393,2.7298264338553495,1.0039598997493735,0,0.05
1757391641.3061864,0.437,-0.137,9.605,0.3158330650834393,2.7298264338553495,1.0039598997493735,0,0.05
1757391641.3334825,0.301,-0.098,9.493,0.3161914412187654,1.909866253648076,1.0107769423558897,0,0.05
1757391641.3609536,0.301,-0.098,9.493,0.3161914412187654,1.909866253648076,1.0107769423558897,0,0.05
1757391641.3882952,0.317,-0.466,9.611,0.31658845525382,3.3560466750345355,1.011578947368421,0,0.05
1757391641.4153438,0.317,-0.466,9.611,0.31658845525382,3.3560466750345355,1.011578947368421,0,0.05
1757391641.4426458,0.307,-0.409,9.758,0.31696036424133534,3.0000288614064616,1.012080200501253,0,0.05
1757391641.4693854,0.307,-0.409,9.758,0.31696036424133534,3.0000288614064616,1.012080200501253,0,0.05
1757391641.4964626,0.386,-0.276,9.579,0.31754741771899203,2.835990531507475,1.0160401002506265,0,0.05
1757391641.5242047,0.386,-0.276,9.579,0.31754741771899203,2.835990531507475,1.0160401002506265,0,0.05
1757391641.5510027,0.385,-0.245,9.553,0.3181303585010396,2.7349244909653105,1.0160902255639097,0,0.05
1757391641.5780256,0.385,-0.245,9.553,0.3181303585010396,2.7349244909653105,1.0160902255639097,0,0.05
1757391641.6049597,0.345,-0.303,9.769,0.3185976891002193,2.691059711298072,1.018095238095238,0,0.05
1757391641.6313548,0.345,-0.303,9.769,0.3185976891002193,2.691059711298072,1.018095238095238,0,0.05
1757391641.658393,0.37,-0.296,9.762,0.3191343565020852,2.778860613782861,1.0193483709273181,0,0.05
1757391641.6855118,0.37,-0.296,9.762,0.3191343565020852,2.778860613782861,1.0193483709273181,0,0.05
1757391641.712381,0.243,-0.23,9.708,0.3193655585688601,1.9739270746704434,1.0257142857142858,0,0.05
1757391641.7394173,0.243,-0.23,9.708,0.3193655585688601,1.9739270746704434,1.0257142857142858,0,0.05
1757391641.7665687,0.322,-0.353,9.903,0.3197711212727003,2.7622659913399,1.0296741854636593,0,0.05
1757391641.7936864,0.322,-0.353,9.903,0.3197711212727003,2.7622659913399,1.0296741854636593,0,0.05
1757391641.8207927,0.346,-0.304,9.823,0.32023875468156565,2.684501340930273,1.0308771929824563,0,0.05
1757391641.8477867,0.346,-0.304,9.823,0.32023875468156565,2.684501340930273,1.0308771929824563,0,0.05
1757391641.8746161,0.25,-0.241,9.719,0.3204826204336204,2.0462363455509736,1.035689223057644,0,0.05
1757391641.900713,0.25,-0.241,9.719,0.3204826204336204,2.0462363455509736,1.035689223057644,0,0.05
1757391641.9277225,0.32,-0.174,9.851,0.3208817695039716,2.117584224935258,1.0391979949874686,0,0.05
1757391641.9545178,0.32,-0.174,9.851,0.3208817695039716,2.117584224935258,1.0391979949874686,0,0.05
1757391641.981032,0.279,-0.238,9.926,0.32118485720843065,2.115864253035395,1.0412531328320802,0,0.05
1757391642.0079117,0.279,-0.238,9.926,0.32118485720843065,2.115864253035395,1.0412531328320802,0,0.05
1757391642.0350523,0.368,-0.311,9.791,0.3217114739949447,2.8172478197127715,1.0457142857142854,0,0.05
1757391642.0624435,0.368,-0.311,9.791,0.3217114739949447,2.8172478197127715,1.0457142857142854,0,0.05
1757391642.0893474,0.176,-0.194,9.879,0.3218318077816424,1.5188257215187564,1.0553383458646617,0,0.05
1757391642.115979,0.176,-0.194,9.879,0.3218318077816424,1.5188257215187564,1.0553383458646617,0,0.05
1757391642.1421952,0.325,-0.249,9.995,0.32224179586143076,2.3456747608199775,1.0628070175438595,0,0.05
1757391642.1693482,0.325,-0.249,9.995,0.32224179586143076,2.3456747608199775,1.0628070175438595,0,0.05
1757391642.1964092,0.23,-0.336,9.955,0.3224469336185413,2.3422129541922536,1.0675689223057643,0,0.05
1757391642.2229908,0.23,-0.336,9.955,0.3224469336185413,2.3422129541922536,1.0675689223057643,0,0.05
1757391642.2501926,0.28,-0.232,9.847,0.3227507164980428,2.1148352874958523,1.0700751879699248,0,0.05
1757391642.2773824,0.28,-0.232,9.847,0.3227507164980428,2.1148352874958523,1.0700751879699248,0,0.05
1757391642.304583,0.242,-0.004,9.911,0.32297745277340956,1.3989220934315603,1.0719799498746867,0,0.05
1757391642.3317387,0.242,-0.004,9.911,0.32297745277340956,1.3989220934315603,1.0719799498746867,0,0.05
1757391642.3586643,0.319,-0.007,9.92,0.32337105235317526,1.84228355000823,1.0758395989974936,0,0.05
1757391642.3860788,0.319,-0.007,9.92,0.32337105235317526,1.84228355000823,1.0758395989974936,0,0.05
1757391642.4132614,0.133,0.048,9.785,0.32343942245805474,0.827886039939225,1.0851629072681703,0,0.05
1757391642.4405468,0.133,0.048,9.785,0.32343942245805474,0.827886039939225,1.0851629072681703,0,0.05
1757391642.467749,0.168,-0.198,10.045,0.3235484816839665,1.4807990222412148,1.0869172932330826,0,0.05
1757391642.4948168,0.168,-0.198,10.045,0.3235484816839665,1.4807990222412148,1.0869172932330826,0,0.05
1757391642.5217886,0.371,-0.201,9.851,0.32407980884343907,2.452664574475742,1.097092731829574,0,0.05
1757391642.5500336,0.371,-0.201,9.851,0.32407980884343907,2.452664574475742,1.097092731829574,0,0.05
1757391642.5772219,0.303,-0.35,9.688,0.3244337297507767,2.735763086055176,1.100501253132832,0,0.05
1757391642.6047394,0.303,-0.35,9.688,0.3244337297507767,2.735763086055176,1.100501253132832,0,0.05
1757391642.6312592,0.399,-0.412,9.768,0.32504653128436856,3.3603172751204626,1.10531328320802,0,0.05
1757391642.6587958,0.399,-0.412,9.768,0.32504653128436856,3.3603172751204626,1.10531328320802,0,0.05
1757391642.6859167,0.401,-0.36,9.771,0.3256643210423887,3.1567698300351825,1.1054135338345865,0,0.05
1757391642.71272,0.401,-0.36,9.771,0.3256643210423887,3.1567698300351825,1.1054135338345865,0,0.05
1757391642.7399313,0.353,-0.546,9.683,0.3261422580715354,3.8414064155980543,1.1078195488721803,0,0.05
1757391642.7671986,0.353,-0.546,9.683,0.3261422580715354,3.8414064155980543,1.1078195488721803,0,0.05
1757391642.7946298,0.316,-0.5,9.73,0.3265247502104549,3.4787269637885765,1.109674185463659,0,0.05
1757391642.8218985,0.316,-0.5,9.73,0.3265247502104549,3.4787269637885765,1.109674185463659,0,0.05
1757391642.8493545,0.386,-0.589,9.891,0.3270946384458174,4.0724401640292935,1.1131829573934837,0,0.05
1757391642.8766494,0.386,-0.589,9.891,0.3270946384458174,4.0724401640292935,1.1131829573934837,0,0.05
1757391642.9037662,0.439,-0.542,9.626,0.3278302990878055,4.144319011519206,1.1158395989974939,0,0.05
1757391642.9310567,0.439,-0.542,9.626,0.3278302990878055,4.144319011519206,1.1158395989974939,0,0.05
1757391642.9578078,0.342,-0.481,9.766,0.3282759738390856,3.4583613120256915,1.1207017543859648,0,0.05
1757391642.984932,0.342,-0.481,9.766,0.3282759738390856,3.4583613120256915,1.1207017543859648,0,0.05
1757391643.0123403,0.396,-0.47,9.852,0.32887255130217236,3.569591478547349,1.123408521303258,0,0.05
1757391643.039651,0.396,-0.47,9.852,0.32887255130217236,3.569591478547349,1.123408521303258,0,0.05
1757391643.0669296,0.366,-0.43,9.712,0.32938130639124014,3.3275347344270814,1.1249122807017544,0,0.05
1757391643.0942147,0.366,-0.43,9.712,0.32938130639124014,3.3275347344270814,1.1249122807017544,0,0.05
1757391643.1215296,0.174,-0.359,9.708,0.32949618358943095,2.3532141089778964,1.1345363408521303,0,0.05
1757391643.1488273,0.174,-0.359,9.708,0.32949618358943095,2.3532141089778964,1.1345363408521303,0,0.05
1757391643.1759708,0.367,-0.436,9.892,0.3300067537187686,3.2972866101780274,1.1442105263157893,0,0.05
1757391643.202947,0.367,-0.436,9.892,0.3300067537187686,3.2972866101780274,1.1442105263157893,0,0.05
1757391643.2291737,0.373,-0.378,9.843,0.3305333266101922,3.088224463534192,1.1445112781954887,0,0.05
1757391643.2560399,0.373,-0.378,9.843,0.3305333266101922,3.088224463534192,1.1445112781954887,0,0.05
1757391643.2832937,0.212,-0.344,9.732,0.33070325066439854,2.3775937177322213,1.1525814536340853,0,0.05
1757391643.3106618,0.212,-0.344,9.732,0.33070325066439854,2.3775937177322213,1.1525814536340853,0,0.05
1757391643.3379805,0.291,-0.404,9.901,0.3310231751705611,2.878813481253732,1.1565413533834585,0,0.05
1757391643.3656433,0.291,-0.404,9.901,0.3310231751705611,2.878813481253732,1.1565413533834585,0,0.05
1757391643.3928375,0.463,-0.373,9.8,0.33183168173036165,3.4718267410663373,1.1651629072681704,0,0.05
1757391643.4193122,0.463,-0.373,9.8,0.33183168173036165,3.4718267410663373,1.1651629072681704,0,0.05
1757391643.445681,0.275,-0.404,9.734,0.33211643666039775,2.8742280008418564,1.1745864661654135,0,0.05
1757391643.472167,0.275,-0.404,9.734,0.33211643666039775,2.8742280008418564,1.1745864661654135,0,0.05
1757391643.4991117,0.23,-0.19,9.723,0.33231547887511953,1.7574424776493494,1.176842105263158,0,0.05
1757391643.5265718,0.23,-0.19,9.723,0.33231547887511953,1.7574424776493494,1.176842105263158,0,0.05
1757391643.5541883,0.399,-0.138,9.75,0.33291377261987826,2.479450696083251,1.18531328320802,0,0.05
1757391643.5818546,0.399,-0.138,9.75,0.33291377261987826,2.479450696083251,1.18531328320802,0,0.05
1757391643.608868,0.455,-0.185,9.634,0.3336901893972911,2.9185946996761087,1.1881203007518797,0,0.05
1757391643.636099,0.455,-0.185,9.634,0.3336901893972911,2.9185946996761087,1.1881203007518797,0,0.05
1757391643.6634784,0.287,-0.12,9.745,0.3339986002964683,1.8283589659229926,1.1965413533834586,0,0.05
1757391643.691132,0.287,-0.12,9.745,0.3339986002964683,1.8283589659229926,1.1965413533834586,0,0.05
1757391643.7184541,0.408,-0.25,9.886,0.3346210169729331,2.771065708556166,1.2026065162907267,0,0.05
1757391643.7461278,0.419,-0.344,9.751,0.33527619584456037,3.1821759183399716,1.203157894736842,0,0.05
1757391643.773507,0.419,-0.344,9.751,0.33527619584456037,3.1821759183399716,1.203157894736842,0,0.05
1757391643.8008304,0.321,-0.307,9.762,0.33566014061845356,2.6051751769860667,1.2080701754385965,0,0.05
1757391643.8283353,0.321,-0.307,9.762,0.33566014061845356,2.6051751769860667,1.2080701754385965,0,0.05
1757391643.8550327,0.445,-0.335,9.903,0.33639677837339643,3.2192477480670947,1.2142857142857142,0,0.05
1757391643.882119,0.445,-0.335,9.903,0.33639677837339643,3.2192477480670947,1.2142857142857142,0,0.05
1757391643.909683,0.395,-0.362,9.902,0.33697604514267776,3.097202162894649,1.2167919799498745,0,0.05
1757391643.9372067,0.395,-0.362,9.902,0.33697604514267776,3.097202162894649,1.2167919799498745,0,0.05
1757391643.9644294,0.413,-0.362,9.836,0.337608171553948,3.195791504434638,1.2176942355889724,0,0.05
1757391643.991473,0.413,-0.362,9.836,0.337608171553948,3.195791504434638,1.2176942355889724,0,0.05
1757391644.0189035,0.428,-0.279,9.878,0.3382857335153228,2.960791647982248,1.2184461152882204,0,0.05
1757391644.0462399,0.428,-0.279,9.878,0.3382857335153228,2.960791647982248,1.2184461152882204,0,0.05
1757391644.0735571,0.549,-0.346,9.707,0.33939761342708347,3.8246636819221425,1.2245112781954886,0,0.05
1757391644.1007228,0.549,-0.346,9.707,0.33939761342708347,3.8246636819221425,1.2245112781954886,0,0.05
1757391644.128025,0.358,-0.371,9.678,0.3398693131190281,3.04935697849755,1.2340852130325815,0,0.05
1757391644.1554058,0.358,-0.371,9.678,0.3398693131190281,3.04935697849755,1.2340852130325815,0,0.05
1757391644.1827674,0.477,-0.415,9.657,0.34070511076295873,3.745910678194627,1.2400501253132832,0,0.05
1757391644.2098484,0.477,-0.415,9.657,0.34070511076295873,3.745910678194627,1.2400501253132832,0,0.05
1757391644.2367349,0.505,-0.366,9.657,0.34163948103227176,3.695233313593152,1.241453634085213,0,0.05
1757391644.2643707,0.505,-0.366,9.657,0.34163948103227176,3.695233313593152,1.241453634085213,0,0.05
1757391644.2917569,0.382,-0.407,9.712,0.34217297526251256,3.2893974712593703,1.2476190476190474,0,0.05
1757391644.3193572,0.382,-0.407,9.712,0.34217297526251256,3.2893974712593703,1.2476190476190474,0,0.05
1757391644.346728,0.461,-0.382,9.816,0.3429484618714596,3.4902912946772924,1.2515789473684211,0,0.05
1757391644.374254,0.461,-0.382,9.816,0.3429484618714596,3.4902912946772924,1.2515789473684211,0,0.05
1757391644.4016032,0.399,-0.285,9.907,0.3435282375584284,2.8334590685884544,1.25468671679198,0,0.05
1757391644.428882,0.399,-0.285,9.907,0.3435282375584284,2.8334590685884544,1.25468671679198,0,0.05
1757391644.4561124,0.45,-0.324,9.735,0.3442642880114056,3.2600425354600495,1.2572431077694235,0,0.05
1757391644.4831753,0.45,-0.324,9.735,0.3442642880114056,3.2600425354600495,1.2572431077694235,0,0.05
1757391644.5094955,0.342,-0.278,9.867,0.34468871463974565,2.55756804388574,1.26265664160401,0,0.05
1757391644.5366485,0.342,-0.278,9.867,0.34468871463974565,2.55756804388574,1.26265664160401,0,0.05
1757391644.5641294,0.517,-0.388,9.853,0.3456566685310729,3.753475786881614,1.2714285714285716,0,0.05
1757391644.591933,0.517,-0.388,9.853,0.3456566685310729,3.753475786881614,1.2714285714285716,0,0.05
1757391644.6197443,0.459,-0.447,9.815,0.34641771750301686,3.734804708074292,1.2743358395989974,0,0.05
1757391644.6470063,0.459,-0.447,9.815,0.34641771750301686,3.734804708074292,1.2743358395989974,0,0.05
1757391644.67437,0.404,-0.384,9.744,0.34700615988768846,3.273884833142468,1.2770927318295737,0,0.05
1757391644.701857,0.404,-0.384,9.744,0.34700615988768846,3.273884833142468,1.2770927318295737,0,0.05
1757391644.7293313,0.395,-0.375,9.888,0.3475677451950914,3.1528092710527784,1.2775438596491229,0,0.05
1757391644.7565045,0.395,-0.375,9.888,0.3475677451950914,3.1528092710527784,1.2775438596491229,0,0.05
1757391644.7834427,0.553,-0.459,9.91,0.3486658285522113,4.147824072982264,1.2854636591478696,0,0.05
1757391644.8107579,0.553,-0.459,9.91,0.3486658285522113,4.147824072982264,1.2854636591478696,0,0.05
1757391644.8374436,0.347,-0.333,9.857,0.3490972393187892,2.7933126340860515,1.2957894736842104,0,0.05
1757391644.864333,0.347,-0.333,9.857,0.3490972393187892,2.7933126340860515,1.2957894736842104,0,0.05
1757391644.891846,0.485,-0.412,9.975,0.3499384874517234,3.6503327889214527,1.3027067669172931,0,0.05
1757391644.9196675,0.485,-0.412,9.975,0.3499384874517234,3.6503327889214527,1.3027067669172931,0,0.05
1757391644.9467335,0.543,-0.355,9.941,0.3509901245049496,3.73381856801075,1.3056140350877194,0,0.05
1757391644.9743707,0.543,-0.355,9.941,0.3509901245049496,3.73381856801075,1.3056140350877194,0,0.05
1757391645.0024824,0.456,-0.358,9.815,0.3517298786000416,3.3803547332577515,1.3099749373433582,0,0.05
1757391645.0303657,0.456,-0.358,9.815,0.3517298786000416,3.3803547332577515,1.3099749373433582,0,0.05
1757391645.0582626,0.471,-0.295,9.864,0.3525173896419863,3.2247474475964037,1.3107268170426065,0,0.05
1757391645.0847518,0.471,-0.295,9.864,0.3525173896419863,3.2247474475964037,1.3107268170426065,0,0.05
1757391645.111885,0.461,-0.163,9.872,0.35327016927558436,2.8355898739763945,1.3112280701754384,0,0.05
1757391645.13924,0.461,-0.163,9.872,0.35327016927558436,2.8355898739763945,1.3112280701754384,0,0.05
1757391645.1669574,0.516,-0.268,9.763,0.3542110282021157,3.4082888940111866,1.313984962406015,0,0.05
1757391645.1944506,0.516,-0.268,9.763,0.3542110282021157,3.4082888940111866,1.313984962406015,0,0.05
1757391645.2215323,0.471,-0.213,9.712,0.3549930351429448,3.0467071137784183,1.3162406015037593,0,0.05
1757391645.2492127,0.471,-0.213,9.712,0.3549930351429448,3.0467071137784183,1.3162406015037593,0,0.05
1757391645.2764351,0.473,-0.268,9.842,0.3557799565742848,3.161664888500571,1.316340852130326,0,0.05
1757391645.302806,0.473,-0.268,9.842,0.3557799565742848,3.161664888500571,1.316340852130326,0,0.05
1757391645.329835,0.51,-0.476,9.834,0.3566926232766806,4.057751578774266,1.3181954887218044,0,0.05
1757391645.3571076,0.51,-0.476,9.834,0.3566926232766806,4.057751578774266,1.3181954887218044,0,0.05
1757391645.3845797,0.487,-0.414,9.699,0.35752279647597296,3.770497822168528,1.3193483709273182,0,0.05
1757391645.4118524,0.487,-0.414,9.699,0.35752279647597296,3.770497822168528,1.3193483709273182,0,0.05
1757391645.439452,0.545,-0.39,9.774,0.35855977535133526,3.922425514991057,1.3222556390977445,0,0.05
1757391645.4667497,0.545,-0.39,9.774,0.35855977535133526,3.922425514991057,1.3222556390977445,0,0.05
1757391645.493706,0.565,-0.392,9.793,0.359670925986519,4.016744254404453,1.3232581453634085,0,0.05
1757391645.521312,0.565,-0.392,9.793,0.359670925986519,4.016744254404453,1.3232581453634085,0,0.05
1757391645.5486004,0.295,-0.447,9.797,0.3599732455336091,3.1290519774199606,1.3367919799498749,0,0.05
1757391645.5759785,0.295,-0.447,9.797,0.3599732455336091,3.1290519774199606,1.3367919799498749,0,0.05
1757391645.6032517,0.482,-0.266,9.767,0.36077908406669035,3.226121945076627,1.3461654135338346,0,0.05
1757391645.6310966,0.482,-0.266,9.767,0.36077908406669035,3.226121945076627,1.3461654135338346,0,0.05
1757391645.6587875,0.579,-0.241,9.693,0.36193873791016073,3.7019760488739517,1.351027568922306,0,0.05
1757391645.6862702,0.579,-0.241,9.693,0.36193873791016073,3.7019760488739517,1.351027568922306,0,0.05
1757391645.7138672,0.368,-0.38,9.591,0.3624061395727175,3.1569043859558517,1.3616040100250626,0,0.05
1757391645.742432,0.368,-0.38,9.591,0.3624061395727175,3.1569043859558517,1.3616040100250626,0,0.05
1757391645.770117,0.448,-0.389,9.73,0.36309774166193876,3.489467259176111,1.3656140350877193,0,0.05
1757391645.7978837,0.54,-0.291,9.82,0.3641002197197909,3.5744017759933473,1.3702255639097745,0,0.05
1757391645.8255713,0.54,-0.291,9.82,0.3641002197197909,3.5744017759933473,1.3702255639097745,0,0.05
1757391645.8537724,0.54,-0.291,9.82,0.3641002197197909,3.5744017759933473,1.3702255639097745,0,0.05
1757391645.8817859,0.42,-0.478,9.721,0.36470531940184253,3.745052309546318,1.3762406015037594,0,0.05
1757391645.9096649,0.396,-0.399,9.641,0.3652423989626615,3.3370622648464185,1.3774436090225564,0,0.05
1757391645.9366686,0.396,-0.399,9.641,0.3652423989626615,3.3370622648464185,1.3774436090225564,0,0.05
1757391645.9642737,0.398,-0.343,9.823,0.36578411665899324,3.061689024672041,1.3775438596491227,0,0.05
1757391645.9916985,0.398,-0.343,9.823,0.36578411665899324,3.061689024672041,1.3775438596491227,0,0.05
1757391646.0197597,0.398,-0.343,9.823,0.36578411665899324,3.061689024672041,1.3775438596491227,0,0.05
1757391646.0472531,0.461,-0.389,9.722,0.36650964857695084,3.5503166527244696,1.3807017543859648,0,0.05
1757391646.0749419,0.338,-0.29,9.717,0.3668990767227413,2.6241952130240644,1.3868671679197995,0,0.05
1757391646.1026115,0.338,-0.29,9.717,0.3668990767227413,2.6241952130240644,1.3868671679197995,0,0.05
1757391646.1300716,0.338,-0.29,9.717,0.3668990767227413,2.6241952130240644,1.3868671679197995,0,0.05
1757391646.156571,0.279,-0.253,9.864,0.36716417989776723,2.186620028087288,1.3898245614035087,0,0.05
1757391646.1841779,0.431,-0.511,9.8,0.36779605422027034,3.9023007685989994,1.3974436090225562,0,0.05
1757391646.2118754,0.431,-0.511,9.8,0.36779605422027034,3.9023007685989994,1.3974436090225562,0,0.05
1757391646.2391202,0.18,-0.374,9.764,0.36790615311516606,2.434141716094846,1.4100250626566413,0,0.05
1757391646.2669628,0.18,-0.374,9.764,0.36790615311516606,2.434141716094846,1.4100250626566413,0,0.05
1757391646.2952476,0.345,-0.417,9.936,0.3683103311067991,3.1178279709136523,1.418295739348371,0,0.05
1757391646.3231888,0.345,-0.417,9.936,0.3683103311067991,3.1178279709136523,1.418295739348371,0,0.05
1757391646.3511813,0.499,-0.401,9.826,0.3691544426117611,3.7275166391367818,1.426015037593985,0,0.05
1757391646.3788428,0.499,-0.401,9.826,0.3691544426117611,3.7275166391367818,1.426015037593985,0,0.05
1757391646.406272,0.269,-0.371,9.688,0.3693993841359241,2.70817438404891,1.437543859649123,0,0.05
1757391646.4328673,0.269,-0.371,9.688,0.3693993841359241,2.70817438404891,1.437543859649123,0,0.05
1757391646.4592364,0.273,-0.383,9.841,0.3696514946540863,2.7362972908292895,1.4377443609022555,0,0.05
1757391646.4864979,0.273,-0.383,9.841,0.3696514946540863,2.7362972908292895,1.4377443609022555,0,0.05
1757391646.5132692,0.439,-0.301,9.856,0.3703026194884395,3.0912946098279352,1.4460651629072683,0,0.05
1757391646.5414817,0.439,-0.301,9.856,0.3703026194884395,3.0912946098279352,1.4460651629072683,0,0.05
1757391646.5684452,0.4,-0.443,9.743,0.37084232498462205,3.505616052107004,1.4480200501253133,0,0.05
1757391646.5958784,0.4,-0.443,9.743,0.37084232498462205,3.505616052107004,1.4480200501253133,0,0.05
1757391646.6233828,0.344,-0.473,9.677,0.37124098642256625,3.458662998844248,1.4508270676691732,0,0.05
1757391646.650667,0.344,-0.473,9.677,0.37124098642256625,3.458662998844248,1.4508270676691732,0,0.05
1757391646.677979,0.413,-0.425,9.851,0.37181486320479445,3.442649235344608,1.4542857142857142,0,0.05
1757391646.7040038,0.413,-0.425,9.851,0.37181486320479445,3.442649235344608,1.4542857142857142,0,0.05
1757391646.7311883,0.48,-0.508,9.723,0.3725886371053202,4.111424392654104,1.457644110275689,0,0.05
1757391646.7582679,0.48,-0.508,9.723,0.3725886371053202,4.111424392654104,1.457644110275689,0,0.05
1757391646.7842977,0.331,-0.357,9.599,0.37295602287669255,2.9034076558609168,1.4651127819548873,0,0.05
1757391646.8117747,0.331,-0.357,9.599,0.37295602287669255,2.9034076558609168,1.4651127819548873,0,0.05
1757391646.838566,0.34,-0.325,9.903,0.37334326698093806,2.7192348243978555,1.465563909774436,0,0.05
1757391646.8657808,0.34,-0.325,9.903,0.37334326698093806,2.7192348243978555,1.465563909774436,0,0.05
1757391646.8932796,0.367,-0.371,9.747,0.37379395059310416,3.064678728761049,1.4669172932330825,0,0.05
1757391646.9205353,0.367,-0.371,9.747,0.37379395059310416,3.064678728761049,1.4669172932330825,0,0.05
1757391646.9482374,0.367,-0.355,9.551,0.37424409146972515,3.0601501287295,1.4669172932330825,0,0.15000000000000002
1757391646.9753392,0.367,-0.355,9.551,0.37424409146972515,3.0601501287295,1.4669172932330825,0,0.15000000000000002
1757391647.001758,0.254,-0.373,9.81,0.37445951717108217,2.6338100154175104,1.472581453634085,0,0.15000000000000002
1757391647.0288417,0.254,-0.373,9.81,0.37445951717108217,2.6338100154175104,1.472581453634085,0,0.15000000000000002
1757391647.0556574,0.494,-0.31,9.69,0.3752732604383105,3.4443047470484895,1.484611528822055,0,0.15000000000000002
1757391647.0832553,0.494,-0.31,9.69,0.3752732604383105,3.4443047470484895,1.484611528822055,0,0.15000000000000002
1757391647.110532,0.34,-0.357,9.68,0.37565811584471326,2.915540771214928,1.4923308270676694,0,0.15000000000000002
1757391647.1378548,0.34,-0.357,9.68,0.37565811584471326,2.915540771214928,1.4923308270676694,0,0.15000000000000002
1757391647.1649914,0.438,-0.294,9.755,0.3762959340731707,3.0953769934811723,1.4972431077694235,0,0.15000000000000002
1757391647.1922433,0.438,-0.294,9.755,0.3762959340731707,3.0953769934811723,1.4972431077694235,0,0.15000000000000002
1757391647.219241,0.437,-0.259,9.944,0.3769297713102535,2.9243953860842473,1.497293233082707,0,0.15000000000000002
1757391647.2475126,0.437,-0.259,9.944,0.3769297713102535,2.9243953860842473,1.497293233082707,0,0.15000000000000002
1757391647.2752788,0.371,-0.292,9.767,0.37738594965896655,2.7674732018608252,1.5006015037593985,0,0.15000000000000002
1757391647.3026576,0.371,-0.292,9.767,0.37738594965896655,2.7674732018608252,1.5006015037593985,0,0.15000000000000002
1757391647.3300102,0.325,-0.257,9.879,0.37773564499527973,2.40163749484453,1.502907268170426,0,0.15000000000000002
1757391647.3572779,0.325,-0.257,9.879,0.37773564499527973,2.40163749484453,1.502907268170426,0,0.15000000000000002
1757391647.3845646,0.53,-0.305,9.794,0.3786640562556737,3.572657736175712,1.5131829573934836,0,0.15000000000000002
1757391647.4127834,0.53,-0.305,9.794,0.3786640562556737,3.572657736175712,1.5131829573934836,0,0.15000000000000002
1757391647.438925,0.462,-0.315,9.654,0.3793679974642036,3.3149180296843648,1.5165914786967418,0,0.15000000000000002
1757391647.4659014,0.462,-0.315,9.654,0.3793679974642036,3.3149180296843648,1.5165914786967418,0,0.15000000000000002
1757391647.4931824,0.387,-0.264,9.721,0.37986115884622895,2.7590429111623407,1.5203508771929826,0,0.15000000000000002
1757391647.5198548,0.387,-0.264,9.721,0.37986115884622895,2.7590429111623407,1.5203508771929826,0,0.15000000000000002
1757391647.547343,0.481,-0.233,9.81,0.38062173151306006,3.118470190126914,1.5250626566416041,0,0.15000000000000002
1757391647.574909,0.481,-0.233,9.81,0.38062173151306006,3.118470190126914,1.5250626566416041,0,0.15000000000000002
1757391647.6021836,0.41,-0.352,9.749,0.3811733890239454,3.1725814984498353,1.5286215538847117,0,0.15000000000000002
1757391647.629489,0.41,-0.352,9.749,0.3811733890239454,3.1725814984498353,1.5286215538847117,0,0.15000000000000002
1757391647.6569026,0.266,-0.109,9.663,0.3814053519551082,1.7040010348274501,1.5358395989974936,0,0.15000000000000002
1757391647.6841033,0.266,-0.109,9.663,0.3814053519551082,1.7040010348274501,1.5358395989974936,0,0.15000000000000002
1757391647.7108247,0.324,-0.204,9.874,0.38174924033978114,2.2205835692776676,1.5387468671679199,0,0.15000000000000002
1757391647.7378583,0.324,-0.204,9.874,0.38174924033978114,2.2205835692776676,1.5387468671679199,0,0.15000000000000002
1757391647.7646606,0.416,-0.154,9.593,0.3823154750987723,2.64752813374471,1.543358395989975,0,0.15000000000000002
1757391647.7917657,0.416,-0.154,9.593,0.3823154750987723,2.64752813374471,1.543358395989975,0,0.15000000000000002
1757391647.8196604,0.298,-0.172,9.535,0.38260571414969746,2.0666521081972866,1.5492731829573934,0,0.15000000000000002
1757391647.846654,0.298,-0.172,9.535,0.38260571414969746,2.0666521081972866,1.5492731829573934,0,0.15000000000000002
1757391647.873948,0.301,-0.099,9.668,0.38290159963102793,1.8771619581635215,1.5494235588972431,0,0.15000000000000002
1757391647.9013226,0.301,-0.099,9.668,0.38290159963102793,1.8771619581635215,1.5494235588972431,0,0.15000000000000002
1757391647.9296308,0.402,-0.115,9.546,0.38342880043105787,2.5080167508467976,1.5544862155388472,0,0.15000000000000002
1757391647.9566088,0.205,-0.149,9.528,0.3835657798865796,1.5236104271380795,1.5643609022556393,0,0.15000000000000002
1757391647.9836483,0.205,-0.149,9.528,0.3835657798865796,1.5236104271380795,1.5643609022556393,0,0.15000000000000002
1757391648.0113215,0.41,-0.262,9.591,0.38411320922353087,2.9041969927100526,1.5746365914786966,0,0.15000000000000002
1757391648.0388157,0.41,-0.262,9.591,0.38411320922353087,2.9041969927100526,1.5746365914786966,0,0.15000000000000002
1757391648.0661864,0.379,-0.286,9.694,0.38458036871374496,2.804047032203672,1.5761904761904764,0,0.15000000000000002
1757391648.0943902,0.379,-0.286,9.694,0.38458036871374496,2.804047032203672,1.5761904761904764,0,0.15000000000000002
1757391648.1216555,0.338,-0.194,9.499,0.3849515164277185,2.349370673409331,1.5782456140350878,0,0.15000000000000002
1757391648.150332,0.338,-0.194,9.499,0.3849515164277185,2.349370673409331,1.5782456140350878,0,0.15000000000000002
1757391648.1777294,0.282,-0.166,9.695,0.3852096571998163,1.933143798902604,1.5810526315789473,0,0.15000000000000002
1757391648.2056491,0.282,-0.166,9.695,0.3852096571998163,1.933143798902604,1.5810526315789473,0,0.15000000000000002
1757391648.2328398,0.358,-0.16,9.758,0.3856253233386003,2.3012062357711924,1.5848621553884712,0,0.15000000000000002
1757391648.259924,0.358,-0.16,9.758,0.3856253233386003,2.3012062357711924,1.5848621553884712,0,0.15000000000000002
1757391648.2870388,0.273,-0.272,9.604,0.3858668325990198,2.2978400212768673,1.5891228070175438,0,0.15000000000000002
1757391648.3149316,0.273,-0.272,9.604,0.3858668325990198,2.2978400212768673,1.5891228070175438,0,0.15000000000000002
1757391648.3411777,0.222,-0.269,9.573,0.3860264531091101,2.0865541314757454,1.5916791979949874,0,0.15000000000000002
1757391648.3676538,0.222,-0.269,9.573,0.3860264531091101,2.0865541314757454,1.5916791979949874,0,0.15000000000000002
1757391648.3950837,0.231,-0.216,9.695,0.3861992037796039,1.8683479469013693,1.5921303258145363,0,0.15000000000000002
1757391648.4215531,0.231,-0.216,9.695,0.3861992037796039,1.8683479469013693,1.5921303258145363,0,0.15000000000000002
1757391648.4486022,0.23,-0.318,9.621,0.3863703857699241,2.335908916751144,1.5921804511278195,0,0.15000000000000002
1757391648.4760625,0.23,-0.318,9.621,0.3863703857699241,2.335908916751144,1.5921804511278195,0,0.15000000000000002
1757391648.5033429,0.237,-0.309,9.601,0.3865520631169882,2.322679985395243,1.5925313283208018,0,0.15000000000000002
1757391648.5293815,0.237,-0.309,9.601,0.3865520631169882,2.322679985395243,1.5925313283208018,0,0.15000000000000002
1757391648.5566213,0.216,-0.165,9.813,0.38670290598856377,1.5866319089572802,1.5935839598997494,0,0.15000000000000002
1757391648.582853,0.216,-0.165,9.813,0.38670290598856377,1.5866319089572802,1.5935839598997494,0,0.15000000000000002
1757391648.6098564,0.203,-0.235,9.782,0.3868360893194946,1.8182945377297566,1.5942355889724311,0,0.15000000000000002
1757391648.6364002,0.203,-0.235,9.782,0.3868360893194946,1.8182945377297566,1.5942355889724311,0,0.15000000000000002
1757391648.6637485,-0.019,-0.256,9.811,0.38683725583247536,1.4987979877461861,1.605363408521303,0,0.15000000000000002
1757391648.6912303,-0.019,-0.256,9.811,0.38683725583247536,1.4987979877461861,1.605363408521303,0,0.15000000000000002
1757391648.7187548,0.356,-0.111,9.818,0.3872465655109158,2.1751405499682455,1.6241604010025061,0,0.15000000000000002
1757391648.747136,0.356,-0.111,9.818,0.3872465655109158,2.1751405499682455,1.6241604010025061,0,0.15000000000000002
1757391648.7746532,0.251,-0.248,9.815,0.38744987417729276,2.0589164877671773,1.6294235588972428,0,0.15000000000000002
1757391648.802019,0.251,-0.248,9.815,0.38744987417729276,2.0589164877671773,1.6294235588972428,0,0.15000000000000002
1757391648.8290625,0.167,-0.335,9.765,0.38753983988746243,2.195222624135207,1.6336340852130324,0,0.15000000000000002
1757391648.8558161,0.167,-0.335,9.765,0.38753983988746243,2.195222624135207,1.6336340852130324,0,0.15000000000000002
1757391648.8827739,0.307,-0.254,9.82,0.38784371852590316,2.3235411031472255,1.6406516290726814,0,0.15000000000000002
1757391648.9101076,0.307,-0.254,9.82,0.38784371852590316,2.3235411031472255,1.6406516290726814,0,0.15000000000000002
1757391648.936502,0.263,-0.211,9.908,0.38806658256026116,1.949082391794393,1.6428571428571428,0,0.15000000000000002
1757391648.963707,0.263,-0.211,9.908,0.38806658256026116,1.949082391794393,1.6428571428571428,0,0.15000000000000002
1757391648.9907997,0.257,-0.261,9.732,0.3882792744919563,2.155476498741404,1.6431578947368422,0,0.15000000000000002
1757391649.0182805,0.257,-0.261,9.732,0.3882792744919563,2.155476498741404,1.6431578947368422,0,0.15000000000000002
1757391649.0455682,0.201,-0.276,9.679,0.38840931695828307,2.0203124265575503,1.6459649122807019,0,0.15000000000000002
1757391649.073038,0.201,-0.276,9.679,0.38840931695828307,2.0203124265575503,1.6459649122807019,0,0.15000000000000002
1757391649.099507,0.233,-0.273,9.704,0.38858399349432804,2.118176788813414,1.6475689223057643,0,0.15000000000000002
1757391649.1262894,0.233,-0.273,9.704,0.38858399349432804,2.118176788813414,1.6475689223057643,0,0.15000000000000002
1757391649.1536028,0.265,-0.338,9.673,0.3888098281936813,2.5423654517521714,1.649172932330827,0,0.15000000000000002
1757391649.180658,0.265,-0.338,9.673,0.3888098281936813,2.5423654517521714,1.649172932330827,0,0.15000000000000002
1757391649.2070084,0.303,-0.416,9.601,0.38910487660783694,3.0683366202044726,1.651077694235589,0,0.15000000000000002
1757391649.2348633,0.303,-0.416,9.601,0.38910487660783694,3.0683366202044726,1.651077694235589,0,0.15000000000000002
1757391649.2623072,0.225,-0.357,9.738,0.38926747552293656,2.48131267249703,1.654987468671679,0,0.15000000000000002
1757391649.2894983,0.225,-0.357,9.738,0.38926747552293656,2.48131267249703,1.654987468671679,0,0.15000000000000002
1757391649.3158498,0.315,-0.384,9.673,0.38958597254008004,2.9393281258145296,1.6594987468671676,0,0.15000000000000002
1757391649.342445,0.315,-0.384,9.673,0.38958597254008004,2.9393281258145296,1.6594987468671676,0,0.15000000000000002
1757391649.3697948,0.13,-0.259,9.676,0.38964019299861763,1.7154872353225104,1.6687719298245611,0,0.15000000000000002
1757391649.398413,0.13,-0.259,9.676,0.38964019299861763,1.7154872353225104,1.6687719298245611,0,0.15000000000000002
1757391649.425375,0.079,-0.237,9.762,0.38966021416100466,1.465939814932792,1.6713283208020047,0,0.15000000000000002
1757391649.452191,0.079,-0.237,9.762,0.38966021416100466,1.465939814932792,1.6713283208020047,0,0.15000000000000002
1757391649.4787118,0.34,-0.138,9.691,0.3900308737779613,2.168403626631492,1.6844110275689221,0,0.15000000000000002
1757391649.506148,0.34,-0.138,9.691,0.3900308737779613,2.168403626631492,1.6844110275689221,0,0.15000000000000002
1757391649.5318244,0.184,-0.187,9.733,0.39013936292048257,1.5439878425839282,1.674786967418546,0,0.15000000000000002
1757391649.5589926,0.184,-0.187,9.733,0.39013936292048257,1.5439878425839282,1.674786967418546,0,0.15000000000000002
1757391649.5858867,0.252,-0.134,9.619,0.3899547698131156,1.6995639355669716,1.678045112781955,0,0.15000000000000002
1757391649.6125617,0.252,-0.134,9.619,0.3899547698131156,1.6995639355669716,1.678045112781955,0,0.15000000000000002
1757391649.6401365,0.386,-0.344,9.806,0.3900508300209089,3.0182432241903236,1.6842105263157894,0,0.15000000000000002
1757391649.6685376,0.386,-0.344,9.806,0.3900508300209089,3.0182432241903236,1.6842105263157894,0,0.15000000000000002
1757391649.696427,0.327,-0.345,9.697,0.38998734915378985,2.8063882438711123,1.6871679197994986,0,0.15000000000000002
1757391649.7250695,0.327,-0.345,9.697,0.38998734915378985,2.8063882438711123,1.6871679197994986,0,0.15000000000000002
1757391649.7532203,0.108,-0.359,9.786,0.3896183420990342,2.193879653239103,1.698045112781955,0,0.15000000000000002
1757391649.7809567,0.108,-0.359,9.786,0.3896183420990342,2.193879653239103,1.698045112781955,0,0.15000000000000002
1757391649.8086405,0.401,-0.195,9.695,0.38972303627063154,2.633331062551221,1.7116791979949872,0,0.15000000000000002
1757391649.8361444,0.401,-0.195,9.695,0.38972303627063154,2.633331062551221,1.7116791979949872,0,0.15000000000000002
1757391649.8622987,0.401,-0.195,9.695,0.38972303627063154,2.633331062551221,1.7116791979949872,0,0.15000000000000002
1757391649.88954,0.434,-0.326,9.626,0.38996283476762245,3.2274316535529226,1.7129824561403508,0,0.15000000000000002
1757391649.9174907,0.215,-0.327,9.598,0.3897618824359304,2.3348853358402755,1.7239097744360903,0,0.15000000000000002
1757391649.9449058,0.215,-0.327,9.598,0.3897618824359304,2.3348853358402755,1.7239097744360903,0,0.15000000000000002
1757391649.9719334,0.263,-0.319,9.733,0.38963655500992206,2.432338704181363,1.726065162907268,0,0.15000000000000002
1757391649.9996784,0.263,-0.319,9.733,0.38963655500992206,2.432338704181363,1.726065162907268,0,0.15000000000000002
1757391650.0263643,0.349,-0.396,9.758,0.38966942079152167,3.096296681750868,1.7302255639097741,0,0.15000000000000002
1757391650.0527768,0.349,-0.396,9.758,0.38966942079152167,3.096296681750868,1.7302255639097741,0,0.15000000000000002
1757391650.0796754,0.25,-0.385,9.599,0.38950556478694887,2.737939983709655,1.7343859649122806,0,0.15000000000000002
1757391650.107011,0.25,-0.385,9.599,0.38950556478694887,2.737939983709655,1.7343859649122806,0,0.15000000000000002
1757391650.1341465,0.223,-0.491,9.712,0.3893344384972899,3.1781390395773315,1.7356390977443608,0,0.15000000000000002
1757391650.1608424,0.223,-0.491,9.712,0.3893344384972899,3.1781390395773315,1.7356390977443608,0,0.15000000000000002
1757391650.1881278,0.451,-0.473,9.589,0.389652389958024,3.8990448059057607,1.7460651629072677,0,0.15000000000000002
1757391650.2150426,0.451,-0.473,9.589,0.389652389958024,3.8990448059057607,1.7460651629072677,0,0.15000000000000002
1757391650.2420065,0.308,-0.51,9.695,0.3896621902366202,3.516585354684786,1.752982456140351,0,0.15000000000000002
1757391650.270005,0.308,-0.51,9.695,0.3896621902366202,3.516585354684786,1.752982456140351,0,0.15000000000000002
1757391650.2980204,0.345,-0.598,9.85,0.38975912433193916,4.009285438519034,1.754285714285714,0,0.15000000000000002
1757391650.326139,0.345,-0.598,9.85,0.38975912433193916,4.009285438519034,1.754285714285714,0,0.15000000000000002
1757391650.3531063,0.332,-0.617,9.96,0.3898484481179834,4.023932648721432,1.7545864661654134,0,0.15000000000000002
1757391650.3812068,0.332,-0.617,9.96,0.3898484481179834,4.023932648721432,1.7545864661654134,0,0.15000000000000002
1757391650.408808,0.199,-0.591,10.083,0.3897240241504237,3.5390684905757546,1.7607017543859649,0,0.15000000000000002
1757391650.4362273,0.199,-0.591,10.083,0.3897240241504237,3.5390684905757546,1.7607017543859649,0,0.15000000000000002
1757391650.4628155,0.295,-0.341,9.915,0.3897315422184866,2.603789649383315,1.765012531328321,0,0.15000000000000002
1757391650.4899952,0.295,-0.341,9.915,0.3897315422184866,2.603789649383315,1.765012531328321,0,0.15000000000000002
1757391650.5165887,0.384,-0.363,9.935,0.3899511668145128,3.0445484228113617,1.7691228070175435,0,0.15000000000000002
1757391650.544371,0.384,-0.363,9.935,0.3899511668145128,3.0445484228113617,1.7691228070175435,0,0.15000000000000002
1757391650.5732517,0.322,-0.438,9.75,0.3900428598244044,3.1913019514104572,1.7717794486215541,0,0.15000000000000002
1757391650.6012723,0.322,-0.438,9.75,0.3900428598244044,3.1913019514104572,1.7717794486215541,0,0.15000000000000002
1757391650.6290822,0.262,-0.414,9.677,0.3900377930406232,2.898364715287559,1.7743358395989977,0,0.15000000000000002
1757391650.6561804,0.262,-0.414,9.677,0.3900377930406232,2.898364715287559,1.7743358395989977,0,0.15000000000000002
1757391650.6835072,0.41,-0.301,9.634,0.39036635357059146,3.0221222385621953,1.781654135338346,0,0.15000000000000002
1757391650.7109923,0.395,-0.391,9.781,0.39065271341691715,3.2522637718031935,1.782205513784461,0,0.15000000000000002
1757391650.738042,0.395,-0.391,9.781,0.39065271341691715,3.2522637718031935,1.782205513784461,0,0.15000000000000002
1757391650.7656791,0.208,-0.432,9.78,0.39058470592177574,2.8066893882380177,1.7915789473684212,0,0.15000000000000002
1757391650.793564,0.208,-0.432,9.78,0.39058470592177574,2.8066893882380177,1.7915789473684212,0,0.15000000000000002
1757391650.8206022,0.402,-0.504,9.786,0.39089529608323503,3.7691076749751464,1.8006015037593985,0,0.15000000000000002
1757391650.8476138,0.402,-0.504,9.786,0.39089529608323503,3.7691076749751464,1.8006015037593985,0,0.15000000000000002
1757391650.8758454,0.471,-0.557,9.8,0.39142015149963855,4.2568562455815835,1.8037092731829576,0,0.15000000000000002
1757391650.9034164,0.471,-0.557,9.8,0.39142015149963855,4.2568562455815835,1.8037092731829576,0,0.15000000000000002
1757391650.9312882,0.392,-0.566,9.71,0.3917373769504258,4.055790380245002,1.8075187969924813,0,0.15000000000000002
1757391650.9587436,0.392,-0.566,9.71,0.3917373769504258,4.055790380245002,1.8075187969924813,0,0.15000000000000002
1757391650.9864118,0.32,-0.452,9.728,0.3918952953277189,3.2582940290865006,1.8107268170426065,0,0.15000000000000002
1757391651.013932,0.32,-0.452,9.728,0.3918952953277189,3.2582940290865006,1.8107268170426065,0,0.15000000000000002
1757391651.0418353,0.505,-0.63,9.735,0.3925275468040428,4.74124734191234,1.8199498746867167,0,0.15000000000000002
1757391651.0696378,0.505,-0.63,9.735,0.3925275468040428,4.74124734191234,1.8199498746867167,0,0.15000000000000002
1757391651.0968144,0.21,-0.414,9.656,0.3924860793709759,2.7523948121088173,1.8345864661654134,0,0.15000000000000002
1757391651.1246424,0.21,-0.414,9.656,0.3924860793709759,2.7523948121088173,1.8345864661654134,0,0.15000000000000002
1757391651.1521957,0.395,-0.352,9.663,0.39279635308897665,3.134015678204185,1.8435087719298244,0,0.15000000000000002
1757391651.1798105,0.395,-0.352,9.663,0.39279635308897665,3.134015678204185,1.8435087719298244,0,0.15000000000000002
1757391651.206642,0.578,-0.354,9.694,0.39366125349086617,3.999529542785063,1.8526315789473682,0,0.15000000000000002
1757391651.2340007,0.578,-0.354,9.694,0.39366125349086617,3.999529542785063,1.8526315789473682,0,0.15000000000000002
1757391651.2616217,0.393,-0.41,9.639,0.3939531126923609,3.3719931873076603,1.8616040100250626,0,0.15000000000000002
1757391651.2885544,0.393,-0.41,9.639,0.3939531126923609,3.3719931873076603,1.8616040100250626,0,0.15000000000000002
1757391651.3151755,0.338,-0.292,9.721,0.3941266611128965,2.630791876525956,1.863959899749373,0,0.15000000000000002
1757391651.342437,0.338,-0.292,9.721,0.3941266611128965,2.630791876525956,1.863959899749373,0,0.15000000000000002
1757391651.3704157,0.397,-0.245,9.827,0.3944250087152183,2.7179353275931564,1.8666666666666665,0,0.15000000000000002
1757391651.398224,0.397,-0.245,9.827,0.3944250087152183,2.7179353275931564,1.8666666666666665,0,0.15000000000000002
1757391651.4257905,0.502,-0.426,9.8,0.3950138921607695,3.843518380018392,1.8712781954887214,0,0.15000000000000002
1757391651.4533553,0.502,-0.426,9.8,0.3950138921607695,3.843518380018392,1.8712781954887214,0,0.15000000000000002
1757391651.4816244,0.274,-0.354,9.785,0.39502077793452844,2.6193846688261355,1.8826065162907268,0,0.15000000000000002
1757391651.5092676,0.274,-0.354,9.785,0.39502077793452844,2.6193846688261355,1.8826065162907268,0,0.15000000000000002
1757391651.5363739,0.292,-0.334,9.938,0.3950633050537597,2.5560539151812396,1.8830075187969924,0,0.15000000000000002
1757391651.5634708,0.292,-0.334,9.938,0.3950633050537597,2.5560539151812396,1.8830075187969924,0,0.15000000000000002
1757391651.5909607,0.503,-0.475,9.86,0.39561891701484647,4.0136204088403264,1.8935338345864658,0,0.15000000000000002
1757391651.618404,0.503,-0.475,9.86,0.39561891701484647,4.0136204088403264,1.8935338345864658,0,0.15000000000000002
1757391651.6447144,0.324,-0.428,9.727,0.39570464364219937,3.1587863036795585,1.9022556390977443,0,0.15000000000000002
1757391651.6721683,0.324,-0.428,9.727,0.39570464364219937,3.1587863036795585,1.9022556390977443,0,0.15000000000000002
1757391651.699715,0.327,-0.352,9.909,0.3957876292912652,2.7758868996645516,1.902005012531328,0,0.15000000000000002
1757391651.727024,0.327,-0.352,9.909,0.3957876292912652,2.7758868996645516,1.902005012531328,0,0.15000000000000002
1757391651.7544982,0.342,-0.491,10.025,0.39591642741871674,3.4157974575339725,1.9025062656641603,0,0.15000000000000002
1757391651.7820163,0.342,-0.491,10.025,0.39591642741871674,3.4157974575339725,1.9025062656641603,0,0.15000000000000002
1757391651.8092988,0.292,-0.495,9.843,0.3959537536127168,3.3415611481887466,1.9046115288220553,0,0.15000000000000002
1757391651.836183,0.292,-0.495,9.843,0.3959537536127168,3.3415611481887466,1.9046115288220553,0,0.15000000000000002
1757391651.8634794,0.314,-0.319,9.888,0.39601927036446094,2.5919107538467947,1.9053634085213034,0,0.15000000000000002
1757391651.8899422,0.314,-0.319,9.888,0.39601927036446094,2.5919107538467947,1.9053634085213034,0,0.15000000000000002
1757391651.9167726,0.36,-0.326,9.893,0.39619477848654194,2.8105283636897327,1.9076190476190475,0,0.15000000000000002
1757391651.9443653,0.36,-0.326,9.893,0.39619477848654194,2.8105283636897327,1.9076190476190475,0,0.15000000000000002
1757391651.9715009,0.303,-0.462,9.754,0.3962492933747643,3.2419478631036696,1.9102756892230575,0,0.15000000000000002
1757391651.999358,0.303,-0.462,9.754,0.3962492933747643,3.2419478631036696,1.9102756892230575,0,0.15000000000000002
1757391652.0267737,0.389,-0.472,9.766,0.3964845299630239,3.583734234282053,1.914235588972431,0,0.15000000000000002
1757391652.0537086,0.389,-0.472,9.766,0.3964845299630239,3.583734234282053,1.914235588972431,0,0.15000000000000002
1757391652.0804741,0.474,-0.383,9.871,0.3969383232946902,3.532735525341414,1.9184962406015038,0,0.15000000000000002
1757391652.1078694,0.474,-0.383,9.871,0.3969383232946902,3.532735525341414,1.9184962406015038,0,0.15000000000000002
1757391652.1348155,0.532,-0.498,9.746,0.3975750903917397,4.276097077680457,1.9213032581453633,0,0.15000000000000002
1757391652.1619775,0.532,-0.498,9.746,0.3975750903917397,4.276097077680457,1.9213032581453633,0,0.15000000000000002
1757391652.1890097,0.478,-0.432,9.657,0.39803601909877456,3.8169618181677176,1.9233583959899745,0,0.15000000000000002
1757391652.2167006,0.478,-0.432,9.657,0.39803601909877456,3.8169618181677176,1.9233583959899745,0,0.15000000000000002
1757391652.244365,0.487,-0.425,9.821,0.39849980238389077,3.7654954555616515,1.9237593984962404,0,0.15000000000000002
1757391652.2719488,0.487,-0.425,9.821,0.39849980238389077,3.7654954555616515,1.9237593984962404,0,0.15000000000000002
1757391652.2990491,0.568,-0.485,9.668,0.3992288222310609,4.417561058968893,1.9274686716791978,0,0.15000000000000002
1757391652.3264499,0.568,-0.485,9.668,0.3992288222310609,4.417561058968893,1.9274686716791978,0,0.15000000000000002
1757391652.3537147,0.503,-0.443,9.515,0.3997255965034013,4.029442204152851,1.9302255639097743,0,0.15000000000000002
1757391652.3812513,0.503,-0.443,9.515,0.3997255965034013,4.029442204152851,1.9302255639097743,0,0.15000000000000002
1757391652.408882,0.661,-0.379,9.557,0.40077628734744275,4.558350368410119,1.9377443609022558,0,0.15000000000000002
1757391652.436421,0.661,-0.379,9.557,0.40077628734744275,4.558350368410119,1.9377443609022558,0,0.15000000000000002
1757391652.4625487,0.401,-0.483,9.78,0.40097996521023344,3.6727053536877494,1.9507268170426064,0,0.15000000000000002
1757391652.490453,0.401,-0.483,9.78,0.40097996521023344,3.6727053536877494,1.9507268170426064,0,0.15000000000000002
1757391652.5181873,0.309,-0.401,9.667,0.40098188861842626,2.997736324888087,1.9552882205513784,0,0.15000000000000002
1757391652.5459645,0.309,-0.401,9.667,0.40098188861842626,2.997736324888087,1.9552882205513784,0,0.15000000000000002
1757391652.5728028,0.524,-0.235,9.653,0.40154363710560775,3.4046675895065186,1.965513784461153,0,0.15000000000000002
1757391652.599971,0.524,-0.235,9.653,0.40154363710560775,3.4046675895065186,1.965513784461153,0,0.15000000000000002
1757391652.6265147,0.579,-0.342,9.661,0.4022717800194291,3.9816980007371687,1.9679197994987467,0,0.15000000000000002
1757391652.653933,0.401,-0.306,9.592,0.4024431947492714,3.0102581305917004,1.9765413533834586,0,0.15000000000000002
1757391652.6803515,0.401,-0.306,9.592,0.4024431947492714,3.0102581305917004,1.9765413533834586,0,0.15000000000000002
1757391652.708341,0.36,-0.252,9.715,0.402529654187117,2.5898793678679577,1.9779448621553883,0,0.15000000000000002
1757391652.7359686,0.36,-0.252,9.715,0.402529654187117,2.5898793678679577,1.9779448621553883,0,0.15000000000000002
1757391652.7640016,0.512,-0.261,9.885,0.4030011445393177,3.3272746639962993,1.9849624060150375,0,0.15000000000000002
1757391652.7918718,0.512,-0.261,9.885,0.4030011445393177,3.3272746639962993,1.9849624060150375,0,0.15000000000000002
1757391652.819004,0.369,-0.327,9.735,0.403056429051814,2.8993410666867314,1.9918796992481203,0,0.15000000000000002
1757391652.846533,0.369,-0.327,9.735,0.403056429051814,2.8993410666867314,1.9918796992481203,0,0.15000000000000002
1757391652.8728027,0.307,-0.442,9.749,0.4029709729000341,3.159592289332353,1.9941353383458646,0,0.15000000000000002
1757391652.8986208,0.307,-0.442,9.749,0.4029709729000341,3.159592289332353,1.9941353383458646,0,0.15000000000000002
1757391652.9242752,0.436,-0.33,9.825,0.40314507934489285,3.185480607901939,2.000050125313283,0,0.15000000000000002
1757391652.95028,0.436,-0.33,9.825,0.40314507934489285,3.185480607901939,2.000050125313283,0,0.15000000000000002
1757391652.9776847,0.436,-0.33,9.825,0.40314507934489285,3.185480607901939,2.000050125313283,0,0.15000000000000002
1757391653.00572,0.473,-0.368,9.738,0.40339801065449,3.5216421918400904,2.001604010025063,0,0.15000000000000002
1757391653.0332046,0.473,-0.368,9.738,0.40339801065449,3.5216421918400904,2.001604010025063,0,0.15000000000000002
1757391653.0603247,0.138,-0.328,9.79,0.4030303493534947,2.0816785268568503,2.016591478696742,0,0.15000000000000002
1757391653.0870423,0.138,-0.328,9.79,0.4030303493534947,2.0816785268568503,2.016591478696742,0,0.15000000000000002
1757391653.1136615,0.339,-0.324,9.917,0.4028729855674118,2.7072514824967673,2.0116791979949875,0,0.15000000000000002
1757391653.1413493,0.588,-0.26,9.646,0.40239894694196204,3.8131977310646827,2.0111779448621556,0,0.15000000000000002
1757391653.1686227,0.588,-0.26,9.646,0.40239894694196204,3.8131977310646827,2.0111779448621556,0,0.15000000000000002
1757391653.1954937,0.588,-0.26,9.646,0.40239894694196204,3.8131977310646827,2.0111779448621556,0,0.15000000000000002
1757391653.2220235,0.389,-0.491,9.768,0.40224829707532633,3.6693427558667553,2.010175438596491,0,0.15000000000000002
1757391653.2494981,0.293,-0.475,9.87,0.40113517048496256,3.23634013358883,2.0022556390977444,0,0.15000000000000002
1757391653.2772043,0.293,-0.475,9.87,0.40113517048496256,3.23634013358883,2.0022556390977444,0,0.15000000000000002
1757391653.3053503,0.634,-0.457,9.688,0.40185812795064874,4.612117249565946,1.9994486215538843,0,0.15000000000000002
1757391653.3334146,0.634,-0.457,9.688,0.40185812795064874,4.612117249565946,1.9994486215538843,0,0.15000000000000002
1757391653.3612373,0.543,-0.547,9.693,0.40073791310531126,4.546382977400687,1.9943358395989974,0,0.15000000000000002
1757391653.3886335,0.543,-0.547,9.693,0.40073791310531126,4.546382977400687,1.9943358395989974,0,0.15000000000000002
1757391653.4162312,0.504,-0.463,9.704,0.40034644372093525,4.034175876007594,1.9680701754385965,0,0.15000000000000002
1757391653.4438102,0.504,-0.463,9.704,0.40034644372093525,4.034175876007594,1.9680701754385965,0,0.15000000000000002
1757391653.4709744,0.561,-0.427,9.652,0.40131914357528475,4.177676071300643,1.9633082706766916,0,0.15000000000000002
1757391653.4981,0.561,-0.427,9.652,0.40131914357528475,4.177676071300643,1.9633082706766916,0,0.15000000000000002
1757391653.5255926,0.495,-0.438,9.632,0.4019509360606093,3.9255587236437766,1.9524812030075187,0,0.15000000000000002
1757391653.5526986,0.495,-0.438,9.632,0.4019509360606093,3.9255587236437766,1.9524812030075187,0,0.15000000000000002
1757391653.579639,0.328,-0.346,9.716,0.4015477462270209,2.809225741710482,1.9573934837092728,0,0.15000000000000002
1757391653.6063993,0.328,-0.346,9.716,0.4015477462270209,2.809225741710482,1.9573934837092728,0,0.15000000000000002
1757391653.6327412,0.564,-0.383,9.711,0.4019938090319302,4.015806333966425,1.9628571428571426,0,0.15000000000000002
1757391653.6600213,0.564,-0.383,9.711,0.4019938090319302,4.015806333966425,1.9628571428571426,0,0.15000000000000002
1757391653.68666,0.468,-0.46,9.787,0.4017511916597137,3.8359470353351264,1.966115288220551,0,0.15000000000000002
1757391653.71395,0.468,-0.46,9.787,0.4017511916597137,3.8359470353351264,1.966115288220551,0,0.15000000000000002
1757391653.7407932,0.61,-0.44,9.755,0.40208678167778655,4.408898188584703,1.9671177944862153,0,0.15000000000000002
1757391653.767905,0.61,-0.44,9.755,0.40208678167778655,4.408898188584703,1.9671177944862153,0,0.15000000000000002
1757391653.7952073,0.551,-0.336,9.915,0.4017729987194262,3.724119878654679,1.965112781954887,0,0.15000000000000002
1757391653.822385,0.551,-0.336,9.915,0.4017729987194262,3.724119878654679,1.965112781954887,0,0.15000000000000002
1757391653.849497,0.493,-0.267,9.876,0.4016319739512779,3.2491824192199465,1.9669172932330825,0,0.15000000000000002
1757391653.8765664,0.493,-0.267,9.876,0.4016319739512779,3.2491824192199465,1.9669172932330825,0,0.15000000000000002
1757391653.9040415,0.508,-0.35,10.003,0.4014625760889799,3.529039570995447,1.9643107769423558,0,0.15000000000000002
1757391653.931145,0.508,-0.35,10.003,0.4014625760889799,3.529039570995447,1.9643107769423558,0,0.15000000000000002
1757391653.9585745,0.497,-0.122,9.913,0.40147797262116386,2.955249166085543,1.9594486215538847,0,0.15000000000000002
1757391653.9861236,0.497,-0.122,9.913,0.40147797262116386,2.955249166085543,1.9594486215538847,0,0.15000000000000002
1757391654.0141082,0.485,-0.149,9.833,0.40108929803723264,2.9537777403677445,1.9391478696741855,0,0.15000000000000002
1757391654.041861,0.485,-0.149,9.833,0.40108929803723264,2.9537777403677445,1.9391478696741855,0,0.15000000000000002
1757391654.0685878,0.457,-0.182,9.829,0.4016354379284776,2.865065522640532,1.9379949874686717,0,0.15000000000000002
1757391654.0958426,0.457,-0.182,9.829,0.4016354379284776,2.865065522640532,1.9379949874686717,0,0.15000000000000002
1757391654.1235275,0.453,-0.0,9.797,0.402219451916488,2.64739353383745,1.934235588972431,0,0.15000000000000002
1757391654.1513174,0.453,-0.0,9.797,0.402219451916488,2.64739353383745,1.934235588972431,0,0.15000000000000002
1757391654.1782136,0.495,-0.139,9.764,0.4028420875479622,3.014257235450074,1.9271679197994989,0,0.15000000000000002
1757391654.2053494,0.495,-0.139,9.764,0.4028420875479622,3.014257235450074,1.9271679197994989,0,0.15000000000000002
1757391654.2320926,0.25,-0.175,9.828,0.4030335438893393,1.7784887137908427,1.9318796992481204,0,0.15000000000000002
1757391654.259627,0.25,-0.175,9.828,0.4030335438893393,1.7784887137908427,1.9318796992481204,0,0.15000000000000002
1757391654.2868814,0.353,-0.22,9.806,0.40337295087796854,2.4288731284325724,1.9266165413533836,0,0.15000000000000002
1757391654.314177,0.353,-0.22,9.806,0.40337295087796854,2.4288731284325724,1.9266165413533836,0,0.15000000000000002
1757391654.3414965,0.528,-0.344,9.667,0.40421360071130713,3.729733014180778,1.9196992481203008,0,0.15000000000000002
1757391654.3694153,0.528,-0.344,9.667,0.40421360071130713,3.729733014180778,1.9196992481203008,0,0.15000000000000002
1757391654.397368,0.372,-0.425,9.683,0.40415168563300585,3.3382768276913994,1.908972431077694,0,0.15000000000000002
1757391654.4245832,0.372,-0.425,9.683,0.40415168563300585,3.3382768276913994,1.908972431077694,0,0.15000000000000002
1757391654.4508154,0.462,-0.344,9.7,0.4048088870071901,3.398335938954398,1.9088721804511277,0,0.15000000000000002
1757391654.4778056,0.462,-0.344,9.7,0.4048088870071901,3.398335938954398,1.9088721804511277,0,0.15000000000000002
1757391654.5055242,0.43,-0.292,9.767,0.4053350280940447,3.046251111574328,1.9018546365914786,0,0.15000000000000002
1757391654.5331056,0.43,-0.292,9.767,0.4053350280940447,3.046251111574328,1.9018546365914786,0,0.15000000000000002
1757391654.5599928,0.408,-0.382,9.722,0.40558536092911435,3.2903069156329137,1.900250626566416,0,0.15000000000000002
1757391654.5882113,0.408,-0.382,9.722,0.40558536092911435,3.2903069156329137,1.900250626566416,0,0.15000000000000002
1757391654.6156366,0.369,-0.383,9.774,0.4058303555674464,3.1145859208095756,1.8982456140350876,0,0.15000000000000002
1757391654.6431065,0.369,-0.383,9.774,0.4058303555674464,3.1145859208095756,1.8982456140350876,0,0.15000000000000002
1757391654.670127,0.302,-0.305,9.85,0.40603335454122486,2.4951160035452307,1.8856641604010023,0,0.15000000000000002
1757391654.6967316,0.302,-0.305,9.85,0.40603335454122486,2.4951160035452307,1.8856641604010023,0,0.15000000000000002
1757391654.7236338,0.45,-0.297,9.716,0.40595629382976683,3.176282721047389,1.8882706766917292,0,0.15000000000000002
1757391654.750926,0.45,-0.297,9.716,0.40595629382976683,3.176282721047389,1.8882706766917292,0,0.15000000000000002
1757391654.7783117,0.357,-0.333,9.692,0.40533728239578454,2.8836262361426797,1.8852631578947365,0,0.15000000000000002
1757391654.8057783,0.357,-0.333,9.692,0.40533728239578454,2.8836262361426797,1.8852631578947365,0,0.15000000000000002
1757391654.833253,0.357,-0.333,9.692,0.40533728239578454,2.8836262361426797,1.8852631578947365,0,0.15000000000000002
1757391654.8614888,0.399,-0.217,9.708,0.40528423976266337,2.678646368680079,1.8844110275689223,0,0.15000000000000002
1757391654.8890188,0.307,-0.262,9.572,0.40486705842782517,2.414426449911416,1.8873182957393482,0,0.15000000000000002
1757391654.9162483,0.307,-0.262,9.572,0.40486705842782517,2.414426449911416,1.8873182957393482,0,0.15000000000000002
1757391654.943667,0.266,-0.408,9.632,0.40427255966736103,2.894756685745093,1.8769924812030072,0,0.15000000000000002
1757391654.971317,0.266,-0.408,9.632,0.40427255966736103,2.894756685745093,1.8769924812030072,0,0.15000000000000002
1757391654.9988575,0.391,-0.226,9.533,0.4045264082850463,2.7123002749198375,1.8827568922305764,0,0.15000000000000002
1757391655.0264132,0.391,-0.226,9.533,0.4045264082850463,2.7123002749198375,1.8827568922305764,0,0.15000000000000002
1757391655.053726,0.316,-0.332,9.696,0.40459957365276594,2.7064449730264983,1.8786466165413531,0,0.15000000000000002
1757391655.0806875,0.316,-0.332,9.696,0.40459957365276594,2.7064449730264983,1.8786466165413531,0,0.15000000000000002
1757391655.1080377,0.313,-0.465,9.675,0.40432290931877707,3.31577760636636,1.878295739348371,0,0.15000000000000002
1757391655.1355522,0.313,-0.465,9.675,0.40432290931877707,3.31577760636636,1.878295739348371,0,0.15000000000000002
1757391655.1638722,0.256,-0.399,9.71,0.4039721927311334,2.7950912095663383,1.880100250626566,0,0.15000000000000002
1757391655.1913311,0.256,-0.399,9.71,0.4039721927311334,2.7950912095663383,1.880100250626566,0,0.15000000000000002
1757391655.218266,0.446,-0.416,9.766,0.40408762972899825,3.5735296562469916,1.8796491228070176,0,0.15000000000000002
1757391655.2457693,0.311,-0.382,9.814,0.40425931343631405,2.87341228421736,1.8779448621553883,0,0.15000000000000002
1757391655.2730632,0.311,-0.382,9.814,0.40425931343631405,2.87341228421736,1.8779448621553883,0,0.15000000000000002
1757391655.2993386,0.311,-0.382,9.814,0.40425931343631405,2.87341228421736,1.8779448621553883,0,0.15000000000000002
1757391655.326412,0.383,-0.319,9.605,0.40428499230122306,2.9706764897297386,1.8807518796992484,0,0.15000000000000002
1757391655.3539426,0.383,-0.319,9.605,0.40428499230122306,2.9706764897297386,1.8807518796992484,0,0.15000000000000002
1757391655.3815296,0.391,-0.192,9.643,0.40436582137960175,2.5864286228507747,1.8745363408521303,0,0.15000000000000002
1757391655.4091964,0.476,-0.141,9.718,0.4043300600994193,2.9244146652286793,1.871578947368421,0,0.15000000000000002
1757391655.4364142,0.476,-0.141,9.718,0.4043300600994193,2.9244146652286793,1.871578947368421,0,0.15000000000000002
1757391655.4631488,0.384,-0.236,9.742,0.4044200755402728,2.6489604208031428,1.870225563909774,0,0.15000000000000002
1757391655.490079,0.384,-0.236,9.742,0.4044200755402728,2.6489604208031428,1.870225563909774,0,0.15000000000000002
1757391655.5173867,0.467,-0.184,9.784,0.40443157332236074,2.9368278138860973,1.8687218045112781,0,0.15000000000000002
1757391655.5448103,0.467,-0.184,9.784,0.40443157332236074,2.9368278138860973,1.8687218045112781,0,0.15000000000000002
1757391655.5708535,0.406,-0.13,9.819,0.4045624024795186,2.4860118755611182,1.868721804511278,0,0.15000000000000002
1757391655.5978522,0.406,-0.13,9.819,0.4045624024795186,2.4860118755611182,1.868721804511278,0,0.15000000000000002
1757391655.625328,0.36,-0.131,9.799,0.4047047504045388,2.238850470067513,1.8693734335839596,0,0.15000000000000002
1757391655.6527123,0.36,-0.131,9.799,0.4047047504045388,2.238850470067513,1.8693734335839596,0,0.15000000000000002
1757391655.680114,0.36,-0.131,9.799,0.4047047504045388,2.238850470067513,1.8693734335839596,0,0.15000000000000002
1757391655.707353,0.468,-0.189,9.644,0.4051785470628967,2.995864899687002,1.8724310776942354,0,0.15000000000000002
1757391655.7344446,0.468,-0.224,9.692,0.4055708230383443,3.0643078921906683,1.869423558897243,0,0.15000000000000002
1757391655.7620285,0.468,-0.224,9.692,0.4055708230383443,3.0643078921906683,1.869423558897243,0,0.15000000000000002
1757391655.7897952,0.442,-0.214,9.639,0.4057667803061262,2.916540133909281,1.8577443609022557,0,0.15000000000000002
1757391655.8173199,0.442,-0.214,9.639,0.4057667803061262,2.916540133909281,1.8577443609022557,0,0.15000000000000002
1757391655.8450143,0.289,-0.279,9.84,0.4059906926273064,2.3376909109740773,1.8563408521303257,0,0.15000000000000002
1757391655.8726726,0.289,-0.279,9.84,0.4059906926273064,2.3376909109740773,1.8563408521303257,0,0.15000000000000002
1757391655.90042,0.486,-0.254,9.732,0.406467550980395,3.2250534112037927,1.8612030075187966,0,0.15000000000000002
1757391655.9278927,0.486,-0.254,9.732,0.406467550980395,3.2250534112037927,1.8612030075187966,0,0.15000000000000002
1757391655.955034,0.411,-0.281,9.721,0.406881567535321,2.9319386337348172,1.862005012531328,0,0.15000000000000002
1757391655.981841,0.411,-0.281,9.721,0.406881567535321,2.9319386337348172,1.862005012531328,0,0.15000000000000002
1757391656.0092661,0.295,-0.277,9.847,0.40710008904445105,2.353262367199808,1.8656641604010025,0,0.15000000000000002
1757391656.0364933,0.295,-0.277,9.847,0.40710008904445105,2.353262367199808,1.8656641604010025,0,0.15000000000000002
1757391656.0623088,0.295,-0.277,9.847,0.40710008904445105,2.353262367199808,1.8656641604010025,0,0.15000000000000002
1757391656.0895708,0.66,-0.143,9.64,0.4083479888526451,4.007213021576589,1.8793483709273184,0,0.15000000000000002
1757391656.1174846,0.421,-0.24,9.599,0.40868188117409854,2.8901144625280204,1.8895739348370926,0,0.15000000000000002
1757391656.1459627,0.421,-0.24,9.599,0.40868188117409854,2.8901144625280204,1.8895739348370926,0,0.15000000000000002
1757391656.173293,0.425,-0.284,9.643,0.40896626083333576,3.03429713533285,1.8882706766917292,0,0.15000000000000002
1757391656.1996117,0.425,-0.284,9.643,0.40896626083333576,3.03429713533285,1.8882706766917292,0,0.15000000000000002
1757391656.2262776,0.255,-0.06,9.798,0.4089487437320232,1.531520889007428,1.8901754385964913,0,0.15000000000000002
1757391656.2537763,0.255,-0.06,9.798,0.4089487437320232,1.531520889007428,1.8901754385964913,0,0.15000000000000002
1757391656.2805824,0.517,-0.099,9.702,0.4092814282373438,3.105604749137471,1.894736842105263,0,0.15000000000000002
1757391656.306661,0.517,-0.099,9.702,0.4092814282373438,3.105604749137471,1.894736842105263,0,0.15000000000000002
1757391656.3340986,0.308,-0.159,9.738,0.40941375770728566,2.038554849357587,1.901203007518797,0,0.15000000000000002
1757391656.3619046,0.308,-0.159,9.738,0.40941375770728566,2.038554849357587,1.901203007518797,0,0.15000000000000002
1757391656.390263,0.443,-0.149,9.656,0.4097250602538244,2.771166187014227,1.9071679197994986,0,0.15000000000000002
1757391656.4177074,0.443,-0.149,9.656,0.4097250602538244,2.771166187014227,1.9071679197994986,0,0.15000000000000002
1757391656.4443617,0.457,-0.196,9.566,0.4101037003003021,2.975656985867738,1.9063157894736842,0,0.15000000000000002
1757391656.471735,0.457,-0.196,9.566,0.4101037003003021,2.975656985867738,1.9063157894736842,0,0.15000000000000002
1757391656.498979,0.366,-0.221,9.728,0.41019595926825025,2.516542130221999,1.9035087719298245,0,0.15000000000000002
1757391656.5258405,0.366,-0.221,9.728,0.41019595926825025,2.516542130221999,1.9035087719298245,0,0.15000000000000002
1757391656.5525265,0.387,-0.256,9.742,0.4105588691040543,2.7269267606458563,1.9008521303258143,0,0.15000000000000002
1757391656.5796468,0.387,-0.256,9.742,0.4105588691040543,2.7269267606458563,1.9008521303258143,0,0.15000000000000002
1757391656.6071486,0.327,-0.238,9.883,0.4106956354771743,2.3434051837101793,1.8973433583959898,0,0.15000000000000002
1757391656.6344767,0.327,-0.238,9.883,0.4106956354771743,2.3434051837101793,1.8973433583959898,0,0.15000000000000002
1757391656.6618419,0.47,-0.255,9.718,0.41093071496299716,3.1494454220320116,1.899348370927318,0,0.15000000000000002
1757391656.6889808,0.47,-0.255,9.718,0.41093071496299716,3.1494454220320116,1.899348370927318,0,0.15000000000000002
1757391656.7154527,0.403,-0.256,9.857,0.41119294133046597,2.773023996019426,1.899598997493734,0,0.15000000000000002
1757391656.7424912,0.403,-0.256,9.857,0.41119294133046597,2.773023996019426,1.899598997493734,0,0.15000000000000002
1757391656.7685018,0.501,-0.151,9.735,0.41181627881860133,3.0767149740387545,1.9008521303258143,0,0.15000000000000002
1757391656.795217,0.501,-0.151,9.735,0.41181627881860133,3.0767149740387545,1.9008521303258143,0,0.15000000000000002
1757391656.8227487,0.315,-0.17,9.714,0.412057043987844,2.110304016375756,1.9066666666666663,0,0.15000000000000002
1757391656.8505752,0.315,-0.17,9.714,0.412057043987844,2.110304016375756,1.9066666666666663,0,0.15000000000000002
1757391656.878005,0.298,-0.175,9.827,0.41219135726019296,2.014084271992164,1.9017543859649122,0,0.15000000000000002
1757391656.9048793,0.298,-0.175,9.827,0.41219135726019296,2.014084271992164,1.9017543859649122,0,0.15000000000000002
1757391656.9318523,0.344,-0.048,9.86,0.41222792845706124,2.0174920836312324,1.9002506265664159,0,0.15000000000000002
1757391656.9583998,0.344,-0.048,9.86,0.41222792845706124,2.0174920836312324,1.9002506265664159,0,0.15000000000000002
1757391656.9861023,0.354,-0.115,9.845,0.4124183616183935,2.1651564119987703,1.8981954887218044,0,0.15000000000000002
1757391657.0135477,0.354,-0.115,9.845,0.4124183616183935,2.1651564119987703,1.8981954887218044,0,0.15000000000000002
1757391657.041243,0.299,-0.191,9.812,0.41256927297121876,2.070893353244617,1.8981954887218042,0,0.15000000000000002
1757391657.068697,0.299,-0.191,9.812,0.41256927297121876,2.070893353244617,1.8981954887218042,0,0.15000000000000002
1757391657.0965133,0.307,-0.363,9.84,0.4126593480099536,2.76605917951886,1.8930827067669171,0,0.15000000000000002
1757391657.1247118,0.307,-0.363,9.84,0.4126593480099536,2.76605917951886,1.8930827067669171,0,0.15000000000000002
1757391657.1522303,0.38,-0.38,9.734,0.41269540523247894,3.16001558056942,1.887017543859649,0,0.15000000000000002
1757391657.179585,0.38,-0.38,9.734,0.41269540523247894,3.16001558056942,1.887017543859649,0,0.15000000000000002
1757391657.2065055,0.287,-0.345,9.806,0.4128573240236874,2.620300408584851,1.882456140350877,0,0.15000000000000002
1757391657.2335103,0.287,-0.345,9.806,0.4128573240236874,2.620300408584851,1.882456140350877,0,0.15000000000000002
1757391657.2606678,0.317,-0.344,9.695,0.41278214895995685,2.762400222620988,1.8838596491228072,0,0.15000000000000002
1757391657.2883875,0.317,-0.344,9.695,0.41278214895995685,2.762400222620988,1.8838596491228072,0,0.15000000000000002
1757391657.3154087,0.325,-0.463,9.759,0.41272679220036107,3.317435883684528,1.8808020050125311,0,0.15000000000000002
1757391657.3429432,0.325,-0.463,9.759,0.41272679220036107,3.317435883684528,1.8808020050125311,0,0.15000000000000002
1757391657.3704734,0.313,-0.426,9.628,0.4124866361471605,3.1426707904145306,1.873233082706767,0,0.15000000000000002
1757391657.3980339,0.313,-0.426,9.628,0.4124866361471605,3.1426707904145306,1.873233082706767,0,0.15000000000000002
1757391657.4257417,0.381,-0.361,9.56,0.412724747864724,3.1425020317275014,1.8740350877192982,0,0.15000000000000002
1757391657.4534273,0.381,-0.361,9.56,0.412724747864724,3.1425020317275014,1.8740350877192982,0,0.15000000000000002
1757391657.4811296,0.502,-0.415,9.574,0.41319665717428067,3.8918914893611802,1.8783458646616542,0,0.15000000000000002
1757391657.5087512,0.502,-0.415,9.574,0.41319665717428067,3.8918914893611802,1.8783458646616542,0,0.15000000000000002
1757391657.534806,0.383,-0.515,9.542,0.4132803376643994,3.8479804170447562,1.8768922305764408,0,0.15000000000000002
1757391657.5609355,0.383,-0.515,9.542,0.4132803376643994,3.8479804170447562,1.8768922305764408,0,0.15000000000000002
1757391657.5889664,0.356,-0.523,9.552,0.4135461945176137,3.7893808852514406,1.8719298245614038,0,0.15000000000000002
1757391657.6170158,0.356,-0.523,9.552,0.4135461945176137,3.7893808852514406,1.8719298245614038,0,0.15000000000000002
1757391657.6453433,0.386,-0.486,9.702,0.41368118460959763,3.6602321860226406,1.8724812030075184,0,0.15000000000000002
1757391657.6731079,0.386,-0.486,9.702,0.41368118460959763,3.6602321860226406,1.8724812030075184,0,0.15000000000000002
1757391657.7011993,0.418,-0.598,9.739,0.41385567834693293,4.284374335984706,1.868721804511278,0,0.15000000000000002
1757391657.7288492,0.418,-0.598,9.739,0.41385567834693293,4.284374335984706,1.868721804511278,0,0.15000000000000002
1757391657.7556162,0.335,-0.552,9.558,0.41402780401803935,3.864802285310444,1.8718295739348367,0,0.15000000000000002
1757391657.783419,0.335,-0.552,9.558,0.41402780401803935,3.864802285310444,1.8718295739348367,0,0.15000000000000002
1757391657.8107433,0.344,-0.45,9.649,0.4142467531556524,3.3595704502411037,1.8593984962406012,0,0.15000000000000002
1757391657.8385203,0.424,-0.493,9.648,0.4141198015067621,3.8557545198763576,1.8602005012531326,0,0.15000000000000002
1757391657.865939,0.424,-0.493,9.648,0.4141198015067621,3.8557545198763576,1.8602005012531326,0,0.15000000000000002
1757391657.893808,0.424,-0.493,9.648,0.4141198015067621,3.8557545198763576,1.8602005012531326,0,0.15000000000000002
1757391657.921835,0.305,-0.424,9.52,0.4139005315290136,3.14031694487999,1.8634586466165413,0,0.15000000000000002
1757391657.9494429,0.305,-0.424,9.52,0.4139005315290136,3.14031694487999,1.8634586466165413,0,0.15000000000000002
1757391657.9773455,0.226,-0.288,9.738,0.4136783986383626,2.152946312576262,1.8583959899749372,0,0.15000000000000002
1757391658.005497,0.55,-0.304,9.689,0.41373402688200545,3.710976113686739,1.8647619047619046,0,0.15000000000000002
1757391658.0315974,0.55,-0.304,9.689,0.41373402688200545,3.710976113686739,1.8647619047619046,0,0.15000000000000002
1757391658.0589232,0.286,-0.353,9.732,0.4136400548786348,2.6727937752595516,1.8771929824561404,0,0.15000000000000002
1757391658.0863383,0.286,-0.353,9.732,0.4136400548786348,2.6727937752595516,1.8771929824561404,0,0.15000000000000002
1757391658.1139276,0.211,-0.223,9.86,0.4134000937348708,1.7833891203694225,1.8749874686716792,0,0.15000000000000002
1757391658.1413937,0.211,-0.223,9.86,0.4134000937348708,1.7833891203694225,1.8749874686716792,0,0.15000000000000002
1757391658.1676395,0.219,-0.217,9.92,0.41287399712260886,1.780111689499909,1.867468671679198,0,0.15000000000000002
1757391658.1954265,0.219,-0.217,9.92,0.41287399712260886,1.780111689499909,1.867468671679198,0,0.15000000000000002
1757391658.2233005,0.112,-0.307,9.806,0.4126152869199104,1.9087165443411167,1.8668671679197992,0,0.15000000000000002
1757391658.250614,0.112,-0.307,9.806,0.4126152869199104,1.9087165443411167,1.8668671679197992,0,0.15000000000000002
1757391658.2783272,0.13,-0.345,9.748,0.4121007947092556,2.165957018676001,1.8649122807017544,0,0.15000000000000002
