timestamp,ax,ay,az,rms,tilt_now,jerk,tilt_crosses,freq
1757395404.7566395,0.168,-0.143,9.757,0.0084,1.295317958194861,0.008421052631578947,0,0.1
1757395404.7842386,0.184,-0.155,9.759,0.012457929201917949,1.4122037797044538,0.009223057644110275,0,0.05
1757395404.8104422,0.195,-0.169,9.746,0.01581968710183612,1.5166530276976458,0.009774436090225564,0,0.05
1757395404.8385222,0.21,-0.165,9.739,0.01898716671860233,1.5707979660389255,0.010526315789473682,0,0.05
1757395404.8658135,0.227,-0.163,9.749,0.02212091770248242,1.6419639033677211,0.011378446115288219,0,0.05
1757395404.8929713,0.232,-0.164,9.739,0.024977890223155358,1.6709970656329511,0.011629072681704258,0,0.05
1757395404.9192052,0.214,-0.158,9.729,0.027173240513416873,1.5661745209703348,0.012531328320802003,0,0.05
1757395404.9444642,0.21,-0.159,9.753,0.02913134051155216,1.5470313978907857,0.012731829573934835,0,0.05
1757395404.9695103,0.208,-0.153,9.752,0.030932103064615572,1.5167097498075988,0.012832080200501252,0,0.05
1757395404.9947293,0.201,-0.149,9.758,0.03252379897859412,1.4687936062955058,0.013182957393483706,0,0.05
1757395405.0199335,0.178,-0.137,9.76,0.03371954181183368,1.3183771141464995,0.01433583959899749,0,0.05
1757395405.0452995,0.164,-0.138,9.749,0.03470226937824096,1.2594707867494126,0.015037593984962405,0,0.05
1757395405.070804,0.157,-0.141,9.749,0.03557906687927608,1.2399983219444302,0.015388471177944863,0,0.05
1757395405.0963058,0.139,-0.146,9.747,0.036251517209628624,1.1848150867704614,0.016290726817042606,0,0.05
1757395405.1219668,0.129,-0.14,9.744,0.03682085007166456,1.1192579695835225,0.016791979949874688,0,0.05
1757395405.1475048,0.129,-0.14,9.744,0.03682085007166456,1.1192579695835225,0.016791979949874688,0,0.05
1757395405.1726189,0.11,-0.128,9.733,0.03722935669602686,0.9934199448654308,0.01774436090225564,0,0.05
1757395405.1976333,0.11,-0.128,9.733,0.03722935669602686,0.9934199448654308,0.01774436090225564,0,0.05
1757395405.222486,0.096,-0.106,9.756,0.03753751456876174,0.839822738031081,0.01844611528822055,0,0.05
1757395405.2479284,0.096,-0.106,9.756,0.03753751456876174,0.839822738031081,0.01844611528822055,0,0.05
1757395405.2728105,0.071,-0.103,9.749,0.03770500629889883,0.7351837469780043,0.01969924812030075,0,0.05
1757395405.2986317,0.071,-0.103,9.749,0.03770500629889883,0.7351837469780043,0.01969924812030075,0,0.05
1757395405.3236997,0.071,-0.103,9.749,0.03770500629889883,0.7351837469780043,0.01969924812030075,0,0.05
1757395405.34887,0.081,-0.118,9.726,0.03792189341264489,0.8430920707014224,0.020200501253132833,0,0.05
1757395405.3741086,0.085,-0.104,9.719,0.03815930423894021,0.7917785037216652,0.020401002506265666,0,0.05
1757395405.3992484,0.085,-0.104,9.719,0.03815930423894021,0.7917785037216652,0.020401002506265666,0,0.05
1757395405.4244697,0.085,-0.104,9.719,0.03815930423894021,0.7917785037216652,0.020401002506265666,0,0.05
1757395405.4499316,0.088,-0.109,9.758,0.03841214000807557,0.8225017246846736,0.02055137844611529,0,0.05
1757395405.4755592,0.088,-0.109,9.758,0.03841214000807557,0.8225017246846736,0.02055137844611529,0,0.05
1757395405.5008266,0.097,-0.125,9.744,0.0387171150784766,0.9302770686659957,0.02100250626566416,0,0.05
1757395405.5263376,0.097,-0.125,9.744,0.0387171150784766,0.9302770686659957,0.02100250626566416,0,0.05
1757395405.5514982,0.103,-0.142,9.705,0.03905812975553233,1.0355348515142504,0.021303258145363407,0,0.05
1757395405.5766602,0.103,-0.142,9.705,0.03905812975553233,1.0355348515142504,0.021303258145363407,0,0.05
1757395405.6017933,0.124,-0.146,9.72,0.03954715539706996,1.1289789588884056,0.02235588972431077,0,0.05
1757395405.6270795,0.124,-0.146,9.72,0.03954715539706996,1.1289789588884056,0.02235588972431077,0,0.05
1757395405.6525474,0.129,-0.152,9.736,0.040069689292531324,1.1730664916896902,0.02260651629072681,0,0.05
1757395405.6778686,0.129,-0.152,9.736,0.040069689292531324,1.1730664916896902,0.02260651629072681,0,0.05
1757395405.7028754,0.134,-0.169,9.758,0.040625976911331005,1.2661844070772572,0.022857142857142854,0,0.05
1757395405.727954,0.134,-0.169,9.758,0.040625976911331005,1.2661844070772572,0.022857142857142854,0,0.05
1757395405.7531211,0.134,-0.169,9.758,0.040625976911331005,1.2661844070772572,0.022857142857142854,0,0.05
1757395405.7784603,0.148,-0.162,9.706,0.041294430617215196,1.2950826934978514,0.023558897243107765,0,0.05
1757395405.80377,0.175,-0.164,9.733,0.0422112840363806,1.4115661801831485,0.024912280701754375,0,0.05
1757395405.8291223,0.175,-0.164,9.733,0.0422112840363806,1.4115661801831485,0.024912280701754375,0,0.05
1757395405.854584,0.175,-0.164,9.733,0.0422112840363806,1.4115661801831485,0.024912280701754375,0,0.05
1757395405.8803475,0.196,-0.163,9.732,0.04333396473898967,1.5004716534157903,0.025964912280701743,0,0.05
1757395405.9060502,0.196,-0.163,9.732,0.04333396473898967,1.5004716534157903,0.025964912280701743,0,0.05
1757395405.9315228,0.203,-0.167,9.723,0.04450679723368106,1.548635849037835,0.026315789473684206,0,0.05
1757395405.9567957,0.203,-0.167,9.723,0.04450679723368106,1.548635849037835,0.026315789473684206,0,0.05
1757395405.9822202,0.215,-0.163,9.73,0.045786651985049096,1.5883503815730502,0.026917293233082704,0,0.05
1757395406.0077422,0.215,-0.163,9.73,0.045786651985049096,1.5883503815730502,0.026917293233082704,0,0.05
1757395406.033219,0.218,-0.162,9.737,0.04706620337354608,1.597786943535991,0.027067669172932327,0,0.05
1757395406.0581133,0.218,-0.162,9.737,0.04706620337354608,1.597786943535991,0.027067669172932327,0,0.05
1757395406.0835152,0.218,-0.17,9.736,0.04831187742160306,1.6264483414585071,0.027067669172932334,0,0.05
1757395406.1087785,0.218,-0.17,9.736,0.04831187742160306,1.6264483414585071,0.027067669172932334,0,0.05
1757395406.133969,0.207,-0.179,9.731,0.04940809650249643,1.610877899397612,0.027619047619047623,0,0.05
1757395406.1590698,0.207,-0.179,9.731,0.04940809650249643,1.610877899397612,0.027619047619047623,0,0.05
1757395406.184261,0.206,-0.179,9.747,0.05047028828924994,1.6037966644115287,0.02766917293233083,0,0.05
1757395406.2095428,0.206,-0.179,9.747,0.05047028828924994,1.6037966644115287,0.02766917293233083,0,0.05
1757395406.2349203,0.206,-0.179,9.747,0.05047028828924994,1.6037966644115287,0.02766917293233083,0,0.05
1757395406.2601333,0.19,-0.181,9.746,0.05135659646043534,1.5423323598683927,0.028471177944862164,0,0.05
1757395406.2853332,0.19,-0.181,9.746,0.05135659646043534,1.5423323598683927,0.028471177944862164,0,0.05
1757395406.3104224,0.184,-0.181,9.749,0.05217413152128169,1.5165392698179307,0.028771929824561403,0,0.05
1757395406.335493,0.184,-0.181,9.749,0.05217413152128169,1.5165392698179307,0.028771929824561403,0,0.05
1757395406.3606253,0.167,-0.17,9.744,0.05283807812553367,1.4009766699468864,0.02962406015037595,0,0.05
1757395406.3857424,0.167,-0.17,9.744,0.05283807812553367,1.4009766699468864,0.02962406015037595,0,0.05
1757395406.4106743,0.157,-0.168,9.755,0.053418021303676164,1.3503051372821533,0.03012531328320802,0,0.05
1757395406.435723,0.157,-0.168,9.755,0.053418021303676164,1.3503051372821533,0.03012531328320802,0,0.05
1757395406.4613287,0.149,-0.154,9.753,0.05393503036061072,1.258639318284758,0.030526315789473683,0,0.05
1757395406.4866529,0.149,-0.154,9.753,0.05393503036061072,1.258639318284758,0.030526315789473683,0,0.05
1757395406.511674,0.143,-0.157,9.756,0.05440689294565533,1.24698406421255,0.030827067669172935,0,0.05
1757395406.5366266,0.143,-0.157,9.756,0.05440689294565533,1.24698406421255,0.030827067669172935,0,0.05
1757395406.5616822,0.129,-0.145,9.76,0.05478788643486806,1.1391747070873153,0.031528822055137844,0,0.05
1757395406.586646,0.129,-0.145,9.76,0.05478788643486806,1.1391747070873153,0.031528822055137844,0,0.05
1757395406.6118963,0.129,-0.145,9.76,0.05478788643486806,1.1391747070873153,0.031528822055137844,0,0.05
1757395406.6371102,0.11,-0.13,9.758,0.055063259075358036,0.9998082901042571,0.0324812030075188,0,0.05
1757395406.66251,0.11,-0.13,9.758,0.055063259075358036,0.9998082901042571,0.0324812030075188,0,0.05
1757395406.68769,0.089,-0.117,9.75,0.05524278233398459,0.8637985980611728,0.033533834586466166,0,0.05
1757395406.713636,0.089,-0.117,9.75,0.05524278233398459,0.8637985980611728,0.033533834586466166,0,0.05
1757395406.7390509,0.085,-0.117,9.755,0.05540602404071239,0.8493410163897532,0.033734335839599,0,0.05
1757395406.7643642,0.085,-0.117,9.755,0.05540602404071239,0.8493410163897532,0.033734335839599,0,0.05
1757395406.7898,0.076,-0.116,9.769,0.05553618189973091,0.8133089979592628,0.034185463659147874,0,0.05
1757395406.8147898,0.076,-0.116,9.769,0.05553618189973091,0.8133089979592628,0.034185463659147874,0,0.05
1757395406.8398495,0.088,-0.13,9.75,0.05571021001575923,0.922435677761223,0.034786967418546366,0,0.05
1757395406.864956,0.088,-0.13,9.75,0.05571021001575923,0.922435677761223,0.034786967418546366,0,0.05
1757395406.8899384,0.084,-0.137,9.742,0.055868304968022794,0.9450510848724347,0.0349874686716792,0,0.05
1757395406.915092,0.084,-0.137,9.742,0.055868304968022794,0.9450510848724347,0.0349874686716792,0,0.05
1757395406.9406247,0.084,-0.137,9.742,0.055868304968022794,0.9450510848724347,0.0349874686716792,0,0.05
1757395406.9657326,0.092,-0.135,9.751,0.056057359017349366,0.9598403369520919,0.035388471177944865,0,0.05
1757395406.9911628,0.092,-0.135,9.751,0.056057359017349366,0.9598403369520919,0.035388471177944865,0,0.05
1757395407.0163312,0.092,-0.137,9.77,0.05624577761930224,0.9676861271054882,0.035388471177944865,0,0.05
1757395407.0415545,0.092,-0.137,9.77,0.05624577761930224,0.9676861271054882,0.035388471177944865,0,0.05
1757395407.0664968,0.094,-0.141,9.766,0.056441806314114364,0.9941040979223547,0.03548872180451128,0,0.05
1757395407.0914931,0.094,-0.141,9.766,0.056441806314114364,0.9941040979223547,0.03548872180451128,0,0.05
1757395407.116412,0.103,-0.156,9.781,0.05667627369543626,1.0949115207542437,0.03593984962406015,0,0.05
1757395407.1412697,0.103,-0.156,9.781,0.05667627369543626,1.0949115207542437,0.03593984962406015,0,0.05
1757395407.1662226,0.112,-0.157,9.79,0.056952260710177255,1.128533298936578,0.03639097744360902,0,0.05
1757395407.1911724,0.112,-0.157,9.79,0.056952260710177255,1.128533298936578,0.03639097744360902,0,0.05
1757395407.2161317,0.128,-0.167,9.783,0.05731073197927244,1.2321202674358431,0.03719298245614035,0,0.05
1757395407.2410624,0.128,-0.167,9.783,0.05731073197927244,1.2321202674358431,0.03719298245614035,0,0.05
1757395407.2659128,0.141,-0.175,9.798,0.05774272681472534,1.3139551489563837,0.037844611528822056,0,0.05
1757395407.2907782,0.141,-0.175,9.798,0.05774272681472534,1.3139551489563837,0.037844611528822056,0,0.05
1757395407.3158357,0.169,-0.179,9.817,0.058357732992295026,1.4364691820666569,0.03924812030075188,0,0.05
1757395407.3406885,0.169,-0.179,9.817,0.058357732992295026,1.4364691820666569,0.03924812030075188,0,0.05
1757395407.366003,0.169,-0.179,9.817,0.058357732992295026,1.4364691820666569,0.03924812030075188,0,0.05
1757395407.3910158,0.181,-0.178,9.797,0.05905529188819576,1.484318043096144,0.03984962406015038,0,0.05
1757395407.4165778,0.181,-0.178,9.797,0.05905529188819576,1.484318043096144,0.03984962406015038,0,0.05
1757395407.4414768,0.192,-0.169,9.792,0.059830489718871595,1.4963195272764096,0.04040100250626567,0,0.05
1757395407.4662964,0.192,-0.169,9.792,0.059830489718871595,1.4963195272764096,0.04040100250626567,0,0.05
1757395407.4911065,0.189,-0.17,9.779,0.06057218833755307,1.489077246543343,0.04055137844611529,0,0.05
1757395407.5162492,0.189,-0.17,9.779,0.06057218833755307,1.489077246543343,0.04055137844611529,0,0.05
1757395407.541489,0.196,-0.168,9.769,0.06135984028662396,1.513697034142483,0.040902255639097745,0,0.05
1757395407.566365,0.196,-0.168,9.769,0.06135984028662396,1.513697034142483,0.040902255639097745,0,0.05
1757395407.5912714,0.181,-0.169,9.767,0.062023644684910284,1.4523676514026251,0.04165413533834587,0,0.05
1757395407.6161895,0.181,-0.169,9.767,0.062023644684910284,1.4523676514026251,0.04165413533834587,0,0.05
1757395407.6410887,0.178,-0.167,9.752,0.06265893790992631,1.4337156208699307,0.04180451127819549,0,0.05
1757395407.6664364,0.178,-0.167,9.752,0.06265893790992631,1.4337156208699307,0.04180451127819549,0,0.05
1757395407.6913948,0.178,-0.167,9.752,0.06265893790992631,1.4337156208699307,0.04180451127819549,0,0.05
1757395407.7163343,0.169,-0.156,9.774,0.06322614174532556,1.3479869244923575,0.04225563909774436,0,0.05
1757395407.7411644,0.169,-0.156,9.774,0.06322614174532556,1.3479869244923575,0.04225563909774436,0,0.05
1757395407.7665665,0.161,-0.142,9.767,0.06373654760025836,1.2591321680026377,0.04265664160401002,0,0.05
1757395407.7930853,0.161,-0.142,9.767,0.06373654760025836,1.2591321680026377,0.04265664160401002,0,0.05
1757395407.817924,0.149,-0.138,9.786,0.0641704760773987,1.1888874383863828,0.043258145363408516,0,0.05
1757395407.8432899,0.149,-0.138,9.786,0.0641704760773987,1.1888874383863828,0.043258145363408516,0,0.05
1757395407.8698142,0.141,-0.129,9.797,0.06455658370762815,1.117510789105162,0.04365914786967418,0,0.05
1757395407.8965366,0.141,-0.129,9.797,0.06455658370762815,1.117510789105162,0.04365914786967418,0,0.05
1757395407.9231,0.346,-0.085,9.833,0.0668344409717026,2.075140936983028,0.05393483709273182,0,0.05
1757395407.9503088,0.346,-0.085,9.833,0.0668344409717026,2.075140936983028,0.05393483709273182,0,0.05
1757395407.9765778,0.066,-0.174,9.668,0.06691586134841276,1.102734972959487,0.06796992481203006,0,0.05
1757395408.0041316,0.066,-0.174,9.668,0.06691586134841276,1.102734972959487,0.06796992481203006,0,0.05
1757395408.0294983,0.648,-0.115,9.686,0.07434710821545112,3.88704708728121,0.09714285714285711,0,0.05
1757395408.0568576,0.648,-0.115,9.686,0.07434710821545112,3.88704708728121,0.09714285714285711,0,0.05
1757395408.0836513,0.348,0.196,9.714,0.07635609013038841,2.354439611416142,0.11218045112781952,0,0.05
1757395408.1109493,0.348,0.196,9.714,0.07635609013038841,2.354439611416142,0.11218045112781952,0,0.05
1757395408.1378148,0.449,0.361,9.632,0.07958803302004643,3.423001227672924,0.11724310776942354,0,0.05
1757395408.1651046,0.449,0.361,9.632,0.07958803302004643,3.423001227672924,0.11724310776942354,0,0.05
1757395408.19255,0.371,0.368,9.738,0.08172121817496358,3.0716345305724215,0.12115288220551382,0,0.05
1757395408.2197998,0.371,0.368,9.738,0.08172121817496358,3.0716345305724215,0.12115288220551382,0,0.05
1757395408.2464685,0.166,0.009,9.801,0.08214163073618638,0.9717533530591377,0.13142857142857145,0,0.05
1757395408.2734423,0.166,0.009,9.801,0.08214163073618638,0.9717533530591377,0.13142857142857145,0,0.05
1757395408.2988982,-0.025,0.069,9.813,0.08215114119718606,0.42849515061286486,0.14100250626566418,0,0.05
1757395408.3250904,-0.025,0.069,9.813,0.08215114119718606,0.42849515061286486,0.14100250626566418,0,0.05
1757395408.3512907,0.183,-0.003,9.725,0.0826591344014683,1.078179809446453,0.15142857142857144,0,0.05
1757395408.3782148,0.183,-0.003,9.725,0.0826591344014683,1.078179809446453,0.15142857142857144,0,0.05
1757395408.4049046,-0.019,-0.24,9.781,0.0826645933879796,1.410001662632077,0.16155388471177948,0,0.05
1757395408.4318676,-0.019,-0.24,9.781,0.0826645933879796,1.410001662632077,0.16155388471177948,0,0.05
1757395408.4587126,0.24,-0.149,9.784,0.08353104213404738,1.6538256291779,0.17453634085213035,0,0.05
1757395408.4857209,0.24,-0.149,9.784,0.08353104213404738,1.6538256291779,0.17453634085213035,0,0.05
1757395408.5119736,0.14,-0.148,9.671,0.08382383312638476,1.206790820322959,0.17954887218045115,0,0.05
1757395408.5390248,0.14,-0.148,9.671,0.08382383312638476,1.206790820322959,0.17954887218045115,0,0.05
1757395408.5656703,0.232,-0.263,9.798,0.08462266244925173,2.049934713105034,0.18416040100250625,0,0.05
1757395408.5924942,0.232,-0.263,9.798,0.08462266244925173,2.049934713105034,0.18416040100250625,0,0.05
1757395408.6202989,0.147,-0.121,9.835,0.0849412591147553,1.1090420923752347,0.188421052631579,0,0.05
1757395408.647618,0.147,-0.121,9.835,0.0849412591147553,1.1090420923752347,0.188421052631579,0,0.05
1757395408.6746492,0.12,0.0,9.864,0.0851529065857414,0.6969945645630756,0.18977443609022557,0,0.05
1757395408.70166,0.12,0.0,9.864,0.0851529065857414,0.6969945645630756,0.18977443609022557,0,0.05
1757395408.7285984,0.163,-0.189,9.846,0.08554203644992327,1.4520413213069914,0.1919298245614036,0,0.05
1757395408.7555053,0.163,-0.189,9.846,0.08554203644992327,1.4520413213069914,0.1919298245614036,0,0.05
1757395408.782483,-0.021,-0.115,9.889,0.08554848040731057,0.6772838732151224,0.20115288220551383,0,0.05
1757395408.809298,-0.021,-0.115,9.889,0.08554848040731057,0.6772838732151224,0.20115288220551383,0,0.05
1757395408.8356254,0.207,-0.226,9.663,0.086172298333049,1.8165848938729818,0.21258145363408526,0,0.05
1757395408.862677,0.207,-0.226,9.663,0.086172298333049,1.8165848938729818,0.21258145363408526,0,0.05
1757395408.8898652,0.179,-0.08,9.63,0.08663583265600902,1.1663628731345201,0.21398496240601503,0,0.05
1757395408.9165895,0.179,-0.08,9.63,0.08663583265600902,1.1663628731345201,0.21398496240601503,0,0.05
1757395408.9433641,0.158,-0.173,9.712,0.08699527286008131,1.3819369036662523,0.21503759398496247,0,0.05
1757395408.969786,0.158,-0.173,9.712,0.08699527286008131,1.3819369036662523,0.21503759398496247,0,0.05
1757395408.9964812,0.394,-0.163,9.769,0.089197911971077,2.499193472964349,0.22686716791979955,0,0.05
1757395409.0236042,0.394,-0.163,9.769,0.089197911971077,2.499193472964349,0.22686716791979955,0,0.05
1757395409.0502243,0.153,-0.315,9.719,0.08952535953572037,2.0635673982459375,0.23894736842105263,0,0.05
1757395409.0776188,0.153,-0.315,9.719,0.08952535953572037,2.0635673982459375,0.23894736842105263,0,0.05
1757395409.1044557,0.337,-0.319,9.65,0.0910972694431617,2.7530441749557726,0.24817042606516293,0,0.05
1757395409.1311505,0.337,-0.319,9.65,0.0910972694431617,2.7530441749557726,0.24817042606516293,0,0.05
1757395409.1579115,0.303,-0.281,9.781,0.09234844340864658,2.4192845562930727,0.24987468671679203,0,0.05
1757395409.1846673,0.303,-0.281,9.781,0.09234844340864658,2.4192845562930727,0.24987468671679203,0,0.05
1757395409.2115643,0.299,-0.243,9.713,0.09355072153650126,2.271599209360423,0.25007518796992484,0,0.05
1757395409.2383583,0.299,-0.243,9.713,0.09355072153650126,2.271599209360423,0.25007518796992484,0,0.05
1757395409.2651322,0.054,-0.38,9.682,0.09358967624690236,2.2701532047984423,0.26235588972431084,0,0.05
1757395409.292691,0.054,-0.38,9.682,0.09358967624690236,2.2701532047984423,0.26235588972431084,0,0.05
1757395409.319358,0.222,-0.08,9.803,0.09424562324055161,1.3789387624256528,0.2707769423558897,0,0.05
1757395409.3462665,0.222,-0.08,9.803,0.09424562324055161,1.3789387624256528,0.2707769423558897,0,0.05
1757395409.3729193,0.319,-0.133,9.726,0.09558577299996061,2.035160862521988,0.27563909774436096,0,0.05
1757395409.4007435,0.319,-0.133,9.726,0.09558577299996061,2.035160862521988,0.27563909774436096,0,0.05
1757395409.427835,0.079,-0.179,9.54,0.09566735336571197,1.1749264645990354,0.28766917293233085,0,0.05
1757395409.4545877,0.079,-0.179,9.54,0.09566735336571197,1.1749264645990354,0.28766917293233085,0,0.05
1757395409.4815028,0.022,-0.168,9.732,0.09567367715312294,0.9974201259791964,0.2905263157894737,0,0.05
1757395409.5083203,0.022,-0.168,9.732,0.09567367715312294,0.9974201259791964,0.2905263157894737,0,0.05
1757395409.5351133,0.107,0.04,9.71,0.09582314438589459,0.6740187588300899,0.2947869674185463,0,0.05
1757395409.5619633,0.107,0.04,9.71,0.09582314438589459,0.6740187588300899,0.2947869674185463,0,0.05
1757395409.588976,0.099,0.074,9.456,0.09595091192896502,0.7488752481028512,0.29518796992481205,0,0.05
1757395409.6153302,0.099,0.074,9.456,0.09595091192896502,0.7488752481028512,0.29518796992481205,0,0.05
1757395409.641853,0.058,0.096,9.764,0.09599472641765276,0.6581366570370295,0.29724310776942353,0,0.05
1757395409.6685903,0.058,0.096,9.764,0.09599472641765276,0.6581366570370295,0.29724310776942353,0,0.05
1757395409.6953046,0.156,0.164,9.824,0.09631109749141062,1.319860720401081,0.3021553884711779,0,0.05
1757395409.722388,0.156,0.164,9.824,0.09631109749141062,1.319860720401081,0.3021553884711779,0,0.05
1757395409.7492325,-0.004,-0.024,9.767,0.09631130515157606,0.1427320159004914,0.31017543859649116,0,0.05
1757395409.776908,-0.004,-0.024,9.767,0.09631130515157606,0.1427320159004914,0.31017543859649116,0,0.05
1757395409.8037155,-0.067,-0.06,9.805,0.09636954913249308,0.5255454399134656,0.3133333333333333,0,0.05
1757395409.8308046,-0.067,-0.06,9.805,0.09636954913249308,0.5255454399134656,0.3133333333333333,0,0.05
1757395409.8574705,-0.07,-0.1,10.042,0.09643308560862293,0.696424692395791,0.3134837092731829,0,0.05
1757395409.8834636,-0.07,-0.1,10.042,0.09643308560862293,0.696424692395791,0.3134837092731829,0,0.05
1757395409.9103637,0.021,0.021,9.863,0.09643880183826425,0.1725228322948524,0.31804511278195485,0,0.05
1757395409.9366574,0.021,0.021,9.863,0.09643880183826425,0.1725228322948524,0.31804511278195485,0,0.05
1757395409.963849,0.021,0.021,9.863,0.09643880183826425,0.1725228322948524,0.31804511278195485,0,0.05
1757395409.9904985,-0.009,-0.266,9.831,0.09643985172116348,1.5507755567379595,0.3195488721804511,0,0.05
1757395410.0174053,0.186,-0.1,9.903,0.09688722826048848,1.2216252185849723,0.32932330827067663,0,0.05
1757395410.0445876,0.186,-0.1,9.903,0.09688722826048848,1.2216252185849723,0.32932330827067663,0,0.05
1757395410.0704048,-0.001,-0.132,9.785,0.09688724116208491,0.7728974098939071,0.3386967418546366,0,0.05
1757395410.097559,-0.001,-0.132,9.785,0.09688724116208491,0.7728974098939071,0.3386967418546366,0,0.05
1757395410.1240451,-0.001,-0.132,9.785,0.09688724116208491,0.7728974098939071,0.3386967418546366,0,0.05
1757395410.1507785,0.118,-0.014,9.739,0.09706671674678195,0.6990432801757162,0.3446616541353383,0,0.05
1757395410.1777089,0.304,-0.039,9.763,0.09824961831986931,1.7981051171670508,0.353984962406015,0,0.05
1757395410.204656,0.304,-0.039,9.763,0.09824961831986931,1.7981051171670508,0.353984962406015,0,0.05
1757395410.231417,0.304,-0.039,9.763,0.09824961831986931,1.7981051171670508,0.353984962406015,0,0.05
1757395410.25827,0.12,-0.058,9.729,0.09843265464265404,0.7848698472109771,0.36320802005012526,0,0.05
1757395410.2856967,0.207,-0.156,9.613,0.09897529994902769,1.544523907595352,0.3675689223057644,0,0.05
1757395410.3120737,0.207,-0.156,9.613,0.09897529994902769,1.544523907595352,0.3675689223057644,0,0.05
1757395410.3385804,0.207,-0.156,9.613,0.09897529994902769,1.544523907595352,0.3675689223057644,0,0.05
1757395410.3653202,0.345,-0.047,9.738,0.10046727079004386,2.0477649574874155,0.37448621553884714,0,0.05
1757395410.392211,0.345,-0.047,9.738,0.10046727079004386,2.0477649574874155,0.37448621553884714,0,0.05
1757395410.4193907,0.055,0.014,9.782,0.10050490037804127,0.3324187127259034,0.3890225563909775,0,0.05
1757395410.4466765,0.055,0.014,9.782,0.10050490037804127,0.3324187127259034,0.3890225563909775,0,0.05
1757395410.473698,0.198,0.265,9.771,0.10099131150747574,1.939027594359823,0.3961904761904763,0,0.05
1757395410.5006223,0.198,0.265,9.771,0.10099131150747574,1.939027594359823,0.3961904761904763,0,0.05
1757395410.525623,0.18,0.153,9.573,0.10139154303984135,1.4136391272220603,0.397092731829574,0,0.05
1757395410.5520751,0.18,0.153,9.573,0.10139154303984135,1.4136391272220603,0.397092731829574,0,0.05
1757395410.5781128,0.195,0.245,9.445,0.10185925338426549,1.8988271444533458,0.39784461152882217,0,0.05
1757395410.604372,0.195,0.245,9.445,0.10185925338426549,1.8988271444533458,0.39784461152882217,0,0.05
1757395410.6313224,0.126,0.206,9.593,0.10205389507510235,1.4419674319155593,0.4013032581453635,0,0.05
1757395410.658061,0.126,0.206,9.593,0.10205389507510235,1.4419674319155593,0.4013032581453635,0,0.05
1757395410.6845703,0.181,0.04,9.733,0.10245438009182428,1.0910792722156453,0.4040601503759399,0,0.05
1757395410.710864,0.181,0.04,9.733,0.10245438009182428,1.0910792722156453,0.4040601503759399,0,0.05
1757395410.7362335,0.132,0.177,9.743,0.10266674242421446,1.2982438359707993,0.4065162907268171,0,0.05
1757395410.761416,0.132,0.177,9.743,0.10266674242421446,1.2982438359707993,0.4065162907268171,0,0.05
1757395410.7866461,0.29,0.205,9.727,0.10368563063414334,2.0909875171518975,0.41443609022556394,0,0.05
1757395410.8129597,0.29,0.205,9.727,0.10368563063414334,2.0909875171518975,0.41443609022556394,0,0.05
1757395410.839991,-0.035,0.089,9.851,0.10370039778130073,0.5562170132356967,0.43072681704260646,0,0.05
1757395410.865477,-0.035,0.089,9.851,0.10370039778130073,0.5562170132356967,0.43072681704260646,0,0.05
1757395410.8924022,0.023,0.013,9.944,0.10370677412782638,0.15222577936054726,0.4336340852130325,0,0.05
1757395410.9193804,0.023,0.013,9.944,0.10370677412782638,0.15222577936054726,0.4336340852130325,0,0.05
1757395410.946298,-0.031,0.001,9.869,0.10371835662022418,0.1800676055629938,0.4363408521303258,0,0.05
1757395410.97327,-0.031,0.001,9.869,0.10371835662022418,0.1800676055629938,0.4363408521303258,0,0.05
1757395410.9986763,0.01,-0.016,9.759,0.10371956180007705,0.11077500345881429,0.43839598997493723,0,0.05
1757395411.023767,0.01,-0.016,9.759,0.10371956180007705,0.11077500345881429,0.43839598997493723,0,0.05
1757395411.0503116,-0.101,-0.043,9.836,0.10384242870811526,0.6394102678839008,0.44395989974937333,0,0.05
1757395411.0758724,-0.101,-0.043,9.836,0.10384242870811526,0.6394102678839008,0.44395989974937333,0,0.05
1757395411.1019726,-0.077,0.006,9.888,0.1039137743516229,0.4475180606134635,0.44516290726817037,0,0.05
1757395411.1283484,-0.077,0.006,9.888,0.1039137743516229,0.4475180606134635,0.44516290726817037,0,0.05
1757395411.1557283,0.029,-0.068,9.876,0.10392389041986448,0.4288728196710661,0.4504761904761905,0,0.05
1757395411.1836228,0.029,-0.068,9.876,0.10392389041986448,0.4288728196710661,0.4504761904761905,0,0.05
1757395411.210486,-0.082,-0.188,9.799,0.10400473546911218,1.1990944579283451,0.4560401002506265,0,0.05
1757395411.2368562,-0.082,-0.188,9.799,0.10400473546911218,1.1990944579283451,0.4560401002506265,0,0.05
1757395411.2634916,0.115,-0.115,9.728,0.1041635612870451,0.9577925443857253,0.4659147869674185,0,0.05
1757395411.290514,0.115,-0.115,9.728,0.1041635612870451,0.9577925443857253,0.4659147869674185,0,0.05
1757395411.3163495,0.044,-0.204,9.698,0.10418679138931192,1.2327570135148784,0.4694736842105262,0,0.05
1757395411.343258,0.044,-0.204,9.698,0.10418679138931192,1.2327570135148784,0.4694736842105262,0,0.05
1757395411.370551,0.01,-0.2,9.715,0.10418799115061197,1.1808385382424618,0.47117794486215536,0,0.05
1757395411.398038,0.01,-0.2,9.715,0.10418799115061197,1.1808385382424618,0.47117794486215536,0,0.05
1757395411.424639,-0.075,-0.119,9.759,0.10425545549274629,0.8257835820984174,0.475438596491228,0,0.05
1757395411.451214,-0.075,-0.119,9.759,0.10425545549274629,0.8257835820984174,0.475438596491228,0,0.05
1757395411.4781306,0.08,-0.224,9.775,0.10433216186775773,1.3939150008573458,0.48320802005012525,0,0.05
1757395411.5050676,0.08,-0.224,9.775,0.10433216186775773,1.3939150008573458,0.48320802005012525,0,0.05
1757395411.53206,-0.066,-0.345,9.721,0.1043843379056456,2.0694118280309426,0.4905263157894736,0,0.05
1757395411.5592659,-0.066,-0.345,9.721,0.1043843379056456,2.0694118280309426,0.4905263157894736,0,0.05
1757395411.586257,0.226,-0.255,9.665,0.1049941903154646,2.0191050942108952,0.5051629072681703,0,0.05
1757395411.6133564,0.226,-0.255,9.665,0.1049941903154646,2.0191050942108952,0.5051629072681703,0,0.05
1757395411.6403744,0.099,-0.241,9.519,0.10511081057626755,1.567834454166044,0.5115288220551377,0,0.05
1757395411.6674547,0.099,-0.241,9.519,0.10511081057626755,1.567834454166044,0.5115288220551377,0,0.05
1757395411.6935394,0.251,-0.294,9.552,0.10585738047014011,2.3175038076301,0.5191478696741854,0,0.05
1757395411.719648,0.251,-0.294,9.552,0.10585738047014011,2.3175038076301,0.5191478696741854,0,0.05
1757395411.7465808,0.275,-0.29,9.71,0.10674665100133117,2.3569197045960326,0.5203508771929823,0,0.05
1757395411.7723763,0.275,-0.29,9.71,0.10674665100133117,2.3569197045960326,0.5203508771929823,0,0.05
1757395411.7984774,0.275,-0.29,9.71,0.10674665100133117,2.3569197045960326,0.5203508771929823,0,0.05
1757395411.8263624,0.081,-0.181,9.82,0.10682345248118505,1.1568310160867625,0.5300751879699247,0,0.05
1757395411.8540688,0.063,-0.38,9.913,0.10686988584255154,2.225208351013934,0.5309774436090225,0,0.05
1757395411.8814175,0.063,-0.38,9.913,0.10686988584255154,2.225208351013934,0.5309774436090225,0,0.05
1757395411.9083161,0.04,-0.463,9.975,0.10688859855007923,2.6674206908609004,0.5321303258145363,0,0.05
1757395411.935442,0.04,-0.463,9.975,0.10688859855007923,2.6674206908609004,0.5321303258145363,0,0.05
1757395411.963293,0.108,-0.267,9.851,0.10702491532348904,1.674690900865366,0.5355388471177945,0,0.05
1757395411.9902582,0.108,-0.267,9.851,0.10702491532348904,1.674690900865366,0.5355388471177945,0,0.05
1757395412.0173252,0.085,-0.399,9.852,0.10710926663925956,2.3711595727605874,0.5366917293233083,0,0.05
1757395412.044363,0.085,-0.399,9.852,0.10710926663925956,2.3711595727605874,0.5366917293233083,0,0.05
1757395412.0707347,-0.14,-0.425,9.896,0.1073377612958273,2.5889661912670796,0.5479699248120301,0,0.05
1757395412.098443,-0.14,-0.425,9.896,0.1073377612958273,2.5889661912670796,0.5479699248120301,0,0.05
1757395412.1252272,0.178,-0.255,10.039,0.10770610474805967,1.7742988343387756,0.5639097744360902,0,0.05
1757395412.1523569,0.178,-0.255,10.039,0.10770610474805967,1.7742988343387756,0.5639097744360902,0,0.05
1757395412.1782484,0.145,-0.213,9.952,0.10794983788778935,1.483131523345456,0.5655639097744362,0,0.05
1757395412.2043545,0.145,-0.213,9.952,0.10794983788778935,1.483131523345456,0.5655639097744362,0,0.05
1757395412.2306538,0.102,-0.363,9.839,0.10807024336051067,2.1946626036650936,0.5677192982456142,0,0.05
1757395412.257381,0.102,-0.363,9.839,0.10807024336051067,2.1946626036650936,0.5677192982456142,0,0.05
1757395412.2841988,0.435,-0.233,9.834,0.11023719880330778,2.8726999608922337,0.5844110275689223,0,0.05
1757395412.3118544,0.435,-0.233,9.834,0.11023719880330778,2.8726999608922337,0.5844110275689223,0,0.05
1757395412.3399844,0.435,-0.233,9.834,0.11023719880330778,2.8726999608922337,0.5844110275689223,0,0.05
1757395412.3670645,0.236,-0.102,9.659,0.1108669472836697,1.5247149629864083,0.5943859649122807,0,0.05
1757395412.3945324,0.118,-0.176,9.631,0.11102382627166117,1.2603882888208673,0.6003007518796993,0,0.05
1757395412.4214585,0.118,-0.176,9.631,0.11102382627166117,1.2603882888208673,0.6003007518796993,0,0.05
1757395412.448198,0.339,-0.09,9.693,0.11231025109045033,2.0723571445969853,0.6113784461152882,0,0.05
1757395412.4751332,0.339,-0.09,9.693,0.11231025109045033,2.0723571445969853,0.6113784461152882,0,0.05
1757395412.5022528,0.339,-0.09,9.693,0.11231025109045033,2.0723571445969853,0.6113784461152882,0,0.05
1757395412.5295906,0.367,0.064,9.559,0.11379945078953589,2.23183304124345,0.6127819548872181,0,0.05
1757395412.5574682,0.037,-0.082,9.596,0.11381448721494114,0.5371238547791718,0.6293233082706767,0,0.05
1757395412.5844116,0.037,-0.082,9.596,0.11381448721494114,0.5371238547791718,0.6293233082706767,0,0.05
1757395412.6112058,0.037,-0.082,9.596,0.11381448721494114,0.5371238547791718,0.6293233082706767,0,0.05
1757395412.6380577,0.154,-0.27,9.654,0.11407465757125901,1.844122899232845,0.635187969924812,0,0.05
1757395412.6659045,0.141,-0.128,9.53,0.11429230070306573,1.1447635103888205,0.6358395989974935,0,0.05
1757395412.6930594,0.141,-0.128,9.53,0.11429230070306573,1.1447635103888205,0.6358395989974935,0,0.05
1757395412.720329,0.166,-0.225,9.651,0.11459328078033197,1.6595084166317757,0.6370927318295739,0,0.05
1757395412.7470453,0.166,-0.225,9.651,0.11459328078033197,1.6595084166317757,0.6370927318295739,0,0.05
1757395412.7742918,0.11,-0.124,9.713,0.1147251933970913,0.9776960080441622,0.6398997493734334,0,0.05
1757395412.8018916,0.11,-0.124,9.713,0.1147251933970913,0.9776960080441622,0.6398997493734334,0,0.05
1757395412.8284497,0.034,-0.122,9.769,0.11473778802120947,0.7427631940945009,0.6437092731829573,0,0.05
1757395412.8555908,0.034,-0.122,9.769,0.11473778802120947,0.7427631940945009,0.6437092731829573,0,0.05
1757395412.8830836,0.086,-0.217,9.696,0.11481833477280534,1.379064648237674,0.6463157894736841,0,0.05
1757395412.9110014,0.086,-0.217,9.696,0.11481833477280534,1.379064648237674,0.6463157894736841,0,0.05
1757395412.9376173,0.154,-0.207,9.767,0.11507623560057914,1.513155038224378,0.6497243107769423,0,0.05
1757395412.965708,0.154,-0.207,9.767,0.11507623560057914,1.513155038224378,0.6497243107769423,0,0.05
1757395412.9916315,0.206,-0.187,9.819,0.11553627136098862,1.6230193433002034,0.6523308270676691,0,0.05
1757395413.0189435,0.206,-0.187,9.819,0.11553627136098862,1.6230193433002034,0.6523308270676691,0,0.05
1757395413.0456145,0.192,-0.289,9.79,0.11593442111814765,2.029758627993211,0.6530325814536341,0,0.05
1757395413.0734198,0.192,-0.289,9.79,0.11593442111814765,2.029758627993211,0.6530325814536341,0,0.05
1757395413.101429,0.176,-0.399,10.007,0.11626792334947761,2.4953015153786358,0.6538345864661652,0,0.05
1757395413.1282156,0.176,-0.399,10.007,0.11626792334947761,2.4953015153786358,0.6538345864661652,0,0.05
1757395413.1554728,0.305,-0.377,9.958,0.11726377317824972,2.7879420999559197,0.6603007518796992,0,0.05
1757395413.182904,0.305,-0.377,9.958,0.11726377317824972,2.7879420999559197,0.6603007518796992,0,0.05
1757395413.209571,-0.055,-0.323,10.225,0.11729601442504345,1.8353540342509893,0.678345864661654,0,0.05
1757395413.2369716,-0.055,-0.323,10.225,0.11729601442504345,1.8353540342509893,0.678345864661654,0,0.05
1757395413.2640855,0.186,-0.372,10.214,0.11766411942474223,2.3317654692512457,0.6904260651629073,0,0.05
1757395413.2917142,0.186,-0.372,10.214,0.11766411942474223,2.3317654692512457,0.6904260651629073,0,0.05
1757395413.3186083,0.017,-0.327,10.032,0.1176671895644661,1.8694540961197086,0.6988972431077695,0,0.05
1757395413.3466861,0.017,-0.327,10.032,0.1176671895644661,1.8694540961197086,0.6988972431077695,0,0.05
1757395413.3743775,0.179,-0.135,9.947,0.11800707605902284,1.2912018781874524,0.707017543859649,0,0.05
1757395413.40157,0.179,-0.135,9.947,0.11800707605902284,1.2912018781874524,0.707017543859649,0,0.05
1757395413.4286625,0.152,-0.198,9.937,0.11825155390099532,1.4389573629316461,0.7083709273182959,0,0.05
1757395413.4556746,0.152,-0.198,9.937,0.11825155390099532,1.4389573629316461,0.7083709273182959,0,0.05
1757395413.482805,0.183,-0.216,9.828,0.1186050272964852,1.6499683975163248,0.7099248120300753,0,0.05
1757395413.510265,0.183,-0.216,9.828,0.1186050272964852,1.6499683975163248,0.7099248120300753,0,0.05
1757395413.5365424,0.002,-0.038,9.816,0.11860506945320677,0.22211106172693715,0.7189974937343359,0,0.05
1757395413.563695,0.002,-0.038,9.816,0.11860506945320677,0.22211106172693715,0.7189974937343359,0,0.05
1757395413.5908964,0.256,-0.115,9.808,0.11929376555377905,1.6390013154364804,0.7317293233082707,0,0.05
1757395413.6182096,0.256,-0.115,9.808,0.11929376555377905,1.6390013154364804,0.7317293233082707,0,0.05
1757395413.6454203,0.073,-0.061,9.67,0.11934959153679581,0.5636460110862571,0.7409022556390977,0,0.05
1757395413.6727972,0.073,-0.061,9.67,0.11934959153679581,0.5636460110862571,0.7409022556390977,0,0.05
1757395413.6996033,0.187,0.098,9.678,0.11971527680292102,1.2496951097029148,0.7466165413533835,0,0.05
1757395413.726025,0.187,0.098,9.678,0.11971527680292102,1.2496951097029148,0.7466165413533835,0,0.05
1757395413.7530155,0.239,0.079,9.701,0.1203102240044461,1.4863569820209863,0.7492230576441101,0,0.05
1757395413.7799835,0.239,0.079,9.701,0.1203102240044461,1.4863569820209863,0.7492230576441101,0,0.05
1757395413.8065815,0.333,0.084,9.615,0.12145687506271516,2.0456367770095154,0.7539348370927318,0,0.05
1757395413.8342502,0.333,0.084,9.615,0.12145687506271516,2.0456367770095154,0.7539348370927318,0,0.05
1757395413.861478,0.189,0.105,9.665,0.1218239508471138,1.2815057904911555,0.7611528822055138,0,0.05
1757395413.8884923,0.189,0.105,9.665,0.1218239508471138,1.2815057904911555,0.7611528822055138,0,0.05
1757395413.9157133,0.242,0.251,9.868,0.12242338420416256,2.023564927214792,0.7638095238095238,0,0.05
1757395413.9421434,0.242,0.251,9.868,0.12242338420416256,2.023564927214792,0.7638095238095238,0,0.05
1757395413.9690368,0.092,0.138,9.855,0.12250977512019194,0.9641719979710652,0.771328320802005,0,0.05
1757395413.9960086,0.092,0.138,9.855,0.12250977512019194,0.9641719979710652,0.771328320802005,0,0.05
1757395414.0236843,0.029,0.138,9.853,0.1225183557676155,0.8199498638066806,0.7744862155388471,0,0.05
1757395414.051185,0.029,0.138,9.853,0.1225183557676155,0.8199498638066806,0.7744862155388471,0,0.05
1757395414.0775347,0.005,0.117,9.978,0.12251861083117128,0.6724209964161257,0.7756892230576441,0,0.05
1757395414.104914,0.005,0.117,9.978,0.12251861083117128,0.6724209964161257,0.7756892230576441,0,0.05
1757395414.1320612,-0.044,0.052,10.08,0.12253836134043902,0.38718139462290324,0.7781453634085214,0,0.05
1757395414.1595173,-0.044,0.052,10.08,0.12253836134043902,0.38718139462290324,0.7781453634085214,0,0.05
1757395414.186197,-0.198,0.027,10.045,0.12293762646155162,1.1396759353060821,0.7858646616541354,0,0.05
1757395414.2129111,-0.198,0.027,10.045,0.12293762646155162,1.1396759353060821,0.7858646616541354,0,0.05
1757395414.2393072,0.06,0.19,9.916,0.1229742249416519,1.1511261728156035,0.7987969924812031,0,0.05
1757395414.2666235,0.06,0.19,9.916,0.1229742249416519,1.1511261728156035,0.7987969924812031,0,0.05
1757395414.2930462,-0.003,0.047,9.847,0.12297431642420298,0.27402876535808757,0.801954887218045,0,0.05
1757395414.3206918,-0.003,0.047,9.847,0.12297431642420298,0.27402876535808757,0.801954887218045,0,0.05
1757395414.3487122,-0.003,0.047,9.847,0.12297431642420298,0.27402876535808757,0.801954887218045,0,0.05
1757395414.3758526,0.101,0.049,9.732,0.12307796309656738,0.6608775650519004,0.8071679197994986,0,0.05
1757395414.40356,0.171,0.099,9.805,0.12337458206616142,1.1544690216038824,0.8106766917293231,0,0.05
1757395414.429715,0.171,0.099,9.805,0.12337458206616142,1.1544690216038824,0.8106766917293231,0,0.05
1757395414.4560547,0.058,-0.047,9.741,0.12340866055508422,0.43909157915748925,0.8163408521303259,0,0.05
1757395414.4827297,0.058,-0.047,9.741,0.12340866055508422,0.43909157915748925,0.8163408521303259,0,0.05
1757395414.5094783,0.097,-0.226,9.835,0.12350392706306955,1.432457057704013,0.818295739348371,0,0.05
1757395414.5363688,0.097,-0.226,9.835,0.12350392706306955,1.432457057704013,0.818295739348371,0,0.05
1757395414.56381,0.127,-0.144,9.742,0.12366706311706444,1.1290817925589434,0.8197994987468671,0,0.05
1757395414.590787,0.127,-0.144,9.742,0.12366706311706444,1.1290817925589434,0.8197994987468671,0,0.05
1757395414.6182332,0.224,-0.13,9.668,0.12417319557778966,1.5344958386315237,0.8246616541353384,0,0.05
1757395414.644373,0.224,-0.13,9.668,0.12417319557778966,1.5344958386315237,0.8246616541353384,0,0.05
1757395414.6709428,-0.041,-0.093,9.714,0.12419011635391924,0.5994581196020837,0.8379448621553885,0,0.05
1757395414.6986654,-0.041,-0.093,9.714,0.12419011635391924,0.5994581196020837,0.8379448621553885,0,0.05
1757395414.7255738,0.155,0.018,9.767,0.12443169813194706,0.9153033734213009,0.8477694235588972,0,0.05
1757395414.7522957,0.155,0.018,9.767,0.12443169813194706,0.9153033734213009,0.8477694235588972,0,0.05
1757395414.7796547,0.161,0.011,9.633,0.12469182010059843,0.959748887537851,0.8480701754385965,0,0.05
1757395414.8066792,0.161,0.011,9.633,0.12469182010059843,0.959748887537851,0.8480701754385965,0,0.05
1757395414.833765,0.288,-0.125,9.589,0.12552055608544763,1.8752724510369652,0.854436090225564,0,0.05
1757395414.8613513,0.288,-0.125,9.589,0.12552055608544763,1.8752724510369652,0.854436090225564,0,0.05
1757395414.8886335,0.219,-0.073,9.756,0.12599727179586073,1.3554786088941788,0.8578947368421052,0,0.05
1757395414.9156518,0.219,-0.073,9.756,0.12599727179586073,1.3554786088941788,0.8578947368421052,0,0.05
1757395414.941104,0.221,-0.056,9.715,0.12648088788429657,1.344329494859607,0.8579949874686718,0,0.05
1757395414.9679005,0.221,-0.056,9.715,0.12648088788429657,1.344329494859607,0.8579949874686718,0,0.05
1757395414.99523,0.341,-0.295,9.574,0.12762490940251436,2.696395077531316,0.8640100250626566,0,0.05
1757395415.0227268,0.341,-0.295,9.574,0.12762490940251436,2.696395077531316,0.8640100250626566,0,0.05
1757395415.0498912,0.351,-0.385,9.776,0.12882592906709425,3.0505386065320863,0.8645112781954886,0,0.05
1757395415.0773299,0.351,-0.385,9.776,0.12882592906709425,3.0505386065320863,0.8645112781954886,0,0.05
1757395415.1024287,0.325,-0.326,9.726,0.12984676545836635,2.7097604459802325,0.8658145363408519,0,0.05
1757395415.1290228,0.325,-0.326,9.726,0.12984676545836635,2.7097604459802325,0.8658145363408519,0,0.05
1757395415.155492,0.087,-0.478,9.812,0.12991960975926614,2.834753430043982,0.8777443609022554,0,0.05
1757395415.1827562,0.087,-0.478,9.812,0.12991960975926614,2.834753430043982,0.8777443609022554,0,0.05
1757395415.2090943,-0.143,-0.567,10.072,0.13011620767606163,3.3227170197196596,0.8892731829573933,0,0.05
1757395415.2369168,-0.143,-0.567,10.072,0.13011620767606163,3.3227170197196596,0.8892731829573933,0,0.05
1757395415.2640033,0.064,-0.517,10.132,0.13015555116859212,2.943324251057383,0.8996491228070175,0,0.05
1757395415.291523,0.064,-0.517,10.132,0.13015555116859212,2.943324251057383,0.8996491228070175,0,0.05
1757395415.3184528,-0.034,-0.412,10.031,0.1301666527955605,2.3599550868764347,0.9045614035087718,0,0.05
1757395415.345737,-0.034,-0.412,10.031,0.1301666527955605,2.3599550868764347,0.9045614035087718,0,0.05
1757395415.3726518,-0.209,-0.394,10.112,0.1305854509507089,2.5254579439676306,0.9133333333333332,0,0.05
1757395415.3992605,-0.209,-0.394,10.112,0.1305854509507089,2.5254579439676306,0.9133333333333332,0,0.05
1757395415.42562,0.162,-0.399,10.203,0.13083642459193082,2.4168217792487074,0.9319298245614033,0,0.05
1757395415.4521353,0.162,-0.399,10.203,0.13083642459193082,2.4168217792487074,0.9319298245614033,0,0.05
1757395415.4796083,-0.049,-0.203,10.035,0.13085936152985006,1.192162943530796,0.9425062656641603,0,0.05
1757395415.5078564,-0.049,-0.203,10.035,0.13085936152985006,1.192162943530796,0.9425062656641603,0,0.05
1757395415.534312,-0.086,-0.264,9.985,0.13092999083479692,1.5928222709451196,0.9443609022556392,0,0.05
1757395415.5609317,-0.086,-0.264,9.985,0.13092999083479692,1.5928222709451196,0.9443609022556392,0,0.05
1757395415.5873914,0.231,-0.134,9.84,0.13143844566944635,1.5545957436029851,0.9602506265664159,0,0.05
1757395415.614605,0.231,-0.134,9.84,0.13143844566944635,1.5545957436029851,0.9602506265664159,0,0.05
1757395415.6420834,0.231,-0.134,9.84,0.13143844566944635,1.5545957436029851,0.9602506265664159,0,0.05
1757395415.6684172,-0.035,-0.082,9.739,0.13145009509315694,0.5245083218546256,0.9735839598997492,0,0.05
1757395415.6957812,-0.081,-0.03,9.704,0.13151247089154702,0.5099867526517268,0.9758897243107768,0,0.05
1757395415.72365,-0.081,-0.03,9.704,0.13151247089154702,0.5099867526517268,0.9758897243107768,0,0.05
1757395415.7507865,-0.092,0.059,9.823,0.13159289494497795,0.6374610377686241,0.9764411027568924,0,0.05
1757395415.7779417,-0.092,0.059,9.823,0.13159289494497795,0.6374610377686241,0.9764411027568924,0,0.05
1757395415.8050117,-0.006,0.12,9.67,0.13159323690828492,0.7118643556657871,0.9807518796992483,0,0.05
1757395415.8316858,-0.006,0.12,9.67,0.13159323690828492,0.7118643556657871,0.9807518796992483,0,0.05
1757395415.8588142,-0.013,-0.003,9.584,0.13159484222415405,0.07976007395362156,0.9811027568922305,0,0.05
1757395415.8858387,-0.013,-0.003,9.584,0.13159484222415405,0.07976007395362156,0.9811027568922305,0,0.05
1757395415.9122462,-0.004,0.016,9.659,0.13159499420570678,0.09783055026684553,0.9815538847117794,0,0.05
1757395415.9393163,-0.004,0.016,9.659,0.13159499420570678,0.09783055026684553,0.9815538847117794,0,0.05
1757395415.9663768,0.048,0.068,9.88,0.13161687771710737,0.48268005464547414,0.9841604010025065,0,0.05
1757395415.9944983,0.048,0.068,9.88,0.13161687771710737,0.48268005464547414,0.9841604010025065,0,0.05
1757395416.0218282,0.182,0.071,9.735,0.13193108996745231,1.149637765015068,0.9908771929824564,0,0.05
1757395416.0487413,0.182,0.071,9.735,0.13193108996745231,1.149637765015068,0.9908771929824564,0,0.05
1757395416.0758064,0.051,0.018,9.748,0.13195573121316104,0.31788174693226945,0.9974436090225565,0,0.05
1757395416.103668,0.051,0.018,9.748,0.13195573121316104,0.31788174693226945,0.9974436090225565,0,0.05
1757395416.1307864,0.156,0.116,9.753,0.1321860620489165,1.1418967590878926,1.0027067669172933,0,0.05
1757395416.1582165,0.156,0.116,9.753,0.1321860620489165,1.1418967590878926,1.0027067669172933,0,0.05
1757395416.1852765,0.207,0.006,9.58,0.13259063880983452,1.2383465511507035,1.0052631578947366,0,0.05
1757395416.2128894,0.207,0.006,9.58,0.13259063880983452,1.2383465511507035,1.0052631578947366,0,0.05
1757395416.240909,-0.092,-0.062,9.86,0.1326704092855675,0.644645766668236,1.0202506265664162,0,0.05
1757395416.268405,-0.092,-0.062,9.86,0.1326704092855675,0.644645766668236,1.0202506265664162,0,0.05
1757395416.2953577,0.167,-0.12,9.791,0.13293291541224844,1.2032211042330614,1.033233082706767,0,0.05
1757395416.3224652,0.167,-0.12,9.791,0.13293291541224844,1.2032211042330614,1.033233082706767,0,0.05
1757395416.349551,0.092,-0.205,9.815,0.13301248061742177,1.3114594251015412,1.0369924812030076,0,0.05
1757395416.3760438,0.092,-0.205,9.815,0.13301248061742177,1.3114594251015412,1.0369924812030076,0,0.05
1757395416.4030988,-0.069,-0.428,9.876,0.13305721513694777,2.513496116851673,1.0450626566416041,0,0.05
1757395416.4303286,-0.069,-0.428,9.876,0.13305721513694777,2.513496116851673,1.0450626566416041,0,0.05
1757395416.4568577,0.096,-0.301,9.813,0.1331437662829169,1.8440517210445202,1.0533333333333332,0,0.05
1757395416.4838197,0.096,-0.301,9.813,0.1331437662829169,1.8440517210445202,1.0533333333333332,0,0.05
1757395416.5108216,0.21,-0.28,9.608,0.13355715068838508,2.086246831873538,1.059047619047619,0,0.05
1757395416.5379748,0.21,-0.28,9.608,0.13355715068838508,2.086246831873538,1.059047619047619,0,0.05
1757395416.5643911,-0.007,-0.377,9.611,0.13355760929276922,2.246712915470473,1.069924812030075,0,0.05
1757395416.5910203,-0.007,-0.377,9.611,0.13355760929276922,2.246712915470473,1.069924812030075,0,0.05
1757395416.6168778,0.13,-0.286,9.75,0.1337156871874052,1.845514926392411,1.0767919799498744,0,0.05
1757395416.6437054,0.13,-0.286,9.75,0.1337156871874052,1.845514926392411,1.0767919799498744,0,0.05
1757395416.6695793,-0.075,-0.067,9.796,0.1337682604357252,0.5881933005300639,1.087067669172932,0,0.05
1757395416.697428,-0.075,-0.067,9.796,0.1337682604357252,0.5881933005300639,1.087067669172932,0,0.05
1757395416.724242,0.069,-0.33,9.877,0.13381274229310153,1.954945863081965,1.094285714285714,0,0.05
1757395416.7513654,0.069,-0.33,9.877,0.13381274229310153,1.954945863081965,1.094285714285714,0,0.05
1757395416.778815,0.094,-0.193,9.686,0.13389525757098344,1.2696583355648934,1.0955388471177945,0,0.05
1757395416.8051684,0.094,-0.193,9.686,0.13389525757098344,1.2696583355648934,1.0955388471177945,0,0.05
1757395416.8322084,0.173,-0.14,9.849,0.13417437348465616,1.2944532645653823,1.0994987468671678,0,0.05
1757395416.8593085,0.173,-0.14,9.849,0.13417437348465616,1.2944532645653823,1.0994987468671678,0,0.05
1757395416.8857872,0.047,-0.094,9.701,0.13419495146986715,0.6206860700485933,1.1058145363408518,0,0.05
1757395416.912131,0.047,-0.094,9.701,0.13419495146986715,0.6206860700485933,1.1058145363408518,0,0.05
1757395416.9390485,0.287,-0.055,9.686,0.13496002185832665,1.7280652332835127,1.1178446115288219,0,0.05
1757395416.9661245,0.287,-0.055,9.686,0.13496002185832665,1.7280652332835127,1.1178446115288219,0,0.05
1757395416.9922297,0.133,0.079,9.752,0.13512375808865,0.9087906841168163,1.125563909774436,0,0.05
1757395417.019039,0.133,0.079,9.752,0.13512375808865,0.9087906841168163,1.125563909774436,0,0.05
1757395417.0449486,0.111,-0.041,9.708,0.13523768890364846,0.698339158280504,1.1266666666666665,0,0.05
1757395417.0710957,0.111,-0.041,9.708,0.13523768890364846,0.698339158280504,1.1266666666666665,0,0.05
1757395417.0980575,0.026,-0.213,9.739,0.13524393701752402,1.2622030998548128,1.1309273182957393,0,0.05
1757395417.125091,0.026,-0.213,9.739,0.13524393701752402,1.2622030998548128,1.1309273182957393,0,0.05
1757395417.152781,0.091,-0.051,9.807,0.13532045299953738,0.6094308561436376,1.1341854636591477,0,0.05
1757395417.1793628,0.091,-0.051,9.807,0.13532045299953738,0.6094308561436376,1.1341854636591477,0,0.05
1757395417.206534,0.117,0.024,9.559,0.13544684381704875,0.7158523586562362,1.1354887218045113,0,0.05
1757395417.2333498,0.117,0.024,9.559,0.13544684381704875,0.7158523586562362,1.1354887218045113,0,0.05
1757395417.2603588,-0.034,-0.06,9.658,0.13545751178875243,0.40911836325665124,1.1430576441102756,0,0.05
1757395417.2871857,-0.034,-0.06,9.658,0.13545751178875243,0.40911836325665124,1.1430576441102756,0,0.05
1757395417.314253,0.01,0.003,9.807,0.13545843458419266,0.06099574526402886,1.1452631578947365,0,0.05
1757395417.3415098,0.01,0.003,9.807,0.13545843458419266,0.06099574526402886,1.1452631578947365,0,0.05
1757395417.3693335,-0.159,-0.247,10.036,0.13569152515909016,1.6765566680671493,1.1537343358395988,0,0.05
1757395417.3968258,-0.159,-0.247,10.036,0.13569152515909016,1.6765566680671493,1.1537343358395988,0,0.05
1757395417.4235353,-0.159,-0.247,10.036,0.13569152515909016,1.6765566680671493,1.1537343358395988,0,0.05
1757395417.4497874,-0.024,-0.217,9.9,0.13569683120839632,1.2633301128484142,1.160501253132832,0,0.05
1757395417.4769397,0.127,-0.102,9.867,0.13584532564648666,0.945782414063915,1.1680701754385965,0,0.05
1757395417.5040517,0.127,-0.102,9.867,0.13584532564648666,0.945782414063915,1.1680701754385965,0,0.05
1757395417.5306065,0.315,-0.121,9.833,0.1367553106829859,1.9654555567615886,1.1774937343358394,0,0.05
1757395417.5577848,0.315,-0.121,9.833,0.1367553106829859,1.9654555567615886,1.1774937343358394,0,0.05
1757395417.584754,0.192,-0.04,9.752,0.1370918487730033,1.152119752960377,1.183659147869674,0,0.05
1757395417.6125948,0.192,-0.04,9.752,0.1370918487730033,1.152119752960377,1.183659147869674,0,0.05
1757395417.6396036,0.163,-0.141,9.812,0.13733389057330314,1.258311372978742,1.185112781954887,0,0.05
1757395417.6669638,0.163,-0.141,9.812,0.13733389057330314,1.258311372978742,1.185112781954887,0,0.05
1757395417.6942756,0.222,-0.047,9.903,0.13778173863034246,1.312665154507274,1.1880701754385965,0,0.05
1757395417.7208357,0.222,-0.047,9.903,0.13778173863034246,1.312665154507274,1.1880701754385965,0,0.05
1757395417.7467196,0.242,-0.051,9.781,0.13831202948406188,1.448432744375792,1.1890726817042603,0,0.05
1757395417.7736592,0.242,-0.051,9.781,0.13831202948406188,1.448432744375792,1.1890726817042603,0,0.05
1757395417.8007886,0.203,-0.226,9.817,0.1386839572553365,1.7724371074251941,1.1910275689223053,0,0.05
1757395417.8279233,0.203,-0.226,9.817,0.1386839572553365,1.7724371074251941,1.1910275689223053,0,0.05
1757395417.8552856,0.173,-0.047,9.788,0.13895345443708837,1.0492755189370409,1.1925313283208019,0,0.05
1757395417.8821328,0.173,-0.047,9.788,0.13895345443708837,1.0492755189370409,1.1925313283208019,0,0.05
1757395417.908846,0.265,-0.022,9.635,0.13958375621826488,1.5808768263421082,1.1971428571428568,0,0.05
1757395417.9354596,0.265,-0.022,9.635,0.13958375621826488,1.5808768263421082,1.1971428571428568,0,0.05
1757395417.9628417,0.293,-0.103,9.671,0.14035044531457674,1.8393786559750933,1.1985463659147868,0,0.05
1757395417.989261,0.293,-0.103,9.671,0.14035044531457674,1.8393786559750933,1.1985463659147868,0,0.05
1757395418.0164614,0.12,-0.213,9.891,0.14047863716594064,1.4158981254224925,1.2072180451127816,0,0.05
1757395418.0429385,0.12,-0.213,9.891,0.14047863716594064,1.4158981254224925,1.2072180451127816,0,0.05
1757395418.0690603,0.176,-0.043,9.71,0.1407539963908663,1.0689450428778169,1.2100250626566416,0,0.05
1757395418.0957265,0.176,-0.043,9.71,0.1407539963908663,1.0689450428778169,1.2100250626566416,0,0.05
1757395418.1227937,0.15,-0.227,9.759,0.14095367146690432,1.5970031301457182,1.211328320802005,0,0.05
1757395418.149651,0.15,-0.227,9.759,0.14095367146690432,1.5970031301457182,1.211328320802005,0,0.05
1757395418.176826,0.16,-0.238,9.714,0.14118051388205102,1.6910269099854665,1.2118295739348368,0,0.05
1757395418.2038457,0.16,-0.238,9.714,0.14118051388205102,1.6910269099854665,1.2118295739348368,0,0.05
1757395418.2310476,0.296,-0.106,9.75,0.14195413872092633,1.8469718618613535,1.2186466165413532,0,0.05
1757395418.258212,0.296,-0.106,9.75,0.14195413872092633,1.8469718618613535,1.2186466165413532,0,0.05
1757395418.2853327,0.294,-0.125,9.799,0.14271323519561877,1.8673124090539197,1.2187468671679196,0,0.05
1757395418.3124297,0.294,-0.125,9.799,0.14271323519561877,1.8673124090539197,1.2187468671679196,0,0.05
1757395418.339192,-0.122,-0.145,9.944,0.1428435420311328,1.0917183491132196,1.2395989974937343,0,0.05
1757395418.3661864,-0.122,-0.145,9.944,0.1428435420311328,1.0917183491132196,1.2395989974937343,0,0.05
1757395418.3933632,0.075,0.031,10.034,0.142892756989289,0.4633934912489212,1.249473684210526,0,0.05
1757395418.4200492,0.075,0.031,10.034,0.142892756989289,0.4633934912489212,1.249473684210526,0,0.05
1757395418.4465802,0.047,-0.08,9.977,0.1429120796154055,0.5328273318302543,1.2508771929824563,0,0.05
1757395418.4737413,0.047,-0.08,9.977,0.1429120796154055,0.5328273318302543,1.2508771929824563,0,0.05
1757395418.5013616,-0.102,-0.01,10.033,0.14300305066676025,0.5852670455995619,1.258345864661654,0,0.05
1757395418.528752,-0.102,-0.01,10.033,0.14300305066676025,0.5852670455995619,1.258345864661654,0,0.05
1757395418.5554252,0.233,-0.054,10.131,0.1434768099729012,1.3524046227080766,1.2751378446115287,0,0.05
1757395418.5828388,0.233,-0.054,10.131,0.1434768099729012,1.3524046227080766,1.2751378446115287,0,0.05
1757395418.609777,-0.199,0.089,9.881,0.1438214083507737,1.2638590447507376,1.2967919799498744,0,0.05
1757395418.636797,-0.199,0.089,9.881,0.1438214083507737,1.2638590447507376,1.2967919799498744,0,0.05
1757395418.662967,0.064,0.109,9.848,0.14385700365293305,0.735357224040836,1.3099749373433582,0,0.05
1757395418.690118,0.064,0.109,9.848,0.14385700365293305,0.735357224040836,1.3099749373433582,0,0.05
1757395418.7173262,0.079,-0.126,9.889,0.14391122263395584,0.8615899554669338,1.3107268170426065,0,0.05
1757395418.7444134,0.079,-0.126,9.889,0.14391122263395584,0.8615899554669338,1.3107268170426065,0,0.05
1757395418.7714434,-0.051,0.057,9.829,0.1439338129141308,0.4458435259097506,1.3172431077694233,0,0.05
1757395418.798758,-0.051,0.057,9.829,0.1439338129141308,0.4458435259097506,1.3172431077694233,0,0.05
1757395418.8257892,0.04,-0.005,9.881,0.14394770751908487,0.23374697883807152,1.3218045112781955,0,0.05
1757395418.8523479,0.04,-0.005,9.881,0.14394770751908487,0.23374697883807152,1.3218045112781955,0,0.05
1757395418.8799014,-0.047,-0.132,9.952,0.14396688855427833,0.806634706798647,1.3261654135338345,0,0.05
1757395418.9070823,-0.047,-0.132,9.952,0.14396688855427833,0.806634706798647,1.3261654135338345,0,0.05
1757395418.9331038,0.085,-0.116,9.927,0.14402960633147616,0.8299654232593856,1.332781954887218,0,0.05
1757395418.9602718,0.085,-0.116,9.927,0.14402960633147616,0.8299654232593856,1.332781954887218,0,0.05
1757395418.987413,0.087,-0.169,9.837,0.14409528097755317,1.1069803181809792,1.3328822055137843,0,0.05
1757395419.014873,0.087,-0.169,9.837,0.14409528097755317,1.1069803181809792,1.3328822055137843,0,0.05
1757395419.0412345,0.183,-0.088,9.911,0.14438549961820957,1.1737263825854425,1.3376942355889725,0,0.05
1757395419.0685773,0.183,-0.088,9.911,0.14438549961820957,1.1737263825854425,1.3376942355889725,0,0.05
1757395419.0956898,0.194,0.057,9.915,0.14471096192065064,1.1682928518876752,1.3382456140350878,0,0.05
1757395419.1225965,0.194,0.057,9.915,0.14471096192065064,1.1682928518876752,1.3382456140350878,0,0.05
1757395419.148692,0.047,-0.136,9.886,0.14473004180197008,0.833890406840552,1.3456140350877193,0,0.05
1757395419.1766396,0.047,-0.136,9.886,0.14473004180197008,0.833890406840552,1.3456140350877193,0,0.05
1757395419.204402,0.115,-0.106,10.001,0.14484421804131498,0.8959440896309714,1.3490225563909777,0,0.05
1757395419.2324767,0.115,-0.106,10.001,0.14484421804131498,0.8959440896309714,1.3490225563909777,0,0.05
1757395419.260409,0.184,-0.058,9.884,0.14513609992004056,1.1182088768646952,1.352481203007519,0,0.05
1757395419.2879486,0.184,-0.058,9.884,0.14513609992004056,1.1182088768646952,1.352481203007519,0,0.05
1757395419.3155873,-0.003,-0.243,9.867,0.14513617743347107,1.4108767588304523,1.3618546365914788,0,0.05
1757395419.3426225,-0.003,-0.243,9.867,0.14513617743347107,1.4108767588304523,1.3618546365914788,0,0.05
1757395419.3684313,0.039,-0.206,10.0,0.1451492766086004,1.2010830348473684,1.3639598997493732,0,0.05
1757395419.3955984,0.039,-0.206,10.0,0.1451492766086004,1.2010830348473684,1.3639598997493732,0,0.05
1757395419.4231207,-0.011,-0.174,10.143,0.14515031863554417,0.9847563773401495,1.3664661654135342,0,0.05
1757395419.4504616,-0.011,-0.174,10.143,0.14515031863554417,0.9847563773401495,1.3664661654135342,0,0.05
1757395419.4788108,-0.011,-0.174,10.143,0.14515031863554417,0.9847563773401495,1.3664661654135342,0,0.05
1757395419.5067408,0.197,-0.028,9.851,0.1454841486210783,1.1571574746336892,1.376892230576441,0,0.05
1757395419.5343723,0.068,-0.064,9.946,0.145523872612022,0.5379224372962941,1.3833583959899747,0,0.05
1757395419.561789,0.068,-0.064,9.946,0.145523872612022,0.5379224372962941,1.3833583959899747,0,0.05
1757395419.588935,0.068,-0.064,9.946,0.145523872612022,0.5379224372962941,1.3833583959899747,0,0.05
1757395419.616032,0.175,-0.036,9.867,0.14578669349429665,1.0373571161448456,1.388721804511278,0,0.05
1757395419.6432278,0.256,0.024,9.838,0.14634753158150635,1.4971217037067053,1.3927819548872178,0,0.05
1757395419.6694832,0.256,0.024,9.838,0.14634753158150635,1.4971217037067053,1.3927819548872178,0,0.05
1757395419.696783,0.156,-0.09,9.856,0.14655524555607008,1.0468567373616098,1.397794486215539,0,0.05
1757395419.724186,0.156,-0.09,9.856,0.14655524555607008,1.0468567373616098,1.397794486215539,0,0.05
1757395419.7507377,0.279,-0.157,9.883,0.147217670474709,1.8553367601509796,1.4039598997493734,0,0.05
1757395419.778194,0.279,-0.157,9.883,0.147217670474709,1.8553367601509796,1.4039598997493734,0,0.05
1757395419.8053617,0.161,-0.139,9.972,0.14743759696902278,1.221927419941877,1.409874686716792,0,0.05
1757395419.8327236,0.161,-0.139,9.972,0.14743759696902278,1.221927419941877,1.409874686716792,0,0.05
1757395419.8598366,0.122,-0.245,9.89,0.14756373199400996,1.5851943282259275,1.411829573934837,0,0.05
1757395419.8870149,0.122,-0.245,9.89,0.14756373199400996,1.5851943282259275,1.411829573934837,0,0.05
1757395419.9142258,0.215,-0.268,9.875,0.1479547819436736,1.9926982022354958,1.4164912280701754,0,0.05
1757395419.9417374,0.215,-0.268,9.875,0.1479547819436736,1.9926982022354958,1.4164912280701754,0,0.05
1757395419.9687943,0.293,-0.22,9.757,0.14867831045582944,2.150591056783758,1.4204010025062657,0,0.05
1757395419.9962544,0.293,-0.22,9.757,0.14867831045582944,2.150591056783758,1.4204010025062657,0,0.05
1757395420.0235415,0.113,-0.162,9.741,0.14878562598584583,1.1616204610944765,1.4294235588972433,0,0.05
1757395420.050297,0.113,-0.162,9.741,0.14878562598584583,1.1616204610944765,1.4294235588972433,0,0.05
1757395420.0776162,0.202,-0.252,9.678,0.14912804062281512,1.9113256367526799,1.4338847117794487,0,0.05
1757395420.1050193,0.202,-0.252,9.678,0.14912804062281512,1.9113256367526799,1.4338847117794487,0,0.05
1757395420.1323774,0.162,-0.167,9.742,0.1493478573666191,1.368116259352701,1.4358897243107769,0,0.05
1757395420.1588292,0.162,-0.167,9.742,0.1493478573666191,1.368116259352701,1.4358897243107769,0,0.05
1757395420.1859517,0.202,-0.102,9.672,0.14968898590076696,1.3402815094410492,1.4378947368421053,0,0.05
1757395420.21318,0.202,-0.102,9.672,0.14968898590076696,1.3402815094410492,1.4378947368421053,0,0.05
1757395420.2404687,0.049,-0.314,9.615,0.14970903446352193,1.89308234027174,1.445563909774436,0,0.05
1757395420.2681127,0.049,-0.314,9.615,0.14970903446352193,1.89308234027174,1.445563909774436,0,0.05
1757395420.2951653,0.202,-0.295,9.682,0.15004934188459473,2.1148275507535987,1.453233082706767,0,0.05
1757395420.3223524,0.202,-0.295,9.682,0.15004934188459473,2.1148275507535987,1.453233082706767,0,0.05
1757395420.3492584,0.209,-0.18,9.527,0.1504127903470978,1.6583770193637744,1.4535839598997493,0,0.05
1757395420.3764474,0.209,-0.18,9.527,0.1504127903470978,1.6583770193637744,1.4535839598997493,0,0.05
1757395420.4023607,-0.019,-0.193,9.692,0.15041579039449282,1.1463122730104358,1.4650125313283207,0,0.05
1757395420.4290981,-0.019,-0.193,9.692,0.15041579039449282,1.1463122730104358,1.4650125313283207,0,0.05
1757395420.456494,0.116,-0.054,9.719,0.15052757222515747,0.7542699901346206,1.4717794486215536,0,0.05
1757395420.483835,0.116,-0.054,9.719,0.15052757222515747,0.7542699901346206,1.4717794486215536,0,0.05
1757395420.5118024,0.073,-0.011,9.665,0.15057181841234435,0.4376335204574211,1.4739348370927317,0,0.05
1757395420.5375278,0.073,-0.011,9.665,0.15057181841234435,0.4376335204574211,1.4739348370927317,0,0.05
1757395420.564613,-0.108,0.209,9.562,0.15066861816582774,1.4093714956464565,1.4830075187969922,0,0.05
1757395420.591994,-0.108,0.209,9.562,0.15066861816582774,1.4093714956464565,1.4830075187969922,0,0.05
1757395420.6193094,0.163,0.227,9.688,0.15088888295696273,1.6522967326623592,1.4965914786967418,0,0.05
1757395420.6459875,0.163,0.227,9.688,0.15088888295696273,1.6522967326623592,1.4965914786967418,0,0.05
1757395420.6726818,0.119,0.086,9.662,0.1510061505369897,0.8705953334549907,1.498796992481203,0,0.05
1757395420.6998203,0.119,0.086,9.662,0.1510061505369897,0.8705953334549907,1.498796992481203,0,0.05
1757395420.727612,-0.047,0.095,9.723,0.15102443510902466,0.624557394516038,1.5071177944862153,0,0.05
1757395420.755776,-0.047,0.095,9.723,0.15102443510902466,0.624557394516038,1.5071177944862153,0,0.05
1757395420.7829587,0.05,-0.01,9.923,0.15104512570751827,0.2944167352516858,1.5119799498746866,0,0.05
1757395420.8096528,0.05,-0.01,9.923,0.15104512570751827,0.2944167352516858,1.5119799498746866,0,0.05
1757395420.8370206,0.106,0.066,9.784,0.15113808256028657,0.7311955232131186,1.5147869674185463,0,0.05
1757395420.8645945,0.106,0.066,9.784,0.15113808256028657,0.7311955232131186,1.5147869674185463,0,0.05
1757395420.892012,0.039,-0.103,9.892,0.1511506615929947,0.6378976182606173,1.5181453634085214,0,0.05
1757395420.9186041,0.039,-0.103,9.892,0.1511506615929947,0.6378976182606173,1.5181453634085214,0,0.05
1757395420.946341,0.162,-0.217,9.932,0.15136754110442568,1.561809510729319,1.5243107769423556,0,0.05
1757395420.9735355,0.162,-0.217,9.932,0.15136754110442568,1.561809510729319,1.5243107769423556,0,0.05
1757395421.0007887,0.032,-0.292,9.917,0.15137599710654262,1.6966433317305951,1.5308270676691729,0,0.05
1757395421.028091,0.032,-0.292,9.917,0.15137599710654262,1.6966433317305951,1.5308270676691729,0,0.05
1757395421.055072,0.17,-0.227,9.687,0.15161445346667976,1.6769327041145596,1.5377443609022554,0,0.05
1757395421.0816896,0.17,-0.227,9.687,0.15161445346667976,1.6769327041145596,1.5377443609022554,0,0.05
1757395421.1090293,0.162,-0.138,9.726,0.15183067048524815,1.2534604789508654,1.5381453634085211,0,0.05
1757395421.1364868,0.162,-0.138,9.726,0.15183067048524815,1.2534604789508654,1.5381453634085211,0,0.05
1757395421.1626742,-0.132,-0.122,9.836,0.15197405206152792,1.0469135315185183,1.5528822055137845,0,0.05
1757395421.190108,-0.132,-0.122,9.836,0.15197405206152792,1.0469135315185183,1.5528822055137845,0,0.05
1757395421.2168376,0.085,-0.044,9.663,0.1520334667104582,0.5675026475680851,1.5637593984962403,0,0.05
1757395421.2446856,0.085,-0.044,9.663,0.1520334667104582,0.5675026475680851,1.5637593984962403,0,0.05
1757395421.2723927,0.001,-0.117,9.755,0.15203347493233194,0.6871890929280301,1.5679699248120298,0,0.05
1757395421.3000734,0.001,-0.117,9.755,0.15203347493233194,0.6871890929280301,1.5679699248120298,0,0.05
1757395421.3273287,0.12,-0.122,9.846,0.15215182384710346,0.9957132271098948,1.5739348370927315,0,0.05
1757395421.3552256,0.12,-0.122,9.846,0.15215182384710346,0.9957132271098948,1.5739348370927315,0,0.05
1757395421.382787,0.169,-0.036,9.745,0.15238628547215133,1.0158237563845296,1.5763909774436091,0,0.05
1757395421.4096103,0.169,-0.036,9.745,0.15238628547215133,1.0158237563845296,1.5763909774436091,0,0.05
1757395421.4358284,-0.06,-0.094,9.746,0.15241581282793462,0.655567823688584,1.5878696741854634,0,0.05
1757395421.4632173,-0.06,-0.094,9.746,0.15241581282793462,0.655567823688584,1.5878696741854634,0,0.05
1757395421.4899805,-0.107,-0.29,9.854,0.15250968002064655,1.7967214710950985,1.5902255639097742,0,0.05
1757395421.515694,-0.107,-0.29,9.854,0.15250968002064655,1.7967214710950985,1.5902255639097742,0,0.05
1757395421.5428495,-0.059,-0.015,9.909,0.15253820832827425,0.35199787981315234,1.5926315789473686,0,0.05
1757395421.5697823,-0.059,-0.015,9.909,0.15253820832827425,0.35199787981315234,1.5926315789473686,0,0.05
1757395421.5962322,0.03,-0.003,9.667,0.15254558335133797,0.1786946076570734,1.597092731829574,0,0.05
1757395421.6227508,0.03,-0.003,9.667,0.15254558335133797,0.1786946076570734,1.597092731829574,0,0.05
1757395421.649308,-0.153,0.003,9.857,0.15273728261298877,0.8894425228231703,1.6062656641604007,0,0.05
1757395421.676044,-0.153,0.003,9.857,0.15273728261298877,0.8894425228231703,1.6062656641604007,0,0.05
1757395421.703055,0.089,0.061,9.813,0.1528020942264863,0.6299660279591017,1.6183959899749374,0,0.05
1757395421.7306201,0.089,0.061,9.813,0.1528020942264863,0.6299660279591017,1.6183959899749374,0,0.05
1757395421.7584045,-0.116,0.143,9.674,0.15291213163120837,1.0904254663302617,1.6286716791979952,0,0.05
1757395421.7851431,-0.116,0.143,9.674,0.15291213163120837,1.0904254663302617,1.6286716791979952,0,0.05
1757395421.8117456,-0.009,0.058,9.668,0.15291279377475253,0.3478365927967293,1.6340350877192984,0,0.05
1757395421.8393056,-0.009,0.058,9.668,0.15291279377475253,0.3478365927967293,1.6340350877192984,0,0.05
1757395421.8667622,0.081,0.042,9.869,0.15296641788314191,0.5296990953737128,1.638546365914787,0,0.05
1757395421.8941936,0.081,0.042,9.869,0.15296641788314191,0.5296990953737128,1.638546365914787,0,0.05
1757395421.920677,-0.169,-0.006,9.777,0.1531996328324582,0.9909094088034474,1.651077694235589,0,0.05
1757395421.947431,-0.169,-0.006,9.777,0.1531996328324582,0.9909094088034474,1.651077694235589,0,0.05
1757395421.9747171,-0.183,-0.0,9.905,0.15347263599743116,1.05844875121335,1.6517794486215538,0,0.05
1757395422.00301,-0.183,-0.0,9.905,0.15347263599743116,1.05844875121335,1.6517794486215538,0,0.05
1757395422.0307891,-0.016,0.104,9.867,0.15347472104551943,0.610989968970592,1.6601503759398495,0,0.05
1757395422.0574749,-0.016,0.104,9.867,0.15347472104551943,0.610989968970592,1.6601503759398495,0,0.05
1757395422.0838385,-0.081,0.078,9.855,0.15352814888482177,0.6537422803026448,1.6634085213032577,0,0.05
1757395422.111115,-0.081,0.078,9.855,0.15352814888482177,0.6537422803026448,1.6634085213032577,0,0.05
1757395422.1383553,-0.125,-0.038,9.749,0.15365531230647378,0.767786735015509,1.665614035087719,0,0.05
1757395422.1645756,-0.125,-0.038,9.749,0.15365531230647378,0.767786735015509,1.665614035087719,0,0.05
1757395422.1914124,0.113,-0.006,9.888,0.15375915419902647,0.655669538921008,1.6775438596491226,0,0.05
1757395422.2188764,0.113,-0.006,9.888,0.15375915419902647,0.655669538921008,1.6775438596491226,0,0.05
1757395422.2464647,0.073,-0.006,9.934,0.1538024707213769,0.4224501512223566,1.679548872180451,0,0.05
1757395422.273003,0.073,-0.006,9.934,0.1538024707213769,0.4224501512223566,1.679548872180451,0,0.05
1757395422.299406,-0.007,-0.104,9.981,0.1538028689589372,0.5983394725413671,1.6835588972431077,0,0.05
1757395422.326755,-0.007,-0.104,9.981,0.1538028689589372,0.5983394725413671,1.6835588972431077,0,0.05
1757395422.3542879,-0.017,-0.15,10.08,0.15380521772683786,0.8580098404715714,1.68406015037594,0,0.05
1757395422.381021,-0.017,-0.15,10.08,0.15380521772683786,0.8580098404715714,1.68406015037594,0,0.05
1757395422.408299,0.111,-0.231,9.974,0.15390531992104756,1.471908791512862,1.6904761904761905,0,0.05
1757395422.4357562,0.111,-0.231,9.974,0.15390531992104756,1.471908791512862,1.6904761904761905,0,0.05
1757395422.4630766,-0.049,-0.304,9.948,0.15392481931124688,1.7729288945526005,1.6984962406015036,0,0.05
1757395422.4904928,-0.049,-0.304,9.948,0.15392481931124688,1.7729288945526005,1.6984962406015036,0,0.05
1757395422.51834,-0.064,-0.164,9.997,0.15395807870975786,1.008864535441855,1.699248120300752,0,0.05
1757395422.5456476,0.015,0.008,10.014,0.15395990549490474,0.09726655842140071,1.7032080200501252,0,0.05
1757395422.572109,0.015,0.008,10.014,0.15395990549490474,0.09726655842140071,1.7032080200501252,0,0.05
1757395422.5987978,0.015,0.008,10.014,0.15395990549490474,0.09726655842140071,1.7032080200501252,0,0.05
1757395422.6256437,0.185,-0.135,9.754,0.15423752785881908,1.345032688246244,1.7117293233082707,0,0.05
1757395422.6527004,0.185,-0.135,9.754,0.15423752785881908,1.345032688246244,1.7117293233082707,0,0.05
1757395422.679414,0.012,-0.131,9.912,0.15423869488555716,0.7603641711726764,1.7204010025062655,0,0.05
1757395422.706886,0.012,-0.131,9.912,0.15423869488555716,0.7603641711726764,1.7204010025062655,0,0.05
1757395422.734063,0.23,-0.097,9.864,0.1546668193246373,1.449613681426109,1.731328320802005,0,0.05
1757395422.7618818,0.23,-0.097,9.864,0.1546668193246373,1.449613681426109,1.731328320802005,0,0.05
1757395422.7881718,-0.094,-0.204,9.932,0.15473821441389327,1.2955407897649491,1.7475689223057644,0,0.05
1757395422.8154562,-0.094,-0.204,9.932,0.15473821441389327,1.2955407897649491,1.7475689223057644,0,0.05
1757395422.8425686,0.055,-0.449,10.099,0.1547626489176248,2.5646876037135526,1.7550375939849623,0,0.05
1757395422.8693914,0.186,-0.354,10.026,0.15504182500215868,2.284048496944064,1.761604010025063,0,0.05
1757395422.8955822,0.186,-0.354,10.026,0.15504182500215868,2.284048496944064,1.761604010025063,0,0.05
1757395422.9222658,0.186,-0.354,10.026,0.15504182500215868,2.284048496944064,1.761604010025063,0,0.05
1757395422.9495609,0.068,-0.286,9.951,0.1550791007840837,1.6921417622695767,1.7675187969924813,0,0.05
1757395422.9769936,0.068,-0.286,9.951,0.1550791007840837,1.6921417622695767,1.7675187969924813,0,0.05
1757395423.0042868,0.051,-0.211,9.913,0.15510006447451916,1.254469132174459,1.7683709273182955,0,0.05
1757395423.0327885,0.051,-0.211,9.913,0.15510006447451916,1.254469132174459,1.7683709273182955,0,0.05
1757395423.0604937,0.085,-0.226,9.951,0.15515828208639074,1.3899804671690976,1.7700751879699248,0,0.05
1757395423.0874317,0.232,-0.176,9.86,0.15559129956395376,1.691676903333507,1.7774436090225565,0,0.05
1757395423.1152709,0.232,-0.176,9.86,0.15559129956395376,1.691676903333507,1.7774436090225565,0,0.05
1757395423.1417804,0.121,-0.172,9.889,0.15570887900180902,1.2182564560747446,1.7830075187969927,0,0.05
1757395423.1682925,0.121,-0.172,9.889,0.15570887900180902,1.2182564560747446,1.7830075187969927,0,0.05
1757395423.1959004,0.121,-0.172,9.889,0.15570887900180902,1.2182564560747446,1.7830075187969927,0,0.05
1757395423.223546,0.147,-0.213,9.801,0.15588225524414254,1.5125767597485806,1.784310776942356,0,0.05
1757395423.2511177,0.096,-0.203,9.855,0.155956139667536,1.3053104431224458,1.7868671679197996,0,0.05
1757395423.2790408,0.096,-0.203,9.855,0.155956139667536,1.3053104431224458,1.7868671679197996,0,0.05
1757395423.306643,0.096,-0.203,9.855,0.155956139667536,1.3053104431224458,1.7868671679197996,0,0.05
1757395423.3341222,0.129,-0.249,9.782,0.15608946152767647,1.6421140402731231,1.7885213032581453,0,0.05
1757395423.3613,0.025,-0.254,9.771,0.15609446658994675,1.4962772943693663,1.7937343358395992,0,0.05
1757395423.3880458,0.025,-0.254,9.771,0.15609446658994675,1.4962772943693663,1.7937343358395992,0,0.05
1757395423.4153194,0.317,-0.274,9.606,0.1568971159709445,2.4976053409770156,1.8083709273182957,0,0.05
1757395423.4429598,0.317,-0.274,9.606,0.1568971159709445,2.4976053409770156,1.8083709273182957,0,0.05
1757395423.4700015,0.317,-0.274,9.606,0.1568971159709445,2.4976053409770156,1.8083709273182957,0,0.05
1757395423.4970658,0.153,-0.223,9.589,0.1570835048628595,1.6154954705381297,1.8165914786967416,0,0.05
1757395423.524095,0.261,-0.202,9.526,0.15762464908763477,1.984276376513159,1.8220050125313283,0,0.05
1757395423.5515265,0.261,-0.202,9.526,0.15762464908763477,1.984276376513159,1.8220050125313283,0,0.05
1757395423.5786633,0.258,-0.286,9.686,0.15815163609650076,2.27723480523288,1.8221553884711779,0,0.05
1757395423.606122,0.258,-0.286,9.686,0.15815163609650076,2.27723480523288,1.8221553884711779,0,0.05
1757395423.6331916,0.276,-0.119,9.559,0.15875257478226928,1.8009428977818975,1.8230576441102757,0,0.75
1757395423.6586223,0.276,-0.119,9.559,0.15875257478226928,1.8009428977818975,1.8230576441102757,0,0.75
1757395423.6852906,0.172,0.072,9.527,0.1589853452365972,1.121245923754509,1.8282706766917294,0,0.75
1757395423.712801,0.172,0.072,9.527,0.1589853452365972,1.121245923754509,1.8282706766917294,0,0.75
1757395423.7400665,0.251,-0.117,9.651,0.1594799125281927,1.643616655148845,1.8322305764411027,0,0.75
1757395423.767273,0.251,-0.117,9.651,0.1594799125281927,1.643616655148845,1.8322305764411027,0,0.75
1757395423.794556,0.206,-0.234,9.741,0.15981217882251653,1.8330998970774046,1.8344862155388473,0,0.75
1757395423.821683,0.206,-0.234,9.741,0.15981217882251653,1.8330998970774046,1.8344862155388473,0,0.75
1757395423.8486166,0.088,-0.145,9.643,0.15987273845155714,1.0076925936264765,1.8404010025062658,0,0.75
1757395423.8758054,0.088,-0.145,9.643,0.15987273845155714,1.0076925936264765,1.8404010025062658,0,0.75
1757395423.90203,0.28,-0.051,9.684,0.160484555331658,1.6834028191156132,1.8500250626566415,0,0.75
1757395423.9290707,0.28,-0.051,9.684,0.160484555331658,1.6834028191156132,1.8500250626566415,0,0.75
1757395423.956391,0.178,-0.057,9.734,0.160731149750134,1.1000080632494276,1.855137844611529,0,0.75
1757395423.9839754,0.178,-0.057,9.734,0.160731149750134,1.1000080632494276,1.855137844611529,0,0.75
1757395424.0113027,-0.014,-0.182,9.557,0.1607326740274049,1.094210152613322,1.8647619047619046,0,0.75
1757395424.0384758,-0.014,-0.182,9.557,0.1607326740274049,1.094210152613322,1.8647619047619046,0,0.75
1757395424.0656967,0.29,-0.406,9.688,0.16138538502603017,2.948144996817961,1.8799999999999997,0,0.75
1757395424.09397,0.29,-0.406,9.688,0.16138538502603017,2.948144996817961,1.8799999999999997,0,0.75
1757395424.1216536,0.036,-0.357,9.803,0.16139542279755023,2.096210946102449,1.892731829573935,0,0.75
1757395424.1487086,0.036,-0.357,9.803,0.16139542279755023,2.096210946102449,1.892731829573935,0,0.75
1757395424.1748478,0.134,-0.271,9.635,0.16153443131419382,1.7971917628247025,1.897644110275689,0,0.75
1757395424.2024105,0.134,-0.271,9.635,0.16153443131419382,1.7971917628247025,1.897644110275689,0,0.75
1757395424.229094,0.134,-0.274,9.814,0.16167332030981488,1.7801351883014658,1.897644110275689,0,0.75
1757395424.256373,0.134,-0.274,9.814,0.16167332030981488,1.7801351883014658,1.897644110275689,0,0.75
1757395424.2834017,0.124,-0.155,10.024,0.16179215833902458,1.1344319260934572,1.898145363408521,0,0.75
1757395424.3106844,0.124,-0.155,10.024,0.16179215833902458,1.1344319260934572,1.898145363408521,0,0.75
1757395424.3380196,0.027,0.065,9.893,0.16179779046699,0.4076292097740011,1.9030075187969924,0,0.75
1757395424.3642192,0.027,0.065,9.893,0.16179779046699,0.4076292097740011,1.9030075187969924,0,0.75
1757395424.3905156,0.335,-0.083,9.702,0.16266249567739946,2.0373220066871442,1.9184461152882206,0,0.75
1757395424.4170334,0.335,-0.083,9.702,0.16266249567739946,2.0373220066871442,1.9184461152882206,0,0.75
1757395424.444473,0.086,-0.238,9.904,0.16271932122523128,1.4636700145064088,1.9309273182957394,0,0.75
1757395424.472371,0.086,-0.238,9.904,0.16271932122523128,1.4636700145064088,1.9309273182957394,0,0.75
1757395424.500013,0.253,-0.061,9.794,0.16321029379300803,1.5221269821833048,1.9392982456140353,0,0.75
1757395424.5259602,0.253,-0.061,9.794,0.16321029379300803,1.5221269821833048,1.9392982456140353,0,0.75
1757395424.5542336,0.141,0.067,9.716,0.16336248804422637,0.9205036677398413,1.9449122807017543,0,0.2
1757395424.5827525,0.141,0.067,9.716,0.16336248804422637,0.9205036677398413,1.9449122807017543,0,0.2
1757395424.6103082,0.138,-0.112,9.827,0.16350814199910657,1.0361327360053747,1.9450626566416038,0,0.2
1757395424.638406,0.138,-0.112,9.827,0.16350814199910657,1.0361327360053747,1.9450626566416038,0,0.2
1757395424.6656127,0.242,-0.1,9.867,0.16395524541776638,1.5201402489196965,1.950275689223058,0,0.2
1757395424.6921895,0.242,-0.1,9.867,0.16395524541776638,1.5201402489196965,1.950275689223058,0,0.2
1757395424.7200234,0.146,-0.109,9.614,0.16411767881614706,1.0857152747342473,1.9550877192982457,0,0.2
1757395424.7480502,0.146,-0.109,9.614,0.16411767881614706,1.0857152747342473,1.9550877192982457,0,0.2
1757395424.775857,0.092,-0.173,9.889,0.16418213209725352,1.1351139352919817,1.957794486215539,0,0.2
1757395424.8024666,0.092,-0.173,9.889,0.16418213209725352,1.1351139352919817,1.957794486215539,0,0.2
1757395424.8303869,0.121,-0.302,9.854,0.16429356347708818,1.890982554026333,1.959248120300752,0,0.2
1757395424.8584356,0.121,-0.302,9.854,0.16429356347708818,1.890982554026333,1.959248120300752,0,0.2
1757395424.8860993,0.086,-0.228,9.569,0.16434982506835838,1.4587548785032098,1.9610025062656642,0,0.2
1757395424.9134324,0.086,-0.228,9.569,0.16434982506835838,1.4587548785032098,1.9610025062656642,0,0.2
1757395424.9411824,0.068,-0.326,9.727,0.16438499019071054,1.9608297764933726,1.9619047619047618,0,0.2
1757395424.9690056,0.068,-0.326,9.727,0.16438499019071054,1.9608297764933726,1.9619047619047618,0,0.2
1757395424.9963188,0.131,-0.15,9.816,0.164515432406811,1.1622788514748152,1.9650626566416038,0,0.2
1757395425.0234587,0.131,-0.15,9.816,0.164515432406811,1.1622788514748152,1.9650626566416038,0,0.2
1757395425.0507386,-0.121,-0.139,9.774,0.1646266381847118,1.0801783525635855,1.9776942355889722,0,0.2
1757395425.078029,-0.121,-0.139,9.774,0.1646266381847118,1.0801783525635855,1.9776942355889722,0,0.2
1757395425.1052856,0.078,-0.14,9.699,0.1646728271452215,0.946645736766257,1.9876691729323306,0,0.2
1757395425.1331773,0.078,-0.14,9.699,0.1646728271452215,0.946645736766257,1.9876691729323306,0,0.2
1757395425.1603386,0.1,-0.25,9.817,0.16474871774918312,1.5711005341442392,1.9887719298245614,0,0.2
1757395425.1884518,0.1,-0.25,9.817,0.16474871774918312,1.5711005341442392,1.9887719298245614,0,0.2
1757395425.2171896,0.038,-0.277,9.776,0.16475967346410952,1.6382171135726267,1.99187969924812,0,0.2
1757395425.2456436,0.038,-0.277,9.776,0.16475967346410952,1.6382171135726267,1.99187969924812,0,0.2
1757395425.2731423,-0.065,-0.183,9.736,0.16479172461018787,1.1427093419419878,1.9970426065162905,0,0.2
1757395425.3007414,-0.065,-0.183,9.736,0.16479172461018787,1.1427093419419878,1.9970426065162905,0,0.2
1757395425.3277373,0.151,-0.105,9.771,0.16496458710887013,1.078344826064449,2.007869674185464,0,0.2
1757395425.3555133,0.026,-0.112,9.777,0.16496970934083627,0.6737716371326766,2.0141353383458642,0,0.2
1757395425.3823917,0.026,-0.112,9.777,0.16496970934083627,0.6737716371326766,2.0141353383458642,0,0.2
1757395425.4087956,0.026,-0.112,9.777,0.16496970934083627,0.6737716371326766,2.0141353383458642,0,0.2
1757395425.4367163,0.062,-0.25,9.791,0.16499883332920873,1.5069410074912646,2.0159398496240604,0,0.2
1757395425.464212,0.062,-0.25,9.791,0.16499883332920873,1.5069410074912646,2.0159398496240604,0,0.2
1757395425.4921231,0.095,-0.166,9.792,0.16506719086481117,1.1189837851733122,2.017593984962406,0,0.2
1757395425.5198135,0.138,-0.171,9.747,0.1652113419230048,1.2914697104786348,2.0197493734335836,0,0.2
1757395425.5472953,0.138,-0.171,9.747,0.1652113419230048,1.2914697104786348,2.0197493734335836,0,0.2
1757395425.5747337,0.11,-0.151,9.634,0.16530286597636473,1.1109141499180988,2.021152882205514,0,0.2
1757395425.6023974,0.11,-0.151,9.634,0.16530286597636473,1.1109141499180988,2.021152882205514,0,0.2
1757395425.6299582,-0.017,-0.163,9.849,0.16530505134447646,0.9532948618490492,2.027518796992481,0,0.2
1757395425.6577654,-0.017,-0.163,9.849,0.16530505134447646,0.9532948618490492,2.027518796992481,0,0.2
1757395425.6843557,0.065,0.086,9.759,0.16533699676720878,0.6328800439371732,2.031629072681704,0,0.2
1757395425.7117774,0.065,0.086,9.759,0.16533699676720878,0.6328800439371732,2.031629072681704,0,0.2
1757395425.7394562,0.005,0.11,9.669,0.1653371857750095,0.6524739419323725,2.0346365914786966,0,0.2
1757395425.7662892,0.005,0.11,9.669,0.1653371857750095,0.6524739419323725,2.0346365914786966,0,0.2
1757395425.792758,-0.096,-0.006,9.714,0.1654068468957679,0.56732007547439,2.0396992481203005,0,0.2
1757395425.8199692,-0.096,-0.006,9.714,0.1654068468957679,0.56732007547439,2.0396992481203005,0,0.2
1757395425.8467448,0.012,0.124,9.816,0.16540793511799848,0.7271275922293319,2.045112781954887,0,0.2
1757395425.8740523,0.012,0.124,9.816,0.16540793511799848,0.7271275922293319,2.045112781954887,0,0.2
1757395425.9005039,0.007,0.087,9.698,0.16540830541420826,0.5156431009509691,2.036942355889724,0,0.2
1757395425.9279673,0.007,0.087,9.698,0.16540830541420826,0.5156431009509691,2.036942355889724,0,0.2
1757395425.9562654,0.125,0.005,9.555,0.16531306663418957,0.750108866026988,2.0420551378446112,0,0.2
1757395425.9841683,0.125,0.005,9.555,0.16531306663418957,0.750108866026988,2.0420551378446112,0,0.2
1757395426.012269,-0.02,0.031,9.807,0.16505989821879813,0.21553284975828738,2.0487719298245612,0,0.2
1757395426.0404549,-0.02,0.031,9.807,0.16505989821879813,0.21553284975828738,2.0487719298245612,0,0.2
1757395426.067604,0.203,0.164,9.773,0.1650840089166725,1.5296111433982813,2.0591979949874686,0,0.2
1757395426.0948775,0.203,0.164,9.773,0.1650840089166725,1.5296111433982813,2.0591979949874686,0,0.2
1757395426.1225605,-0.221,0.198,9.766,0.16511990340355703,1.7403022250414275,2.079598997493734,0,0.2
1757395426.1498342,-0.221,0.198,9.766,0.16511990340355703,1.7403022250414275,2.079598997493734,0,0.2
1757395426.1758797,0.119,0.182,9.725,0.16483677532638158,1.280921032250693,2.096390977443609,0,0.2
1757395426.2029264,0.119,0.182,9.725,0.16483677532638158,1.280921032250693,2.096390977443609,0,0.2
1757395426.2302132,-0.093,0.177,9.67,0.16449384486964855,1.1845265790190858,2.1061152882205514,0,0.2
1757395426.257807,-0.093,0.177,9.67,0.16449384486964855,1.1845265790190858,2.1061152882205514,0,0.2
1757395426.28523,-0.006,0.099,9.609,0.16414574316746688,0.591371447846235,2.110275689223058,0,0.2
1757395426.312517,-0.006,0.099,9.609,0.16414574316746688,0.591371447846235,2.110275689223058,0,0.2
1757395426.3399138,0.044,-0.025,9.776,0.16382434190314943,0.296593992059171,2.112681704260652,0,0.2
1757395426.3671954,0.044,-0.025,9.776,0.16382434190314943,0.296593992059171,2.112681704260652,0,0.2
1757395426.394121,-0.05,-0.017,9.881,0.16351301171466448,0.3062258543522213,2.1170426065162906,0,0.2
1757395426.4215248,-0.05,-0.017,9.881,0.16351301171466448,0.3062258543522213,2.1170426065162906,0,0.2
1757395426.4489944,0.016,0.056,9.746,0.16320582863366126,0.3423883487704848,2.1191979949874686,0,0.2
1757395426.4758668,0.016,0.056,9.746,0.16320582863366126,0.3423883487704848,2.1191979949874686,0,0.2
1757395426.5028524,-0.042,-0.07,9.811,0.1629765090434815,0.47672379404856674,2.12140350877193,0,0.2
1757395426.530241,-0.042,-0.07,9.811,0.1629765090434815,0.47672379404856674,2.12140350877193,0,0.2
1757395426.5578709,0.171,-0.21,9.803,0.162994493772029,1.5824376155211797,2.1317293233082704,0,0.2
1757395426.5859735,0.171,-0.21,9.803,0.162994493772029,1.5824376155211797,2.1317293233082704,0,0.2
1757395426.61413,-0.015,-0.261,9.792,0.1628070790844182,1.5293420210251445,2.1401503759398497,0,0.2
1757395426.6413999,-0.015,-0.261,9.792,0.1628070790844182,1.5293420210251445,2.1401503759398497,0,0.2
1757395426.6676347,0.055,-0.2,9.673,0.16268191356140363,1.2284439053438299,2.143157894736842,0,0.2
1757395426.6946151,0.055,-0.2,9.673,0.16268191356140363,1.2284439053438299,2.143157894736842,0,0.2
1757395426.7219205,0.167,-0.163,9.835,0.16276831694159646,1.359244637742751,2.1478195488721803,0,0.2
1757395426.7491207,0.167,-0.163,9.835,0.16276831694159646,1.359244637742751,2.1478195488721803,0,0.2
1757395426.7760913,0.254,-0.164,9.735,0.16317035576353936,1.7788884090858643,2.151478696741854,0,0.2
1757395426.803399,0.254,-0.164,9.735,0.16317035576353936,1.7788884090858643,2.151478696741854,0,0.2
1757395426.8308234,-0.123,0.059,9.883,0.1632156472278317,0.7908232764489914,2.169122807017544,0,0.2
1757395426.8583431,-0.123,0.059,9.883,0.1632156472278317,0.7908232764489914,2.169122807017544,0,0.2
1757395426.8851843,-0.071,0.106,10.176,0.1632156472278317,0.7183067739835819,2.1712280701754385,0,0.2
1757395426.911552,-0.071,0.106,10.176,0.1632156472278317,0.7183067739835819,2.1712280701754385,0,0.2
1757395426.93833,-0.129,-0.035,10.037,0.1632928274603634,0.7629686646344597,2.173934837092732,0,0.2
1757395426.9657786,-0.129,-0.035,10.037,0.1632928274603634,0.7629686646344597,2.173934837092732,0,0.2
1757395426.9931462,0.017,-0.16,9.889,0.16323972402574075,0.9321580907502214,2.1811027568922308,0,0.2
1757395427.0200212,0.017,-0.16,9.889,0.16323972402574075,0.9321580907502214,2.1811027568922308,0,0.2
1757395427.0472608,0.079,0.066,9.906,0.16322821447286617,0.5953880907322084,2.183759398496241,0,0.2
1757395427.074202,0.079,0.066,9.906,0.16322821447286617,0.5953880907322084,2.183759398496241,0,0.2
1757395427.1021981,-0.073,-0.071,9.982,0.16319696688357904,0.5844930876351792,2.191077694235589,0,0.2
1757395427.130103,-0.073,-0.071,9.982,0.16319696688357904,0.5844930876351792,2.191077694235589,0,0.2
1757395427.157529,-0.073,-0.071,9.982,0.16319696688357904,0.5844930876351792,2.191077694235589,0,0.2
1757395427.184577,0.09,-0.001,9.898,0.16317774817664324,0.5209937688328959,2.1981954887218045,0,0.2
1757395427.212294,0.3,-0.101,9.811,0.16374839693871818,1.8479693088046998,2.208471177944862,0,0.2
1757395427.2398472,0.3,-0.101,9.811,0.16374839693871818,1.8479693088046998,2.208471177944862,0,0.2
1757395427.2663512,0.2,-0.334,9.77,0.1639266146786421,2.281838705612971,2.2132330827067666,0,0.2
1757395427.2936947,0.2,-0.334,9.77,0.1639266146786421,2.281838705612971,2.2132330827067666,0,0.2
1757395427.3210914,0.238,-0.128,9.701,0.16422135975566637,1.5956532932736098,2.214436090225564,0,0.2
1757395427.348722,0.238,-0.128,9.701,0.16422135975566637,1.5956532932736098,2.214436090225564,0,0.2
1757395427.3759627,0.068,-0.219,9.779,0.1640897772562325,1.3433201836514896,2.2216040100250627,0,0.2
1757395427.4028506,0.068,-0.219,9.779,0.1640897772562325,1.3433201836514896,2.2216040100250627,0,0.2
1757395427.4300153,0.185,-0.13,9.835,0.16411719897682875,1.3170080544507967,2.2264160401002506,0,0.2
1757395427.4571047,0.185,-0.13,9.835,0.16411719897682875,1.3170080544507967,2.2264160401002506,0,0.2
1757395427.4838827,0.174,-0.182,9.729,0.16405518888471649,1.482525325077639,2.226616541353383,0,0.2
1757395427.5111933,0.174,-0.182,9.729,0.16405518888471649,1.482525325077639,2.226616541353383,0,0.2
1757395427.5379343,0.026,-0.147,9.74,0.16374606102132655,0.8780838550236377,2.2334335839598993,0,0.2
1757395427.5654194,0.026,-0.147,9.74,0.16374606102132655,0.8780838550236377,2.2334335839598993,0,0.2
1757395427.592805,0.076,-0.206,9.931,0.16343699091698918,1.266591217189344,2.2357894736842105,0,0.2
1757395427.620708,0.076,-0.206,9.931,0.16343699091698918,1.266591217189344,2.2357894736842105,0,0.2
1757395427.6482608,0.113,-0.371,9.93,0.16317096095813127,2.236614128192411,2.237644110275689,0,0.2
1757395427.6756432,0.113,-0.371,9.93,0.16317096095813127,2.236614128192411,2.237644110275689,0,0.2
1757395427.7025423,0.22,-0.469,9.737,0.16317767157304336,3.0454249574481587,2.2424561403508774,0,0.2
1757395427.7300167,0.22,-0.469,9.737,0.16317767157304336,3.0454249574481587,2.2424561403508774,0,0.2
1757395427.7565382,0.338,-0.389,9.813,0.16372366963881552,3.006128159042704,2.2483208020050123,0,0.2
1757395427.7831736,0.338,-0.389,9.813,0.16372366963881552,3.006128159042704,2.2483208020050123,0,0.2
1757395427.8093526,0.327,-0.382,9.756,0.16421532358461557,2.9505349091879842,2.2480701754385963,0,0.2
1757395427.8367305,0.327,-0.382,9.756,0.16421532358461557,2.9505349091879842,2.2480701754385963,0,0.2
1757395427.8641462,0.428,-0.369,9.585,0.16533112985762843,3.3741014296283507,2.252832080200501,0,0.2
1757395427.8916411,0.428,-0.369,9.585,0.16533112985762843,3.3741014296283507,2.252832080200501,0,0.2
1757395427.9192996,0.195,-0.2,9.677,0.16536264693091968,1.6534010331208835,2.2636591478696744,0,0.2
1757395427.9467382,0.267,-0.282,9.712,0.16569038897896282,2.2898236885283882,2.2667669172932334,0,0.2
1757395427.9734588,0.267,-0.282,9.712,0.16569038897896282,2.2898236885283882,2.2667669172932334,0,0.2
1757395428.0001016,0.267,-0.282,9.712,0.16569038897896282,2.2898236885283882,2.2667669172932334,0,0.2
1757395428.028386,0.184,-0.21,9.532,0.1657598337957661,1.6777962206995092,2.2705263157894735,0,0.2
1757395428.0561965,0.044,-0.057,9.721,0.16560694429884273,0.4244026888241015,2.2772431077694235,0,0.2
1757395428.084824,0.044,-0.057,9.721,0.16560694429884273,0.4244026888241015,2.2772431077694235,0,0.2
1757395428.1131341,-0.007,-0.032,9.882,0.16545289359814774,0.18992234030262758,2.279097744360902,0,0.2
1757395428.1407077,-0.007,-0.032,9.882,0.16545289359814774,0.18992234030262758,2.279097744360902,0,0.2
1757395428.1684194,0.013,-0.161,9.695,0.1653284004640461,0.9544906543233129,2.2791478696741856,0,0.2
1757395428.19606,0.013,-0.161,9.695,0.1653284004640461,0.9544906543233129,2.2791478696741856,0,0.2
1757395428.223832,0.015,-0.191,9.635,0.1652385926471174,1.139153407930492,2.2781954887218046,0,0.2
1757395428.2505918,0.015,-0.191,9.635,0.1652385926471174,1.139153407930492,2.2781954887218046,0,0.2
1757395428.2776294,0.032,0.091,9.818,0.1651864098526268,0.5629162936906926,2.278847117794486,0,0.2
1757395428.305017,0.032,0.091,9.818,0.1651864098526268,0.5629162936906926,2.278847117794486,0,0.2
1757395428.3329604,-0.018,-0.112,9.665,0.16513418028984794,0.6724443660368806,2.2809022556390977,0,0.2
1757395428.3605917,-0.018,-0.112,9.665,0.16513418028984794,0.6724443660368806,2.2809022556390977,0,0.2
1757395428.3877964,-0.018,-0.112,9.665,0.16513418028984794,0.6724443660368806,2.2809022556390977,0,0.2
1757395428.415399,-0.028,-0.05,9.635,0.16509638851289268,0.3407747176439216,2.2808020050125313,0,0.2
1757395428.4428685,0.046,0.015,9.682,0.16505377154127682,0.2863219517233645,2.284310776942356,0,0.2
1757395428.4703271,0.046,0.015,9.682,0.16505377154127682,0.2863219517233645,2.284310776942356,0,0.2
1757395428.4972885,0.034,0.029,9.553,0.16500908308332604,0.2680209358590905,2.2845112781954886,0,0.2
1757395428.5239387,0.034,0.029,9.553,0.16500908308332604,0.2680209358590905,2.2845112781954886,0,0.2
1757395428.5512466,0.211,-0.062,9.49,0.16528200143996322,1.3275298374441176,2.293383458646616,0,0.2
1757395428.5792825,0.211,-0.062,9.49,0.16528200143996322,1.3275298374441176,2.293383458646616,0,0.2
1757395428.606725,0.186,-0.052,9.59,0.16547951534857722,1.1537181858914127,2.2945363408521304,0,0.2
1757395428.6334124,0.186,-0.052,9.59,0.16547951534857722,1.1537181858914127,2.2945363408521304,0,0.2
1757395428.6609154,0.194,-0.116,9.671,0.16569692211987525,1.338901531710072,2.2944862155388472,0,0.2
1757395428.688444,0.194,-0.116,9.671,0.16569692211987525,1.338901531710072,2.2944862155388472,0,0.2
1757395428.7159991,0.298,-0.158,9.374,0.1662857705878648,2.0607268158072722,2.2992481203007515,0,0.2
1757395428.7442055,0.298,-0.158,9.374,0.1662857705878648,2.0607268158072722,2.2992481203007515,0,0.2
1757395428.7716994,0.349,-0.133,9.583,0.16710505677567034,2.231890775162858,2.301002506265664,0,0.2
1757395428.7988374,0.349,-0.133,9.583,0.16710505677567034,2.231890775162858,2.301002506265664,0,0.2
1757395428.8265285,0.188,0.024,9.655,0.16724682358717607,1.1245602943695143,2.3084210526315787,0,0.2
1757395428.85444,0.188,0.024,9.655,0.16724682358717607,1.1245602943695143,2.3084210526315787,0,0.2
1757395428.8811786,0.149,-0.158,9.589,0.16726416233012975,1.297433158093792,2.3089724310776942,0,0.2
1757395428.9080453,0.149,-0.158,9.589,0.16726416233012975,1.297433158093792,2.3089724310776942,0,0.2
1757395428.9355326,0.048,-0.154,9.764,0.16706782305399207,0.946474683248394,2.3134335839598994,0,0.2
1757395428.9630353,0.048,-0.154,9.764,0.16706782305399207,0.946474683248394,2.3134335839598994,0,0.2
1757395428.9903903,-0.016,-0.226,9.853,0.16682444365260146,1.3172606405551375,2.3160902255639093,0,0.2
1757395429.018053,-0.016,-0.226,9.853,0.16682444365260146,1.3172606405551375,2.3160902255639093,0,0.2
1757395429.0455077,-0.247,-0.353,9.683,0.16700526189315112,2.5476302624944527,2.3275187969924813,0,0.2
1757395429.0730412,-0.247,-0.353,9.683,0.16700526189315112,2.5476302624944527,2.3275187969924813,0,0.2
1757395429.099396,0.019,-0.295,9.664,0.16674038952815243,1.752069148947515,2.3405012531328317,0,0.2
1757395429.1270204,0.019,-0.295,9.664,0.16674038952815243,1.752069148947515,2.3405012531328317,0,0.2
1757395429.153567,-0.101,-0.422,9.931,0.1665287362589412,2.5018505834156026,2.345764411027569,0,0.2
1757395429.1804526,-0.101,-0.422,9.931,0.1665287362589412,2.5018505834156026,2.345764411027569,0,0.2
1757395429.2076795,0.083,-0.206,9.725,0.16633442217412486,1.3082510312142042,2.354837092731829,0,0.2
1757395429.2348824,0.083,-0.206,9.725,0.16633442217412486,1.3082510312142042,2.354837092731829,0,0.2
1757395429.2618663,0.068,-0.113,9.641,0.1661309423316439,0.7837196054990901,2.3551378446115288,0,0.2
1757395429.2893014,0.068,-0.113,9.641,0.1661309423316439,0.7837196054990901,2.3551378446115288,0,0.2
1757395429.3163483,0.122,-0.258,9.801,0.1660280021562628,1.6678990288946662,2.3574436090225563,0,0.2
1757395429.343672,0.122,-0.258,9.801,0.1660280021562628,1.6678990288946662,2.3574436090225563,0,0.2
1757395429.3702662,0.087,-0.331,9.877,0.16588977515205694,1.9845311863582167,2.35859649122807,0,0.2
1757395429.396843,0.087,-0.331,9.877,0.16588977515205694,1.9845311863582167,2.35859649122807,0,0.2
1757395429.423851,-0.002,-0.312,9.796,0.16572243360510971,1.8242761523615854,2.36265664160401,0,0.2
1757395429.4512937,-0.002,-0.312,9.796,0.16572243360510971,1.8242761523615854,2.36265664160401,0,0.2
1757395429.4787443,0.039,-0.322,9.908,0.16558389112471056,1.8749934526491014,2.354436090225564,0,0.2
1757395429.5060246,0.039,-0.322,9.908,0.16558389112471056,1.8749934526491014,2.354436090225564,0,0.2
1757395429.533508,0.239,-0.274,9.919,0.16511068257384195,2.099283740295766,2.350426065162907,0,0.2
1757395429.5608501,0.239,-0.274,9.919,0.16511068257384195,2.099283740295766,2.350426065162907,0,0.2
1757395429.5879989,-0.131,-0.241,9.819,0.16520759667763465,1.600193858841082,2.339799498746867,0,0.2
1757395429.615386,-0.131,-0.241,9.819,0.16520759667763465,1.600193858841082,2.339799498746867,0,0.2
1757395429.642116,-0.153,-0.081,9.954,0.1621798769884846,0.996379045055565,2.325864661654135,0,1.0
1757395429.6692624,-0.153,-0.081,9.954,0.1621798769884846,0.996379045055565,2.325864661654135,0,1.0
1757395429.6963542,-0.001,-0.099,9.994,0.16124377507364432,0.567579145840773,2.3284210526315787,0,0.30000000000000004
1757395429.7240584,-0.001,-0.099,9.994,0.16124377507364432,0.567579145840773,2.3284210526315787,0,0.30000000000000004
1757395429.7515085,-0.192,-0.252,9.907,0.15996159695376888,1.8315978784185878,2.3340852130325813,0,0.30000000000000004
1757395429.7789402,-0.192,-0.252,9.907,0.15996159695376888,1.8315978784185878,2.3340852130325813,0,0.30000000000000004
1757395429.8063092,-0.117,-0.034,9.995,0.1589900389961585,0.6984067441303778,2.3275689223057645,0,0.30000000000000004
1757395429.8332837,-0.117,-0.034,9.995,0.1589900389961585,0.6984067441303778,2.3275689223057645,0,0.30000000000000004
1757395429.8606107,-0.293,-0.036,10.102,0.15944768734603834,1.6738361012902314,2.3268170426065162,0,0.30000000000000004
1757395429.8871405,-0.293,-0.036,10.102,0.15944768734603834,1.6738361012902314,2.3268170426065162,0,0.30000000000000004
1757395429.9142091,0.002,-0.055,9.954,0.15944281890383147,0.31678908329554367,2.3311779448621555,0,0.30000000000000004
1757395429.9414763,0.002,-0.055,9.954,0.15944281890383147,0.31678908329554367,2.3311779448621555,0,0.30000000000000004
1757395429.9686217,-0.05,0.122,9.892,0.15919968592933845,0.7636382345384604,2.323659147869674,0,0.30000000000000004
1757395429.9960804,-0.05,0.122,9.892,0.15919968592933845,0.7636382345384604,2.323659147869674,0,0.30000000000000004
1757395430.023685,-0.193,0.004,9.99,0.15948905918588896,1.1070153962531057,2.317844611528822,0,0.30000000000000004
1757395430.0511456,-0.193,0.004,9.99,0.15948905918588896,1.1070153962531057,2.317844611528822,0,0.30000000000000004
1757395430.0792382,-0.094,0.059,9.914,0.15910641093306077,0.6413691230197175,2.3177944862155386,0,0.30000000000000004
1757395430.1065366,-0.094,0.059,9.914,0.15910641093306077,0.6413691230197175,2.3177944862155386,0,0.30000000000000004
1757395430.1342738,0.181,0.102,9.713,0.15920977513959375,1.2253746577643327,2.326967418546366,0,0.30000000000000004
1757395430.160429,0.181,0.102,9.713,0.15920977513959375,1.2253746577643327,2.326967418546366,0,0.30000000000000004
1757395430.1871316,0.041,0.134,9.781,0.15879985831227936,0.8208186800602384,2.329724310776942,0,0.30000000000000004
1757395430.2144816,0.041,0.134,9.781,0.15879985831227936,0.8208186800602384,2.329724310776942,0,0.30000000000000004
1757395430.2415423,0.103,0.083,9.704,0.15871324771423462,0.7809786346164053,2.3314786967418546,0,0.30000000000000004
1757395430.268404,0.103,0.083,9.704,0.15871324771423462,0.7809786346164053,2.3314786967418546,0,0.30000000000000004
1757395430.2962816,0.005,-0.028,9.668,0.158599992118537,0.16856173722024745,2.3342355889724313,0,0.30000000000000004
1757395430.323865,0.005,-0.028,9.668,0.158599992118537,0.16856173722024745,2.3342355889724313,0,0.30000000000000004
1757395430.3513393,0.122,0.091,9.64,0.15850787046705284,0.9045356089748094,2.330877192982456,0,0.30000000000000004
1757395430.377919,0.122,0.091,9.64,0.15850787046705284,0.9045356089748094,2.330877192982456,0,0.30000000000000004
1757395430.4046845,0.205,-0.225,9.674,0.15883546518331476,1.8021710382490155,2.323609022556391,0,0.30000000000000004
1757395430.4321063,0.187,-0.13,9.557,0.15877343921449832,1.3651261740431277,2.323107769423559,0,0.30000000000000004
1757395430.4596605,0.187,-0.13,9.557,0.15877343921449832,1.3651261740431277,2.323107769423559,0,0.30000000000000004
1757395430.486855,0.223,-0.026,9.689,0.15891263322970897,1.3274029421066775,2.323859649122807,0,0.30000000000000004
1757395430.5131807,0.223,-0.026,9.689,0.15891263322970897,1.3274029421066775,2.323859649122807,0,0.30000000000000004
1757395430.5391834,0.31,0.041,9.695,0.15947120429720218,1.8473599545368138,2.316390977443609,0,0.30000000000000004
1757395430.566671,0.31,0.041,9.695,0.15947120429720218,1.8473599545368138,2.316390977443609,0,0.30000000000000004
1757395430.5945034,0.31,0.041,9.695,0.15947120429720218,1.8473599545368138,2.316390977443609,0,0.30000000000000004
1757395430.6219037,0.095,0.006,9.541,0.15832099513330505,0.5716133890109975,2.3150877192982455,0,0.30000000000000004
1757395430.6490476,0.235,-0.115,9.542,0.15857199469010913,1.5705839303369582,2.3128822055137843,0,0.30000000000000004
1757395430.676436,0.235,-0.115,9.542,0.15857199469010913,1.5705839303369582,2.3128822055137843,0,0.30000000000000004
1757395430.7036238,0.194,-0.058,9.606,0.15797229187423978,1.207557079864243,2.313233082706767,0,0.30000000000000004
1757395430.7300842,0.194,-0.058,9.606,0.15797229187423978,1.207557079864243,2.313233082706767,0,0.30000000000000004
1757395430.7571695,0.023,-0.266,9.701,0.1572483545223924,1.5765058470577946,2.3216040100250623,0,0.30000000000000004
1757395430.7836194,0.023,-0.266,9.701,0.1572483545223924,1.5765058470577946,2.3216040100250623,0,0.30000000000000004
1757395430.8115067,0.023,-0.266,9.701,0.1572483545223924,1.5765058470577946,2.3216040100250623,0,0.30000000000000004
1757395430.8388972,0.32,-0.19,9.484,0.1573516523586581,2.2471559464219544,2.324210526315789,0,0.30000000000000004
1757395430.8656967,0.126,-0.259,9.865,0.15745457281387543,1.672355895528779,2.3255137844611524,0,0.30000000000000004
1757395430.892605,0.126,-0.259,9.865,0.15745457281387543,1.672355895528779,2.3255137844611524,0,0.30000000000000004
1757395430.9194088,0.126,-0.259,9.865,0.15745457281387543,1.672355895528779,2.3255137844611524,0,0.30000000000000004
1757395430.9468918,0.193,-0.262,9.964,0.1573590003781163,1.8705451933892014,2.3240100250626567,0,0.30000000000000004
1757395430.9744935,0.072,-0.303,9.797,0.15658995018838215,1.8207633111459005,2.3180451127819546,0,0.30000000000000004
1757395431.0019932,0.072,-0.303,9.797,0.15658995018838215,1.8207633111459005,2.3180451127819546,0,0.30000000000000004
1757395431.0295224,0.048,-0.19,9.888,0.15655851941047474,1.1353912756676428,2.316390977443609,0,0.30000000000000004
1757395431.057053,0.048,-0.19,9.888,0.15655851941047474,1.1353912756676428,2.316390977443609,0,0.30000000000000004
1757395431.0844707,0.186,-0.083,9.811,0.15683064113877745,1.1893030256336081,2.319047619047619,0,0.30000000000000004
1757395431.11203,0.186,-0.083,9.811,0.15683064113877745,1.1893030256336081,2.319047619047619,0,0.30000000000000004
1757395431.1396182,-0.047,-0.274,9.732,0.15675697751615397,1.6362514755488735,2.3303258145363404,0,0.30000000000000004
1757395431.1669142,-0.047,-0.274,9.732,0.15675697751615397,1.6362514755488735,2.3303258145363404,0,0.30000000000000004
1757395431.194416,-0.12,-0.194,9.93,0.15679364623606404,1.3159789978010543,2.3319298245614033,0,0.30000000000000004
1757395431.2211418,-0.12,-0.194,9.93,0.15679364623606404,1.3159789978010543,2.3319298245614033,0,0.30000000000000004
1757395431.2477214,-0.142,0.046,9.984,0.15692752307992375,0.8565314212735914,2.328120300751879,0,0.30000000000000004
1757395431.2749972,-0.142,0.046,9.984,0.15692752307992375,0.8565314212735914,2.328120300751879,0,0.30000000000000004
1757395431.3018725,-0.125,-0.04,9.751,0.15685812060585197,0.7711287013056431,2.320952380952381,0,0.7000000000000001
1757395431.3301127,-0.125,-0.04,9.751,0.15685812060585197,0.7711287013056431,2.320952380952381,0,0.7000000000000001
1757395431.3583145,-0.15,0.182,9.72,0.1570371930467429,1.3899598878761255,2.319047619047619,0,0.7000000000000001
1757395431.3856347,-0.15,0.182,9.72,0.1570371930467429,1.3899598878761255,2.319047619047619,0,0.7000000000000001
1757395431.4129217,0.157,0.141,9.636,0.157197582678615,1.2545349854436465,2.334285714285714,0,0.7000000000000001
1757395431.4398804,0.157,0.141,9.636,0.157197582678615,1.2545349854436465,2.334285714285714,0,0.7000000000000001
1757395431.4671478,0.052,0.057,9.621,0.15718011960804712,0.4594741141244317,2.3349874686716787,0,0.7000000000000001
1757395431.4938278,0.052,0.057,9.621,0.15718011960804712,0.4594741141244317,2.3349874686716787,0,0.7000000000000001
1757395431.5198073,0.112,0.057,9.681,0.15727634119599807,0.7437215016607325,2.3364912280701753,0,0.30000000000000004
1757395431.5471847,0.112,0.057,9.681,0.15727634119599807,0.7437215016607325,2.3364912280701753,0,0.30000000000000004
1757395431.5748122,-0.01,0.097,9.731,0.1572764922040163,0.5741403198528469,2.332832080200501,0,0.30000000000000004
1757395431.6026511,-0.01,0.097,9.731,0.1572764922040163,0.5741403198528469,2.332832080200501,0,0.30000000000000004
1757395431.6309927,-0.005,-0.023,9.766,0.15700148884644374,0.1380892764187131,2.323709273182957,0,0.7000000000000001
1757395431.6587305,-0.005,-0.023,9.766,0.15700148884644374,0.1380892764187131,2.323709273182957,0,0.7000000000000001
1757395431.6862407,0.122,-0.004,9.57,0.15711993826373533,0.7307692739189051,2.3241102756892227,0,0.7000000000000001
1757395431.7137754,0.122,-0.004,9.57,0.15711993826373533,0.7307692739189051,2.3241102756892227,0,0.7000000000000001
1757395431.7409441,0.198,0.019,9.503,0.15732092994894228,1.1990963371128764,2.31859649122807,0,0.7000000000000001
1757395431.7674031,0.198,0.019,9.503,0.15732092994894228,1.1990963371128764,2.31859649122807,0,0.7000000000000001
1757395431.7943537,0.139,0.061,9.531,0.15673907457937858,0.9124467586301293,2.312330827067669,0,0.7000000000000001
1757395431.8206892,0.139,0.061,9.531,0.15673907457937858,0.9124467586301293,2.312330827067669,0,0.7000000000000001
1757395431.8479846,0.015,-0.15,9.557,0.15662598762657493,0.9036848008006341,2.3141854636591477,0,0.30000000000000004
1757395431.8742502,0.015,-0.15,9.557,0.15662598762657493,0.9036848008006341,2.3141854636591477,0,0.30000000000000004
1757395431.9023864,0.288,-0.065,9.53,0.15694565142112094,1.774483141074651,2.320952380952381,0,0.7000000000000001
1757395431.9296339,0.288,-0.065,9.53,0.15694565142112094,1.774483141074651,2.320952380952381,0,0.7000000000000001
1757395431.956802,0.03,0.011,9.633,0.15600200319226673,0.1900519589190989,2.3193483709273184,0,0.30000000000000004
1757395431.9837902,0.03,0.011,9.633,0.15600200319226673,0.1900519589190989,2.3193483709273184,0,0.30000000000000004
1757395432.011398,0.131,-0.132,9.696,0.15611522987844587,1.0988051049343412,2.3172431077694235,0,0.30000000000000004
1757395432.0390716,0.131,-0.132,9.696,0.15611522987844587,1.0988051049343412,2.3172431077694235,0,0.30000000000000004
1757395432.0663977,0.169,-0.104,9.794,0.15602998910465898,1.1607118783318588,2.3182456140350873,0,0.30000000000000004
1757395432.0943725,0.169,-0.104,9.794,0.15602998910465898,1.1607118783318588,2.3182456140350873,0,0.30000000000000004
1757395432.1219249,0.105,-0.133,9.937,0.15585865391437204,0.9769494649955127,2.320701754385965,0,0.30000000000000004
1757395432.149647,0.105,-0.133,9.937,0.15585865391437204,0.9769494649955127,2.320701754385965,0,0.30000000000000004
1757395432.177382,0.082,-0.173,9.739,0.15560741466909603,1.126178149149534,2.3183959899749373,0,0.30000000000000004
1757395432.2049575,0.082,-0.173,9.739,0.15560741466909603,1.126178149149534,2.3183959899749373,0,0.30000000000000004
1757395432.23254,0.144,-0.084,9.684,0.15564645032894261,0.986245094590385,2.31874686716792,0,0.30000000000000004
1757395432.2600808,0.144,-0.084,9.684,0.15564645032894261,0.986245094590385,2.31874686716792,0,0.30000000000000004
1757395432.2873688,0.208,-0.102,9.634,0.15573077730493737,1.3774949307225095,2.319498746867168,0,0.30000000000000004
1757395432.3147924,0.208,-0.102,9.634,0.15573077730493737,1.3774949307225095,2.319498746867168,0,0.30000000000000004
1757395432.341697,0.134,-0.223,9.661,0.15573504743634298,1.5425591235127916,2.3152882205513783,0,0.30000000000000004
1757395432.3691359,0.134,-0.223,9.661,0.15573504743634298,1.5425591235127916,2.3152882205513783,0,0.30000000000000004
1757395432.396444,0.149,-0.026,9.483,0.1552374230010277,0.91377567882973,2.299749373433584,0,0.30000000000000004
1757395432.423808,0.149,-0.026,9.483,0.1552374230010277,0.91377567882973,2.299749373433584,0,0.30000000000000004
1757395432.4514,0.108,-0.051,9.6,0.15532145698518282,0.7127953886568709,2.298897243107769,0,0.30000000000000004
1757395432.4780297,0.108,-0.051,9.6,0.15532145698518282,0.7127953886568709,2.298897243107769,0,0.30000000000000004
1757395432.5053313,0.095,-0.108,9.563,0.15538981626863452,0.861718624268895,2.2968421052631576,0,0.30000000000000004
1757395432.5324128,0.095,-0.108,9.563,0.15538981626863452,0.861718624268895,2.2968421052631576,0,0.30000000000000004
1757395432.559431,0.169,-0.14,9.587,0.15561168015287286,1.3113294466661947,2.2984962406015037,0,0.30000000000000004
1757395432.5864186,0.169,-0.14,9.587,0.15561168015287286,1.3113294466661947,2.2984962406015037,0,0.30000000000000004
1757395432.6124027,-0.135,-0.111,9.71,0.15575720689586084,1.0311781027808173,2.3081704260651628,0,0.30000000000000004
1757395432.6398587,-0.135,-0.111,9.71,0.15575720689586084,1.0311781027808173,2.3081704260651628,0,0.30000000000000004
1757395432.667379,0.085,0.063,9.538,0.1557333217394402,0.6355359962575844,2.317994987468672,0,0.30000000000000004
1757395432.69486,0.085,0.063,9.538,0.1557333217394402,0.6355359962575844,2.317994987468672,0,0.30000000000000004
1757395432.7215111,-0.138,-0.069,9.668,0.15583855427974172,0.9142884194267485,2.323859649122807,0,0.30000000000000004
1757395432.7487385,-0.138,-0.069,9.668,0.15583855427974172,0.9142884194267485,2.323859649122807,0,0.30000000000000004
1757395432.775295,-0.11,-0.0,9.602,0.1559288379357712,0.6563486831824753,2.3196992481203007,0,0.30000000000000004
1757395432.8027146,-0.11,-0.0,9.602,0.1559288379357712,0.6563486831824753,2.3196992481203007,0,0.30000000000000004
1757395432.8302605,-0.224,-0.149,9.749,0.15627678170476894,1.5807116212242955,2.3155388471177942,0,0.30000000000000004
1757395432.8574586,-0.224,-0.149,9.749,0.15627678170476894,1.5807116212242955,2.3155388471177942,0,0.30000000000000004
1757395432.8844912,-0.122,-0.263,9.712,0.15629005086696976,1.7098641830098051,2.317092731829574,0,0.30000000000000004
1757395432.9120584,-0.122,-0.263,9.712,0.15629005086696976,1.7098641830098051,2.317092731829574,0,0.30000000000000004
1757395432.9395442,-0.327,-0.067,9.709,0.1571275357790607,1.9690411415230322,2.3256641604010024,0,0.30000000000000004
1757395432.9671402,-0.327,-0.067,9.709,0.1571275357790607,1.9690411415230322,2.3256641604010024,0,0.30000000000000004
1757395432.9947193,-0.18,-0.091,9.87,0.1573842828874599,1.1706871391030629,2.3287719298245615,0,0.30000000000000004
1757395433.0219214,-0.18,-0.091,9.87,0.1573842828874599,1.1706871391030629,2.3287719298245615,0,0.30000000000000004
1757395433.0486364,-0.008,-0.243,9.67,0.15734010931736384,1.440277474287386,2.3296240601503757,0,0.30000000000000004
1757395433.0758924,-0.008,-0.243,9.67,0.15734010931736384,1.440277474287386,2.3296240601503757,0,0.30000000000000004
1757395433.1037812,-0.05,-0.001,9.606,0.15730912243096393,0.2982860700901787,2.3244110275689223,0,0.30000000000000004
1757395433.131043,-0.05,-0.001,9.606,0.15730912243096393,0.2982860700901787,2.3244110275689223,0,0.30000000000000004
1757395433.1578352,0.041,0.142,9.806,0.15728786507547238,0.8635229487007713,2.3143358395989972,0,0.30000000000000004
1757395433.186432,0.041,0.142,9.806,0.15728786507547238,0.8635229487007713,2.3143358395989972,0,0.30000000000000004
1757395433.2141688,-0.068,-0.19,9.647,0.15691826694174263,1.1983735995753473,2.3134335839598994,0,0.30000000000000004
1757395433.2420275,0.081,-0.147,9.45,0.15689245520419395,1.0175097708874719,2.3132832080200503,0,0.30000000000000004
1757395433.269568,0.081,-0.147,9.45,0.15689245520419395,1.0175097708874719,2.3132832080200503,0,0.30000000000000004
1757395433.297656,0.129,-0.168,9.534,0.1565226581041863,1.2727112503430469,2.3144862155388473,0,0.30000000000000004
1757395433.3253968,0.129,-0.168,9.534,0.1565226581041863,1.2727112503430469,2.3144862155388473,0,0.30000000000000004
1757395433.3515737,0.165,-0.059,9.547,0.15613565416009245,1.0515224995902135,2.3065664160401003,0,0.30000000000000004
1757395433.3786836,0.165,-0.059,9.547,0.15613565416009245,1.0515224995902135,2.3065664160401003,0,0.30000000000000004
1757395433.406269,0.165,-0.059,9.547,0.15613565416009245,1.0515224995902135,2.3065664160401003,0,0.30000000000000004
1757395433.4339836,0.059,-0.052,9.555,0.1561109941676114,0.47157631686109214,2.3109774436090222,0,0.30000000000000004
1757395433.46178,0.201,0.061,9.54,0.1564024376408501,1.261338599656633,2.3169423558897244,0,0.30000000000000004
1757395433.489015,0.201,0.061,9.54,0.1564024376408501,1.261338599656633,2.3169423558897244,0,0.30000000000000004
1757395433.5165489,0.202,-0.164,9.614,0.15671545073795373,1.5502682370469343,2.3135839598997494,0,0.30000000000000004
1757395433.5441952,0.202,-0.164,9.614,0.15671545073795373,1.5502682370469343,2.3135839598997494,0,0.30000000000000004
1757395433.5711048,0.14,-0.162,9.601,0.15677873739764586,1.2775427257214078,2.3155388471177942,0,0.30000000000000004
1757395433.5982156,0.14,-0.162,9.601,0.15677873739764586,1.2775427257214078,2.3155388471177942,0,0.30000000000000004
1757395433.625385,0.227,0.064,9.515,0.1571315770302074,1.4199071028851296,2.308621553884712,0,0.30000000000000004
1757395433.6531117,0.227,0.064,9.515,0.1571315770302074,1.4199071028851296,2.308621553884712,0,0.30000000000000004
1757395433.6814795,0.188,-0.091,9.744,0.1572567725091673,1.2279666573334937,2.294636591478697,0,0.7000000000000001
1757395433.709336,0.188,-0.091,9.744,0.1572567725091673,1.2279666573334937,2.294636591478697,0,0.7000000000000001
1757395433.7365596,0.098,-0.222,9.583,0.15708116532544567,1.4505801918117394,2.29749373433584,0,0.7000000000000001
1757395433.7640903,0.098,-0.222,9.583,0.15708116532544567,1.4505801918117394,2.29749373433584,0,0.7000000000000001
1757395433.791545,0.115,-0.141,9.546,0.15701908323512784,1.0919480401133355,2.2961904761904766,0,0.7000000000000001
1757395433.8189032,0.115,-0.141,9.546,0.15701908323512784,1.0919480401133355,2.2961904761904766,0,0.7000000000000001
1757395433.8465862,0.165,-0.156,9.483,0.15715293506645048,1.371685555968931,2.2820050125313283,0,0.7000000000000001
1757395433.8739932,0.165,-0.156,9.483,0.15715293506645048,1.371685555968931,2.2820050125313283,0,0.7000000000000001
1757395433.902352,0.054,-0.174,9.528,0.15566397303165558,1.0954301103542885,2.277593984962406,0,0.7000000000000001
1757395433.9304073,0.054,-0.174,9.528,0.15566397303165558,1.0954301103542885,2.277593984962406,0,0.7000000000000001
1757395433.9572258,0.09,-0.091,9.444,0.1552813011923844,0.7764442407197718,2.273483709273183,0,0.7000000000000001
1757395433.9852295,0.09,-0.091,9.444,0.1552813011923844,0.7764442407197718,2.273483709273183,0,0.7000000000000001
1757395434.0128386,0.082,-0.022,9.592,0.15522333104272695,0.507118565746497,2.2628070175438593,0,0.7000000000000001
1757395434.041355,0.082,-0.022,9.592,0.15522333104272695,0.507118565746497,2.2628070175438593,0,0.7000000000000001
1757395434.0691357,-0.032,-0.028,9.856,0.15430340242522197,0.24718291885638227,2.2671177944862153,0,0.7000000000000001
1757395434.0966485,-0.032,-0.028,9.856,0.15430340242522197,0.24718291885638227,2.2671177944862153,0,0.7000000000000001
1757395434.123492,-0.127,0.082,9.767,0.15333994913263796,0.88674424327398,2.255338345864662,0,0.7000000000000001
1757395434.1508062,-0.127,0.082,9.767,0.15333994913263796,0.88674424327398,2.255338345864662,0,0.7000000000000001
1757395434.1784708,-0.124,0.061,9.888,0.1534540892254097,0.8006975055675051,2.249624060150376,0,0.7000000000000001
1757395434.2060504,-0.124,0.061,9.888,0.1534540892254097,0.8006975055675051,2.249624060150376,0,0.7000000000000001
1757395434.2329369,0.105,-0.024,9.952,0.15335067655540358,0.6200732878364903,2.260451127819549,0,0.7000000000000001
1757395434.2606573,0.105,-0.024,9.952,0.15335067655540358,0.6200732878364903,2.260451127819549,0,0.7000000000000001
1757395434.2882016,-0.14,0.025,9.832,0.15334838603650186,0.8286950460061472,2.2714786967418545,0,0.7000000000000001
1757395434.315799,-0.14,0.025,9.832,0.15334838603650186,0.8286950460061472,2.2714786967418545,0,0.7000000000000001
1757395434.3434978,-0.181,0.079,9.927,0.15339080806880181,1.1397005679850678,2.2707268170426063,0,0.7000000000000001
1757395434.3711743,-0.181,0.079,9.927,0.15339080806880181,1.1397005679850678,2.2707268170426063,0,0.7000000000000001
1757395434.3985586,-0.022,-0.012,10.097,0.15329611867232645,0.14220314657712474,2.2748872180451127,0,0.7000000000000001
1757395434.4256792,-0.022,-0.012,10.097,0.15329611867232645,0.14220314657712474,2.2748872180451127,0,0.7000000000000001
1757395434.4537332,-0.07,-0.052,9.91,0.1533266447816556,0.5041488996379132,2.2746867167919804,0,0.7000000000000001
1757395434.4813902,-0.093,0.005,9.927,0.1533368595609027,0.5375286014650659,2.2724310776942356,0,0.7000000000000001
1757395434.5090537,-0.093,0.005,9.927,0.1533368595609027,0.5375286014650659,2.2724310776942356,0,0.7000000000000001
1757395434.5367362,-0.12,0.135,10.059,0.15326089683934385,1.0287181773513805,2.2711779448621554,0,0.7000000000000001
1757395434.5645585,-0.12,0.135,10.059,0.15326089683934385,1.0287181773513805,2.2711779448621554,0,0.7000000000000001
1757395434.5922563,-0.12,0.135,10.059,0.15326089683934385,1.0287181773513805,2.2711779448621554,0,0.7000000000000001
1757395434.6196444,-0.204,-0.041,9.881,0.1532542087513423,1.2063864500404502,2.27468671679198,0,0.7000000000000001
1757395434.6479383,-0.061,0.036,9.873,0.15298364291648958,0.4110437936444044,2.2810526315789477,0,0.7000000000000001
1757395434.6755998,-0.061,0.036,9.873,0.15298364291648958,0.4110437936444044,2.2810526315789477,0,0.7000000000000001
1757395434.7028193,-0.073,0.019,9.939,0.15277394247711226,0.43483824740872146,2.275187969924812,0,0.7000000000000001
1757395434.729446,-0.073,0.019,9.939,0.15277394247711226,0.43483824740872146,2.275187969924812,0,0.7000000000000001
1757395434.7567685,-0.073,0.019,9.939,0.15277394247711226,0.43483824740872146,2.275187969924812,0,0.7000000000000001
1757395434.784578,-0.064,-0.04,9.937,0.15204458227769907,0.4351550044295943,2.257593984962406,0,0.7000000000000001
1757395434.812029,-0.022,-0.054,9.897,0.1520236905880133,0.33756195679218326,2.2476190476190476,0,0.7000000000000001
1757395434.8393822,-0.022,-0.054,9.897,0.1520236905880133,0.33756195679218326,2.2476190476190476,0,0.7000000000000001
1757395434.866539,0.055,-0.022,9.905,0.15176387910171513,0.3426530950768719,2.2430075187969924,0,0.7000000000000001
1757395434.8938305,0.055,-0.022,9.905,0.15176387910171513,0.3426530950768719,2.2430075187969924,0,0.7000000000000001
1757395434.92141,0.038,-0.067,9.803,0.15177339193679504,0.4501858772024749,2.2357393483709274,0,0.7000000000000001
1757395434.9489202,0.038,-0.067,9.803,0.15177339193679504,0.4501858772024749,2.2357393483709274,0,0.7000000000000001
1757395434.9762049,0.102,-0.049,9.715,0.15159508567232646,0.6673443368095793,2.2375939849624062,0,0.7000000000000001
1757395435.0037067,0.102,-0.049,9.715,0.15159508567232646,0.6673443368095793,2.2375939849624062,0,0.7000000000000001
1757395435.0306566,0.303,-0.134,9.628,0.15216054843486862,1.97082091370213,2.2461152882205515,0,0.7000000000000001
1757395435.0585678,0.303,-0.134,9.628,0.15216054843486862,1.97082091370213,2.2461152882205515,0,0.7000000000000001
1757395435.0869732,0.118,-0.274,9.752,0.15199973684187745,1.7522195476895188,2.2463157894736843,0,0.7000000000000001
1757395435.114808,0.118,-0.274,9.752,0.15199973684187745,1.7522195476895188,2.2463157894736843,0,0.7000000000000001
1757395435.1422179,0.196,-0.395,9.701,0.15231529798414867,2.6025627962571245,2.2374937343358394,0,0.7000000000000001
1757395435.1700544,0.196,-0.395,9.701,0.15231529798414867,2.6025627962571245,2.2374937343358394,0,0.7000000000000001
1757395435.1979158,0.207,-0.322,9.649,0.15212899953657752,2.271853694560974,2.228872180451128,0,0.7000000000000001
1757395435.2254834,0.207,-0.322,9.649,0.15212899953657752,2.271853694560974,2.228872180451128,0,0.7000000000000001
1757395435.2530634,0.386,-0.414,9.687,0.15330492490458356,3.344110519843215,2.2321303258145364,0,0.7000000000000001
1757395435.2805629,0.386,-0.414,9.687,0.15330492490458356,3.344110519843215,2.2321303258145364,0,0.7000000000000001
1757395435.3079627,0.195,-0.289,9.641,0.15332984053992885,2.0710075796500096,2.239097744360902,0,0.7000000000000001
1757395435.3347082,0.195,-0.289,9.641,0.15332984053992885,2.0710075796500096,2.239097744360902,0,0.7000000000000001
