timestamp,ax,ay,az,rms,tilt_now,jerk,tilt_crosses,freq
1757394179.370362,-0.378,-0.397,9.741,0.0189,3.2209089522993652,0.01894736842105263,0,0.75
1757394179.4014726,-0.371,-0.397,9.728,0.026482305413237726,3.1970025236883526,0.019298245614035085,0,0.05
1757394179.428749,-0.393,-0.394,9.742,0.03297627935349893,3.269361046446209,0.020401002506265666,0,0.05
1757394179.4553177,-0.407,-0.392,9.74,0.03874993548381726,3.32036191419783,0.021102756892230578,0,0.05
1757394179.4838965,-0.426,-0.379,9.751,0.04421818065004484,3.346563331830684,0.02205513784461153,0,0.05
1757394179.5117416,-0.45,-0.373,9.759,0.04961348103086499,3.42749001315952,0.023258145363408523,0,0.05
1757394179.5375257,-0.474,-0.367,9.746,0.0549835202583465,3.5197944784800907,0.024461152882205513,0,0.05
1757394179.5628998,-0.487,-0.363,9.739,0.06013410014293055,3.568804889139163,0.02511278195488722,0,0.05
1757394179.588516,-0.492,-0.358,9.732,0.06497130135682985,3.577587248838994,0.025363408521303255,0,0.05
1757394179.6139877,-0.499,-0.374,9.734,0.06959721617995938,3.6655937228199003,0.025714285714285714,0,0.05
1757394179.639771,-0.502,-0.372,9.739,0.07398501537473652,3.670808383295773,0.025864661654135333,0,0.05
1757394179.665036,-0.501,-0.38,9.727,0.07811072269541487,3.698781768024636,0.025914786967418543,0,0.05
1757394179.6903765,-0.501,-0.384,9.742,0.08202918687881772,3.707307057054436,0.025914786967418543,0,0.05
1757394179.7155418,-0.489,-0.387,9.746,0.08559550221828247,3.6611536814508647,0.026516290726817042,0,0.05
1757394179.7413027,-0.493,-0.397,9.742,0.08907419660036232,3.7175035489624055,0.02671679197994987,0,0.05
1757394179.7670383,-0.473,-0.399,9.741,0.09216037651832809,3.634926097177225,0.027719298245614036,0,0.05
1757394179.7920454,-0.457,-0.391,9.736,0.09495081621555446,3.5349461400816833,0.02852130325814536,0,0.05
1757394179.8170335,-0.457,-0.391,9.736,0.09495081621555446,3.5349461400816833,0.02852130325814536,0,0.05
1757394179.842082,-0.457,-0.391,9.736,0.09495081621555446,3.5349461400816833,0.02852130325814536,0,0.05
1757394179.867666,-0.467,-0.397,9.726,0.09777975250531165,3.6060674142530704,0.02902255639097744,0,0.05
1757394179.8929753,-0.467,-0.397,9.726,0.09777975250531165,3.6060674142530704,0.02902255639097744,0,0.05
1757394179.9184415,-0.458,-0.407,9.73,0.10042554455914092,3.6032250153154726,0.02947368421052631,0,0.05
1757394179.9437377,-0.458,-0.407,9.73,0.10042554455914092,3.6032250153154726,0.02947368421052631,0,0.05
1757394179.9688303,-0.446,-0.423,9.731,0.10287166762525043,3.614476038335672,0.030075187969924807,0,0.05
1757394179.9973948,-0.446,-0.423,9.731,0.10287166762525043,3.614476038335672,0.030075187969924807,0,0.05
1757394180.0225167,-0.44,-0.419,9.727,0.10519781366549402,3.5742731758746573,0.030375939849624053,0,0.05
1757394180.0476913,-0.44,-0.419,9.727,0.10519781366549402,3.5742731758746573,0.030375939849624053,0,0.05
1757394180.0729737,-0.431,-0.419,9.737,0.10738241243332168,3.5325951543699006,0.030827067669172925,0,0.05
1757394180.0981858,-0.431,-0.419,9.737,0.10738241243332168,3.5325951543699006,0.030827067669172925,0,0.05
1757394180.1233947,-0.419,-0.431,9.747,0.10940696961345743,3.5289800285227604,0.03142857142857143,0,0.05
1757394180.1483197,-0.419,-0.431,9.747,0.10940696961345743,3.5289800285227604,0.03142857142857143,0,0.05
1757394180.173511,-0.409,-0.44,9.751,0.11130178569996081,3.525388111121313,0.031929824561403516,0,0.05
1757394180.1988306,-0.409,-0.44,9.751,0.11130178569996081,3.525388111121313,0.031929824561403516,0,0.05
1757394180.224185,-0.397,-0.442,9.757,0.11305799396769783,3.484505714309447,0.03253132832080201,0,0.05
1757394180.249247,-0.397,-0.442,9.757,0.11305799396769783,3.484505714309447,0.03253132832080201,0,0.05
1757394180.2743177,-0.397,-0.442,9.757,0.11305799396769783,3.484505714309447,0.03253132832080201,0,0.05
1757394180.2994795,-0.372,-0.445,9.757,0.11457779016895028,3.4019611550124993,0.03378446115288221,0,0.05
1757394180.3244853,-0.372,-0.445,9.757,0.11457779016895028,3.4019611550124993,0.03378446115288221,0,0.05
1757394180.3496473,-0.365,-0.445,9.757,0.1160221207356597,3.375835781603894,0.03413533834586467,0,0.05
1757394180.3749316,-0.365,-0.445,9.757,0.1160221207356597,3.375835781603894,0.03413533834586467,0,0.05
1757394180.4000337,-0.356,-0.446,9.756,0.1173796085357248,3.347596791031266,0.03458646616541353,0,0.05
1757394180.4251642,-0.356,-0.446,9.756,0.1173796085357248,3.347596791031266,0.03458646616541353,0,0.05
1757394180.4505854,-0.346,-0.451,9.778,0.11864764009452526,3.3270856219824556,0.03508771929824561,0,0.05
1757394180.475806,-0.346,-0.451,9.778,0.11864764009452526,3.3270856219824556,0.03508771929824561,0,0.05
1757394180.500805,-0.354,-0.428,9.769,0.11996062895800438,3.2541142091540007,0.03548872180451128,0,0.05
1757394180.525789,-0.354,-0.428,9.769,0.11996062895800438,3.2541142091540007,0.03548872180451128,0,0.05
1757394180.5508924,-0.346,-0.422,9.751,0.12120166046717347,3.203192423776272,0.035889724310776944,0,0.05
1757394180.5759997,-0.346,-0.422,9.751,0.12120166046717347,3.203192423776272,0.035889724310776944,0,0.05
1757394180.6010017,-0.346,-0.422,9.751,0.12120166046717347,3.203192423776272,0.035889724310776944,0,0.05
1757394180.6263406,-0.346,-0.426,9.744,0.12243011271741931,3.223654367075807,0.03588972431077695,0,0.05
1757394180.6513672,-0.346,-0.426,9.744,0.12243011271741931,3.223654367075807,0.03588972431077695,0,0.05
1757394180.6763215,-0.341,-0.419,9.74,0.12361162971177105,3.1746278602754217,0.03614035087719298,0,0.05
1757394180.701205,-0.341,-0.419,9.74,0.12361162971177105,3.1746278602754217,0.03614035087719298,0,0.05
1757394180.7261763,-0.344,-0.412,9.736,0.12480254404458267,3.1554349958895105,0.03629072681704261,0,0.05
1757394180.7511253,-0.344,-0.412,9.736,0.12480254404458267,3.1554349958895105,0.03629072681704261,0,0.05
1757394180.7761967,-0.355,-0.407,9.745,0.12605846857708528,3.1720907982547883,0.03684210526315789,0,0.05
1757394180.8013573,-0.355,-0.407,9.745,0.12605846857708528,3.1720907982547883,0.03684210526315789,0,0.05
1757394180.8264139,-0.362,-0.407,9.741,0.12735127600460075,3.2005211420227395,0.03719298245614036,0,0.05
1757394180.8513355,-0.362,-0.407,9.741,0.12735127600460075,3.2005211420227395,0.03719298245614036,0,0.05
1757394180.876308,-0.358,-0.404,9.728,0.12860310066246458,3.1760241761634265,0.03739348370927318,0,0.05
1757394180.901379,-0.358,-0.404,9.728,0.12860310066246458,3.1760241761634265,0.03739348370927318,0,0.05
1757394180.9263537,-0.358,-0.404,9.728,0.12860310066246458,3.1760241761634265,0.03739348370927318,0,0.05
1757394180.95137,-0.37,-0.407,9.725,0.1299269313883769,3.2371917054673336,0.037994987468671686,0,0.05
1757394180.976424,-0.37,-0.407,9.725,0.1299269313883769,3.2371917054673336,0.037994987468671686,0,0.05
1757394181.001363,-0.374,-0.406,9.716,0.13126575143578006,3.2517210094364755,0.03819548872180452,0,0.05
1757394181.026245,-0.374,-0.406,9.716,0.13126575143578006,3.2517210094364755,0.03819548872180452,0,0.05
1757394181.0512686,-0.378,-0.401,9.73,0.13261940845894313,3.241587437675662,0.03839598997493735,0,0.05
1757394181.0762827,-0.378,-0.401,9.73,0.13261940845894313,3.241587437675662,0.03839598997493735,0,0.05
1757394181.1011271,-0.387,-0.388,9.723,0.1340236173217243,3.225894596396096,0.03884711779448622,0,0.05
1757394181.1259172,-0.387,-0.388,9.723,0.1340236173217243,3.225894596396096,0.03884711779448622,0,0.05
1757394181.1507697,-0.403,-0.377,9.724,0.1355298952261087,3.24812573022094,0.03964912280701755,0,0.05
1757394181.1757774,-0.403,-0.377,9.724,0.1355298952261087,3.24812573022094,0.03964912280701755,0,0.05
1757394181.2007236,-0.414,-0.377,9.711,0.13710157730675457,3.3000017332537763,0.04020050125313283,0,0.05
1757394181.2258193,-0.414,-0.377,9.711,0.13710157730675457,3.3000017332537763,0.04020050125313283,0,0.05
1757394181.2506704,-0.423,-0.381,9.724,0.13872333978101883,3.3505419017844136,0.04065162907268171,0,0.05
1757394181.2755444,-0.423,-0.381,9.724,0.13872333978101883,3.3505419017844136,0.04065162907268171,0,0.05
1757394181.3005464,-0.423,-0.381,9.724,0.13872333978101883,3.3505419017844136,0.04065162907268171,0,0.05
1757394181.3254569,-0.458,-0.379,9.732,0.14060076457829096,3.4955665679666335,0.04240601503759398,0,0.05
1757394181.3504891,-0.458,-0.379,9.732,0.14060076457829096,3.4955665679666335,0.04240601503759398,0,0.05
1757394181.3753977,-0.48,-0.372,9.723,0.14263441029429047,3.573918235736543,0.04350877192982456,0,0.05
1757394181.4003665,-0.48,-0.372,9.723,0.14263441029429047,3.573918235736543,0.04350877192982456,0,0.05
1757394181.425429,-0.498,-0.366,9.702,0.14479152254189467,3.644885598684353,0.0444110275689223,0,0.05
1757394181.4507763,-0.498,-0.366,9.702,0.14479152254189467,3.644885598684353,0.0444110275689223,0,0.05
1757394181.47581,-0.505,-0.371,9.707,0.1469766903287729,3.693576192754905,0.04476190476190476,0,0.05
1757394181.500883,-0.505,-0.371,9.707,0.1469766903287729,3.693576192754905,0.04476190476190476,0,0.05
1757394181.525728,-0.517,-0.385,9.719,0.14923260367627444,3.794532595244545,0.045363408521303245,0,0.05
1757394181.5509465,-0.517,-0.385,9.719,0.14923260367627444,3.794532595244545,0.045363408521303245,0,0.05
1757394181.5760622,-0.512,-0.384,9.725,0.15141244995045816,3.76519266726673,0.04561403508771929,0,0.05
1757394181.601102,-0.512,-0.384,9.725,0.15141244995045816,3.76519266726673,0.04561403508771929,0,0.05
1757394181.6265693,-0.512,-0.384,9.725,0.15141244995045816,3.76519266726673,0.04561403508771929,0,0.05
1757394181.6518464,-0.525,-0.374,9.729,0.1536710529019698,3.790584617619423,0.046265664160400996,0,0.05
1757394181.6767511,-0.525,-0.374,9.729,0.1536710529019698,3.790584617619423,0.046265664160400996,0,0.05
1757394181.7017322,-0.512,-0.392,9.74,0.15578880736432899,3.7877105929412207,0.04691729323308272,0,0.05
1757394181.7271967,-0.512,-0.392,9.74,0.15578880736432899,3.7877105929412207,0.04691729323308272,0,0.05
1757394181.7548347,-0.502,-0.393,9.732,0.15779785328070847,3.7480519096761573,0.0474185463659148,0,0.05
1757394181.7812865,-0.502,-0.393,9.732,0.15779785328070847,3.7480519096761573,0.0474185463659148,0,0.05
1757394181.8062046,-0.494,-0.397,9.737,0.15971929282337813,3.723972738121394,0.04781954887218046,0,0.05
1757394181.831175,-0.494,-0.397,9.737,0.15971929282337813,3.723972738121394,0.04781954887218046,0,0.05
1757394181.856204,-0.481,-0.392,9.732,0.16151982850411897,3.648190677789879,0.04847117794486217,0,0.05
1757394181.8812616,-0.481,-0.392,9.732,0.16151982850411897,3.648190677789879,0.04847117794486217,0,0.05
1757394181.9064307,-0.476,-0.39,9.743,0.16326388149250892,3.6139931486729537,0.048721804511278215,0,0.05
1757394181.931581,-0.476,-0.39,9.743,0.16326388149250892,3.6139931486729537,0.048721804511278215,0,0.05
1757394181.9593718,-0.459,-0.399,9.755,0.16486903135519418,3.5675100856010635,0.04957393483709275,0,0.05
1757394181.9855714,-0.459,-0.399,9.755,0.16486903135519418,3.5675100856010635,0.04957393483709275,0,0.05
1757394182.0104942,-0.454,-0.398,9.751,0.16642441978267491,3.5430728772436813,0.049824561403508785,0,0.05
1757394182.0355558,-0.454,-0.398,9.751,0.16642441978267491,3.5430728772436813,0.049824561403508785,0,0.05
1757394182.0604742,-0.454,-0.404,9.75,0.16796540566438078,3.566686987367529,0.049824561403508785,0,0.05
1757394182.085339,-0.454,-0.404,9.75,0.16796540566438078,3.566686987367529,0.049824561403508785,0,0.05
1757394182.1102772,-0.454,-0.404,9.75,0.16796540566438078,3.566686987367529,0.049824561403508785,0,0.05
1757394182.1353488,-0.456,-0.418,9.729,0.16950580373544735,3.638117636611538,0.0499248120300752,0,0.05
1757394182.160497,-0.456,-0.418,9.729,0.16950580373544735,3.638117636611538,0.0499248120300752,0,0.05
1757394182.1855211,-0.449,-0.414,9.733,0.17098602282058029,3.590538174705439,0.05027568922305766,0,0.05
1757394182.2105947,-0.449,-0.414,9.733,0.17098602282058029,3.590538174705439,0.05027568922305766,0,0.05
1757394182.236084,-0.445,-0.407,9.736,0.17242761524767428,3.544407970096836,0.050476190476190494,0,0.05
1757394182.2615469,-0.445,-0.407,9.736,0.17242761524767428,3.544407970096836,0.050476190476190494,0,0.05
1757394182.2864532,-0.427,-0.398,9.732,0.17374436681515748,3.4324770194046694,0.05137844611528824,0,0.05
1757394182.3113883,-0.427,-0.398,9.732,0.17374436681515748,3.4324770194046694,0.05137844611528824,0,0.05
1757394182.336829,-0.405,-0.399,9.727,0.17492046049562068,3.3450532793282046,0.05248120300751879,0,0.05
1757394182.3625236,-0.405,-0.399,9.727,0.17492046049562068,3.3450532793282046,0.05248120300751879,0,0.05
1757394182.3881004,-0.391,-0.411,9.71,0.17600957360325603,3.343523676660424,0.05318295739348371,0,0.05
1757394182.4143746,-0.391,-0.411,9.71,0.17600957360325603,3.343523676660424,0.05318295739348371,0,0.05
1757394182.439651,-0.37,-0.421,9.703,0.17697915131449807,3.305952256015859,0.05423558897243108,0,0.05
1757394182.4654648,-0.37,-0.421,9.703,0.17697915131449807,3.305952256015859,0.05423558897243108,0,0.05
1757394182.492026,-0.37,-0.421,9.703,0.17697915131449807,3.305952256015859,0.05423558897243108,0,0.05
1757394182.5189335,-0.357,-0.428,9.71,0.17787704320681744,3.2851176553653807,0.05488721804511279,0,0.05
1757394182.5465066,-0.335,-0.432,9.703,0.1786639443200558,3.224657672866744,0.05598997493734336,0,0.05
1757394182.5745473,-0.335,-0.432,9.703,0.1786639443200558,3.224657672866744,0.05598997493734336,0,0.05
1757394182.600951,-0.335,-0.432,9.703,0.1786639443200558,3.224657672866744,0.05598997493734336,0,0.05
1757394182.6283798,-0.081,-0.433,9.707,0.17870984164281495,2.598343483770434,0.0687218045112782,0,0.05
1757394182.6560118,-0.388,-0.4,9.606,0.1797597493878983,3.3201303716243857,0.08411027568922307,0,0.05
1757394182.6825333,-0.388,-0.4,9.606,0.1797597493878983,3.3201303716243857,0.08411027568922307,0,0.05
1757394182.710237,-0.014,-0.546,9.688,0.17976111231298053,3.2267430444908407,0.10285714285714287,0,0.05
1757394182.7370105,-0.014,-0.546,9.688,0.17976111231298053,3.2267430444908407,0.10285714285714287,0,0.05
1757394182.7638958,0.036,-0.066,9.675,0.1797701240473511,0.4452090608724183,0.10536340852130326,0,0.05
1757394182.791636,0.036,-0.066,9.675,0.1797701240473511,0.4452090608724183,0.10536340852130326,0,0.05
1757394182.8187666,-0.173,-0.033,9.484,0.17997810978005077,1.0638687892750327,0.11583959899749373,0,0.05
1757394182.8464627,-0.173,-0.033,9.484,0.17997810978005077,1.0638687892750327,0.11583959899749373,0,0.05
1757394182.8738468,-0.071,-0.345,9.728,0.18001311757758098,2.073651548814262,0.12095238095238095,0,0.05
1757394182.900357,-0.071,-0.345,9.728,0.18001311757758098,2.073651548814262,0.12095238095238095,0,0.05
1757394182.926813,-0.376,-0.354,9.77,0.1809921614324775,3.025722424322422,0.13624060150375938,0,0.05
1757394182.9542494,-0.376,-0.354,9.77,0.1809921614324775,3.025722424322422,0.13624060150375938,0,0.05
1757394182.9805863,-0.376,-0.354,9.77,0.1809921614324775,3.025722424322422,0.13624060150375938,0,0.05
1757394183.0078807,-0.384,-0.539,9.565,0.18200769901298133,3.9579629624735686,0.13664160401002506,0,0.05
1757394183.0349681,-0.384,-0.539,9.565,0.18200769901298133,3.9579629624735686,0.13664160401002506,0,0.05
1757394183.0625243,-0.499,-0.457,9.807,0.1837098391485878,3.9469382655603833,0.14240601503759398,0,0.05
1757394183.088971,-0.472,-0.452,9.771,0.18521950491241465,3.8264492900214417,0.14375939849624061,0,0.05
1757394183.115009,-0.472,-0.452,9.771,0.18521950491241465,3.8264492900214417,0.14375939849624061,0,0.05
1757394183.1419961,-0.409,-0.249,9.563,0.1863450227400775,2.86649311366865,0.14691729323308272,0,0.05
1757394183.1694593,-0.409,-0.249,9.563,0.1863450227400775,2.86649311366865,0.14691729323308272,0,0.05
1757394183.1964805,-0.43,-0.224,9.529,0.18758122907156782,2.912762610178933,0.14796992481203008,0,0.05
1757394183.223513,-0.43,-0.224,9.529,0.18758122907156782,2.912762610178933,0.14796992481203008,0,0.05
1757394183.2506175,-0.322,-0.08,9.768,0.18827088861531407,1.9454144746326862,0.15338345864661654,0,0.05
1757394183.2771404,-0.322,-0.08,9.768,0.18827088861531407,1.9454144746326862,0.15338345864661654,0,0.05
1757394183.3041477,-0.657,-0.046,9.668,0.19111527934730912,3.897111076828048,0.17017543859649123,0,0.05
1757394183.331275,-0.657,-0.046,9.668,0.19111527934730912,3.897111076828048,0.17017543859649123,0,0.05
1757394183.3578966,-0.556,-0.05,9.698,0.19312661649808915,3.294467870949795,0.17523809523809522,0,0.05
1757394183.3852828,-0.556,-0.05,9.698,0.19312661649808915,3.294467870949795,0.17523809523809522,0,0.05
1757394183.4123712,-0.566,0.068,9.68,0.19518908780974414,3.370344307675501,0.17573934837092733,0,0.05
1757394183.4394863,-0.566,0.068,9.68,0.19518908780974414,3.370344307675501,0.17573934837092733,0,0.05
1757394183.4671037,-0.554,-0.155,9.682,0.19714479450393815,3.4003415953090066,0.17634085213032583,0,0.05
1757394183.4941807,-0.554,-0.155,9.682,0.19714479450393815,3.4003415953090066,0.17634085213032583,0,0.05
1757394183.5210667,-0.587,-0.163,9.743,0.1993175669628746,3.5779362843031093,0.17799498746867168,0,0.05
1757394183.5482285,-0.587,-0.163,9.743,0.1993175669628746,3.5779362843031093,0.17799498746867168,0,0.05
1757394183.5752673,-0.438,-0.248,9.804,0.20051708780051639,2.9389820614895377,0.18546365914786966,0,0.05
1757394183.6019273,-0.438,-0.248,9.804,0.20051708780051639,2.9389820614895377,0.18546365914786966,0,0.05
1757394183.6289263,-0.495,-0.06,9.843,0.20203877103170073,2.89998975011809,0.18832080200501253,0,0.05
1757394183.6556618,-0.495,-0.06,9.843,0.20203877103170073,2.89998975011809,0.18832080200501253,0,0.05
1757394183.6830199,-0.513,-0.179,9.739,0.20366047112780622,3.193183174859363,0.18922305764411027,0,0.05
1757394183.7106073,-0.513,-0.179,9.739,0.20366047112780622,3.193183174859363,0.18922305764411027,0,0.05
1757394183.7375221,-0.589,-0.146,9.712,0.20577874039851637,3.575308012095087,0.19303258145363408,0,0.05
1757394183.7643647,-0.589,-0.146,9.712,0.20577874039851637,3.575308012095087,0.19303258145363408,0,0.05
1757394183.7909083,-0.466,-0.089,9.805,0.20709365031308902,2.770141893813015,0.19919799498746865,0,0.05
1757394183.818763,-0.466,-0.089,9.805,0.20709365031308902,2.770141893813015,0.19919799498746865,0,0.05
1757394183.8464217,-0.479,-0.313,9.749,0.20847393721997962,3.359004456100038,0.19984962406015033,0,0.05
1757394183.873425,-0.479,-0.313,9.749,0.20847393721997962,3.359004456100038,0.19984962406015033,0,0.05
1757394183.9003854,-0.692,-0.218,9.873,0.21132567875201536,4.202875774497038,0.21052631578947367,0,0.05
1757394183.9276288,-0.692,-0.218,9.873,0.21132567875201536,4.202875774497038,0.21052631578947367,0,0.05
1757394183.9552917,-0.473,-0.117,9.784,0.2126449270497653,2.8510468501188098,0.22150375939849623,0,0.05
1757394183.9824905,-0.473,-0.117,9.784,0.2126449270497653,2.8510468501188098,0.22150375939849623,0,0.05
1757394184.00918,-0.455,-0.215,9.759,0.21385842863913498,2.9519400714116966,0.22240601503759394,0,0.05
1757394184.0362773,-0.455,-0.215,9.759,0.21385842863913498,2.9519400714116966,0.22240601503759394,0,0.05
1757394184.0637236,-0.358,-0.277,9.709,0.21460623825974864,2.6692996421402264,0.22726817042606515,0,0.05
1757394184.091092,-0.358,-0.277,9.709,0.21460623825974864,2.6692996421402264,0.22726817042606515,0,0.05
1757394184.1174357,-0.48,-0.294,9.734,0.2159440610435953,3.3095212492856048,0.23338345864661653,0,0.05
1757394184.1455245,-0.48,-0.294,9.734,0.2159440610435953,3.3095212492856048,0.23338345864661653,0,0.05
1757394184.1729214,-0.276,-0.321,9.624,0.21638455929201603,2.5187017429243377,0.24360902255639094,0,0.05
1757394184.2003717,-0.276,-0.321,9.624,0.21638455929201603,2.5187017429243377,0.24360902255639094,0,0.05
1757394184.2274408,-0.33,-0.477,9.578,0.21701273580138103,3.4654884923691185,0.24631578947368415,0,0.05
1757394184.2547014,-0.33,-0.477,9.578,0.21701273580138103,3.4654884923691185,0.24631578947368415,0,0.05
1757394184.2817032,-0.132,-0.485,9.659,0.21711307537778557,2.9789121111771513,0.2562406015037593,0,0.05
1757394184.308793,-0.132,-0.485,9.659,0.21711307537778557,2.9789121111771513,0.2562406015037593,0,0.05
1757394184.3351753,-0.181,-0.588,9.672,0.21730161067051482,3.639631735500229,0.25869674185463654,0,0.05
1757394184.3619132,-0.181,-0.588,9.672,0.21730161067051482,3.639631735500229,0.25869674185463654,0,0.05
1757394184.3888643,-0.185,-0.842,9.556,0.21749839654581365,5.1549218617698624,0.25889724310776935,0,0.05
1757394184.416557,-0.185,-0.842,9.556,0.21749839654581365,5.1549218617698624,0.25889724310776935,0,0.05
1757394184.4434736,-0.123,-0.808,9.702,0.21758532808992428,4.815297540207557,0.26200501253132824,0,0.05
1757394184.4698005,-0.123,-0.808,9.702,0.21758532808992428,4.815297540207557,0.26200501253132824,0,0.05
1757394184.4964945,-0.143,-0.708,9.732,0.21770277329423252,4.244639705432527,0.2630075187969924,0,0.05
1757394184.5213547,-0.143,-0.708,9.732,0.21770277329423252,4.244639705432527,0.2630075187969924,0,0.05
1757394184.547021,-0.339,-0.728,9.75,0.2183616266654927,4.708544483868566,0.2728320802005012,0,0.05
1757394184.5743525,-0.339,-0.728,9.75,0.2183616266654927,4.708544483868566,0.2728320802005012,0,0.05
1757394184.600727,-0.339,-0.728,9.75,0.2183616266654927,4.708544483868566,0.2728320802005012,0,0.05
1757394184.6269686,-0.099,-0.712,9.824,0.21841772478441396,4.185035091876305,0.28486215538847115,0,0.05
1757394184.6543229,-0.338,-0.513,9.762,0.219070565115444,3.6009733845946648,0.29684210526315785,0,0.05
1757394184.6816754,-0.338,-0.513,9.762,0.219070565115444,3.6009733845946648,0.29684210526315785,0,0.05
1757394184.7087197,-0.338,-0.513,9.762,0.219070565115444,3.6009733845946648,0.29684210526315785,0,0.05
1757394184.7355807,-0.347,-0.59,9.815,0.2197565357389855,3.9892268356235414,0.2972932330827067,0,0.05
1757394184.762402,-0.275,-0.474,9.89,0.22018627909113683,3.171471885164173,0.30090225563909767,0,0.05
1757394184.7896821,-0.275,-0.474,9.89,0.22018627909113683,3.171471885164173,0.30090225563909767,0,0.05
1757394184.8173225,-0.321,-0.535,9.879,0.22077046903967928,3.613736395659635,0.3032080200501253,0,0.05
1757394184.844331,-0.321,-0.535,9.879,0.22077046903967928,3.613736395659635,0.3032080200501253,0,0.05
1757394184.8712494,-0.321,-0.535,9.879,0.22077046903967928,3.613736395659635,0.3032080200501253,0,0.05
1757394184.8979418,-0.406,-0.386,9.826,0.22170180423262234,3.26305651188878,0.307468671679198,0,0.05
1757394184.924423,-0.406,-0.386,9.826,0.22170180423262234,3.26305651188878,0.307468671679198,0,0.05
1757394184.9504807,-0.356,-0.439,9.867,0.22241521980296222,3.278456080302616,0.30997493734335835,0,0.05
1757394184.977107,-0.25,-0.529,9.91,0.2227662003087542,3.3788939730498475,0.3152882205513784,0,0.05
1757394185.0046282,-0.25,-0.529,9.91,0.2227662003087542,3.3788939730498475,0.3152882205513784,0,0.05
1757394185.03163,-0.315,-0.451,9.918,0.22332228393064582,3.1747305394463563,0.3185463659147869,0,0.05
1757394185.0586057,-0.315,-0.451,9.918,0.22332228393064582,3.1747305394463563,0.3185463659147869,0,0.05
1757394185.0855727,-0.315,-0.451,9.918,0.22332228393064582,3.1747305394463563,0.3185463659147869,0,0.05
1757394185.1117556,-0.516,-0.416,9.963,0.22480765667565683,3.8060944302049173,0.3286215538847117,0,0.05
1757394185.1384094,-0.516,-0.416,9.963,0.22480765667565683,3.8060944302049173,0.3286215538847117,0,0.05
1757394185.1650093,-0.387,-0.239,9.989,0.22563888184441971,2.607176749523786,0.3350877192982456,0,0.05
1757394185.190235,-0.387,-0.239,9.989,0.22563888184441971,2.607176749523786,0.3350877192982456,0,0.05
1757394185.2169867,-0.458,-0.21,9.853,0.22679796074920955,2.927363030138897,0.3386466165413533,0,0.05
1757394185.2439914,-0.458,-0.21,9.853,0.22679796074920955,2.927363030138897,0.3386466165413533,0,0.05
1757394185.271062,-0.425,-0.135,9.846,0.22779130251175086,2.593157660198897,0.34030075187969916,0,0.05
1757394185.2979543,-0.425,-0.135,9.846,0.22779130251175086,2.593157660198897,0.34030075187969916,0,0.05
1757394185.32472,-0.523,-0.15,9.876,0.22928737427080453,3.153333336992213,0.3452130325814536,0,0.05
1757394185.3516264,-0.523,-0.15,9.876,0.22928737427080453,3.153333336992213,0.3452130325814536,0,0.05
1757394185.3785956,-0.48,-0.186,9.786,0.23054001821809592,3.011181803154207,0.3473684210526315,0,0.05
1757394185.4056106,-0.48,-0.186,9.786,0.23054001821809592,3.011181803154207,0.3473684210526315,0,0.05
1757394185.43253,-0.477,-0.218,9.846,0.23177040902582882,3.049023453196627,0.3475187969924811,0,0.05
1757394185.4596004,-0.477,-0.218,9.846,0.23177040902582882,3.049023453196627,0.3475187969924811,0,0.05
1757394185.486601,-0.477,-0.218,9.846,0.23177040902582882,3.049023453196627,0.3475187969924811,0,0.05
1757394185.5137556,-0.66,-0.192,9.825,0.23410792916943246,4.00191066068165,0.35669172932330817,0,0.05
1757394185.5403464,-0.527,-0.079,9.69,0.23558617319358957,3.1477327055237927,0.36335839598997494,0,0.05
1757394185.5666904,-0.527,-0.079,9.69,0.23558617319358957,3.1477327055237927,0.36335839598997494,0,0.05
1757394185.5934544,-0.608,-0.131,9.717,0.23753948092896054,3.662314759010277,0.3674185463659147,0,0.05
1757394185.6205673,-0.608,-0.131,9.717,0.23753948092896054,3.662314759010277,0.3674185463659147,0,0.05
1757394185.6473594,-0.535,-0.223,9.844,0.23904093268727009,3.3696889066912212,0.37107769423558895,0,0.05
1757394185.6741052,-0.535,-0.223,9.844,0.23904093268727009,3.3696889066912212,0.37107769423558895,0,0.05
1757394185.7011795,-0.684,-0.11,9.897,0.24147506600061217,4.0041646911905175,0.37854636591478696,0,0.05
1757394185.7279015,-0.684,-0.11,9.897,0.24147506600061217,4.0041646911905175,0.37854636591478696,0,0.05
1757394185.7547593,-0.507,-0.181,9.718,0.2428020387064326,3.170726378346867,0.3874185463659148,0,0.05
1757394185.7817183,-0.507,-0.181,9.718,0.2428020387064326,3.170726378346867,0.3874185463659148,0,0.05
1757394185.808551,-0.481,-0.266,9.798,0.24399023033720021,3.2108337587121767,0.38872180451127814,0,0.05
1757394185.8352594,-0.481,-0.266,9.798,0.24399023033720021,3.2108337587121767,0.38872180451127814,0,0.05
1757394185.8614018,-0.513,-0.18,9.771,0.24533478147217527,3.184677717116804,0.3903258145363408,0,0.05
1757394185.8882906,-0.513,-0.18,9.771,0.24533478147217527,3.184677717116804,0.3903258145363408,0,0.05
1757394185.9152834,-0.435,-0.206,9.827,0.24629701074109686,2.8040207604442458,0.39423558897243094,0,0.05
1757394185.942062,-0.435,-0.206,9.827,0.24629701074109686,2.8040207604442458,0.39423558897243094,0,0.05
1757394185.9686701,-0.371,-0.275,9.819,0.24699457483920573,2.6927514558590913,0.39744360902255627,0,0.05
1757394185.9951406,-0.371,-0.275,9.819,0.24699457483920573,2.6927514558590913,0.39744360902255627,0,0.05
1757394186.0222065,-0.446,-0.124,9.888,0.24799921370843092,2.6804034472971696,0.401203007518797,0,0.05
1757394186.0492263,-0.446,-0.124,9.888,0.24799921370843092,2.6804034472971696,0.401203007518797,0,0.05
1757394186.076388,-0.203,-0.108,9.843,0.24820683411219763,1.338237328074875,0.4133834586466165,0,0.05
1757394186.1043892,-0.203,-0.108,9.843,0.24820683411219763,1.338237328074875,0.4133834586466165,0,0.05
1757394186.1312494,-0.112,-0.467,9.752,0.2482699991944254,2.8192848627315987,0.4179448621553884,0,0.05
1757394186.158352,-0.112,-0.467,9.752,0.2482699991944254,2.8192848627315987,0.4179448621553884,0,0.05
1757394186.185563,-0.175,-0.244,9.673,0.2484241433516477,1.7779984071981612,0.42110275689223053,0,0.05
1757394186.2129107,-0.175,-0.244,9.673,0.2484241433516477,1.7779984071981612,0.42110275689223053,0,0.05
1757394186.2398124,-0.143,-0.103,9.707,0.2485270156341157,1.0401036876136998,0.4227067669172931,0,0.05
1757394186.2669835,-0.143,-0.103,9.707,0.2485270156341157,1.0401036876136998,0.4227067669172931,0,0.05
1757394186.29398,-0.331,-0.23,9.589,0.24907745783189614,2.4069567747506087,0.43213032581453614,0,0.05
1757394186.3213625,-0.331,-0.23,9.589,0.24907745783189614,2.4069567747506087,0.43213032581453614,0,0.05
1757394186.3485315,-0.252,-0.263,9.708,0.2493959502477937,2.148723196196801,0.4360902255639097,0,0.05
1757394186.376291,-0.252,-0.263,9.708,0.2493959502477937,2.148723196196801,0.4360902255639097,0,0.05
1757394186.4033368,-0.104,-0.3,9.721,0.24945015534170348,1.8707771120644585,0.4435087719298245,0,0.05
1757394186.4303312,-0.104,-0.3,9.721,0.24945015534170348,1.8707771120644585,0.4435087719298245,0,0.05
1757394186.456716,-0.556,-0.168,9.701,0.2509944620903019,3.4263740990211122,0.4661654135338345,0,0.05
1757394186.4836493,-0.556,-0.168,9.701,0.2509944620903019,3.4263740990211122,0.4661654135338345,0,0.05
1757394186.5105627,-0.279,-0.211,9.679,0.2513818261131858,2.069790797036479,0.48005012531328306,0,0.05
1757394186.5378952,-0.279,-0.211,9.679,0.2513818261131858,2.069790797036479,0.48005012531328306,0,0.05
1757394186.5648608,-0.287,-0.272,9.74,0.25179107410708584,2.324761290238367,0.4804511278195488,0,0.05
1757394186.5915248,-0.287,-0.272,9.74,0.25179107410708584,2.324761290238367,0.4804511278195488,0,0.05
1757394186.619301,-0.371,-0.189,9.646,0.2524734590011393,2.4716263744408855,0.48466165413533824,0,0.05
1757394186.646482,-0.371,-0.189,9.646,0.2524734590011393,2.4716263744408855,0.48466165413533824,0,0.05
1757394186.6739051,-0.357,-0.317,9.607,0.25310367441030956,2.845024870387777,0.48536340852130333,0,0.05
1757394186.7008317,-0.357,-0.317,9.607,0.25310367441030956,2.845024870387777,0.48536340852130333,0,0.05
1757394186.727377,-0.384,-0.419,9.756,0.25383086888713907,3.334056487459439,0.48671679197994977,0,0.05
1757394186.7536204,-0.384,-0.419,9.756,0.25383086888713907,3.334056487459439,0.48671679197994977,0,0.05
1757394186.7809641,-0.145,-0.501,9.774,0.25393438621029646,3.054525769923408,0.49869674185463647,0,0.05
1757394186.8084998,-0.145,-0.501,9.774,0.25393438621029646,3.054525769923408,0.49869674185463647,0,0.05
1757394186.8356202,-0.145,-0.501,9.774,0.25393438621029646,3.054525769923408,0.49869674185463647,0,0.05
1757394186.863626,-0.151,-0.597,9.702,0.25404660005597396,3.6317760867244626,0.4989974937343358,0,0.05
1757394186.8909786,-0.214,-0.518,9.964,0.2542718328875615,3.219432378715608,0.502155388471178,0,0.05
1757394186.918337,-0.214,-0.518,9.964,0.2542718328875615,3.219432378715608,0.502155388471178,0,0.05
1757394186.945388,0.006,-0.37,9.791,0.2542720098634531,2.1644509077515037,0.5131829573934837,0,0.05
1757394186.9728425,0.006,-0.37,9.791,0.2542720098634531,2.1644509077515037,0.5131829573934837,0,0.05
1757394186.9996464,-0.313,-0.367,9.713,0.2547531697545685,2.842965666206169,0.5291729323308271,0,0.05
1757394187.0259733,-0.313,-0.367,9.713,0.2547531697545685,2.842965666206169,0.5291729323308271,0,0.05
1757394187.0529706,-0.119,-0.226,9.75,0.25482264420572986,1.500602589235563,0.5388972431077694,0,0.05
1757394187.0804427,-0.119,-0.226,9.75,0.25482264420572986,1.500602589235563,0.5388972431077694,0,0.05
1757394187.1070738,-0.315,-0.139,9.808,0.2553089158255152,2.010515034481922,0.5487218045112782,0,0.05
1757394187.1347625,-0.315,-0.139,9.808,0.2553089158255152,2.010515034481922,0.5487218045112782,0,0.05
1757394187.1614673,-0.268,-0.285,9.682,0.2556603264098675,2.313857531273533,0.5510776942355889,0,0.05
1757394187.1886187,-0.268,-0.285,9.682,0.2556603264098675,2.313857531273533,0.5510776942355889,0,0.05
1757394187.2156131,-0.307,-0.293,9.765,0.25612072348796766,2.4884655629940395,0.553032581453634,0,0.05
1757394187.2427623,-0.307,-0.293,9.765,0.25612072348796766,2.4884655629940395,0.553032581453634,0,0.05
1757394187.2702796,-0.356,-0.212,9.835,0.25673851483562027,2.4124114244999313,0.5554887218045113,0,0.05
1757394187.2979903,-0.356,-0.212,9.835,0.25673851483562027,2.4124114244999313,0.5554887218045113,0,0.05
1757394187.3258064,-0.3,-0.25,9.673,0.25717633055940436,2.311854981484283,0.5582957393483707,0,0.05
1757394187.3529246,-0.3,-0.25,9.673,0.25717633055940436,2.311854981484283,0.5582957393483707,0,0.05
1757394187.3800664,-0.438,-0.238,9.81,0.25810709986360314,2.908927923075383,0.5652130325814535,0,0.05
1757394187.4067695,-0.438,-0.238,9.81,0.25810709986360314,2.908927923075383,0.5652130325814535,0,0.05
1757394187.4342747,-0.257,-0.193,9.772,0.2584267739612133,1.8837731623292575,0.5742857142857142,0,0.05
1757394187.4610357,-0.36,-0.189,9.784,0.25905288552726063,2.3796899507411355,0.5794486215538847,0,0.05
1757394187.4873064,-0.36,-0.189,9.784,0.25905288552726063,2.3796899507411355,0.5794486215538847,0,0.05
1757394187.5143206,-0.36,-0.189,9.784,0.25905288552726063,2.3796899507411355,0.5794486215538847,0,0.05
1757394187.5413592,-0.415,-0.379,9.849,0.2598825888742838,3.265962604575828,0.5822055137844611,0,0.05
1757394187.568507,-0.205,-0.379,9.799,0.2600846448754713,2.517835663923841,0.5927318295739347,0,0.05
1757394187.5950234,-0.205,-0.379,9.799,0.2600846448754713,2.517835663923841,0.5927318295739347,0,0.05
1757394187.6208844,-0.205,-0.379,9.799,0.2600846448754713,2.517835663923841,0.5927318295739347,0,0.05
1757394187.6473608,-0.174,-0.32,9.44,0.2602301145140585,2.2096904057711853,0.5942857142857143,0,0.05
1757394187.6744757,-0.174,-0.32,9.44,0.2602301145140585,2.2096904057711853,0.5942857142857143,0,0.05
1757394187.7009447,-0.097,-0.395,9.404,0.2602753061663745,2.47657684340348,0.5981453634085212,0,0.05
1757394187.728348,-0.097,-0.395,9.404,0.2602753061663745,2.47657684340348,0.5981453634085212,0,0.05
1757394187.7552853,-0.228,-0.358,9.601,0.26052484526432407,2.5312684563801375,0.6047117794486215,0,0.05
1757394187.781041,-0.228,-0.358,9.601,0.26052484526432407,2.5312684563801375,0.6047117794486215,0,0.05
1757394187.8080559,-0.174,-0.381,9.475,0.2606700692446296,2.5311702291204243,0.6074185463659149,0,0.05
1757394187.8345954,-0.174,-0.381,9.475,0.2606700692446296,2.5311702291204243,0.6074185463659149,0,0.05
1757394187.8608232,-0.571,-0.39,9.693,0.26222888380191833,4.080442964610345,0.6273182957393484,0,0.05
1757394187.8884077,-0.571,-0.39,9.693,0.26222888380191833,4.080442964610345,0.6273182957393484,0,0.05
1757394187.915451,-0.152,-0.333,9.592,0.2623389934798104,2.1854648371213545,0.6483208020050125,0,0.05
1757394187.9428709,-0.152,-0.333,9.592,0.2623389934798104,2.1854648371213545,0.6483208020050125,0,0.05
1757394187.9695232,-0.519,-0.243,9.717,0.2636193278194905,3.3751715788674064,0.6667167919799498,0,0.05
1757394187.9959354,-0.519,-0.243,9.717,0.2636193278194905,3.3751715788674064,0.6667167919799498,0,0.05
1757394188.0232642,-0.421,-0.156,9.635,0.2644584135549482,2.6679479766068703,0.6716290726817044,0,0.05
1757394188.04988,-0.421,-0.156,9.635,0.2644584135549482,2.6679479766068703,0.6716290726817044,0,0.05
1757394188.075457,-0.555,-0.22,9.738,0.26591035143446373,3.508275651257434,0.6783458646616543,0,0.05
1757394188.1022272,-0.555,-0.22,9.738,0.26591035143446373,3.508275651257434,0.6783458646616543,0,0.05
1757394188.12886,-0.43,-0.225,9.699,0.2667781194176164,2.8645217462060586,0.6846115288220552,0,0.05
1757394188.1549647,-0.43,-0.225,9.699,0.2667781194176164,2.8645217462060586,0.6846115288220552,0,0.05
1757394188.1823575,-0.692,-0.219,9.583,0.26901249970958596,4.331376287654389,0.6977443609022556,0,0.05
1757394188.2098103,-0.692,-0.219,9.583,0.26901249970958596,4.331376287654389,0.6977443609022556,0,0.05
1757394188.235889,-0.631,-0.162,9.803,0.27085628569409276,3.8020319771381255,0.7008020050125313,0,0.05
1757394188.262872,-0.631,-0.162,9.803,0.27085628569409276,3.8020319771381255,0.7008020050125313,0,0.05
1757394188.2892616,-0.482,-0.238,9.692,0.27192634572619107,3.1746025545947005,0.7082706766917294,0,0.05
1757394188.3165672,-0.482,-0.238,9.692,0.27192634572619107,3.1746025545947005,0.7082706766917294,0,0.05
1757394188.3433387,-0.637,-0.219,9.682,0.273785244306555,3.9797617147065,0.7160401002506266,0,0.05
1757394188.3706148,-0.637,-0.219,9.682,0.273785244306555,3.9797617147065,0.7160401002506266,0,0.05
1757394188.397935,-0.425,-0.33,9.702,0.27460867156737784,3.174385863278288,0.7266666666666668,0,0.05
1757394188.4252312,-0.425,-0.33,9.702,0.27460867156737784,3.174385863278288,0.7266666666666668,0,0.05
1757394188.4513535,-0.584,-0.331,9.759,0.2761567715990321,3.9349348742493233,0.7346365914786969,0,0.05
1757394188.4785502,-0.584,-0.331,9.759,0.2761567715990321,3.9349348742493233,0.7346365914786969,0,0.05
1757394188.5050268,-0.179,-0.207,9.555,0.2763017643809029,1.6405336795480685,0.7549373433583964,0,0.05
1757394188.5316885,-0.179,-0.207,9.555,0.2763017643809029,1.6405336795480685,0.7549373433583964,0,0.05
1757394188.5581357,-0.452,-0.251,9.55,0.27722450288529693,3.0988392587914517,0.768621553884712,0,0.05
1757394188.5849807,-0.452,-0.251,9.55,0.27722450288529693,3.0988392587914517,0.768621553884712,0,0.05
1757394188.6120243,-0.202,-0.322,9.55,0.27740842633200596,2.279323475953138,0.7811528822055138,0,0.05
1757394188.6394873,-0.202,-0.322,9.55,0.27740842633200596,2.279323475953138,0.7811528822055138,0,0.05
1757394188.6673062,-0.289,-0.206,9.503,0.2777845163071549,2.138805372577686,0.7855137844611528,0,0.05
1757394188.695205,-0.289,-0.206,9.503,0.2777845163071549,2.138805372577686,0.7855137844611528,0,0.05
1757394188.722051,-0.252,-0.303,9.462,0.27807013054263846,2.3850234192506266,0.7873684210526316,0,0.05
1757394188.7492576,-0.252,-0.303,9.462,0.27807013054263846,2.3850234192506266,0.7873684210526316,0,0.05
1757394188.7760918,-0.229,-0.331,9.468,0.2783057670979888,2.4342386756750263,0.7885213032581454,0,0.05
1757394188.8031003,-0.229,-0.331,9.468,0.2783057670979888,2.4342386756750263,0.7885213032581454,0,0.05
1757394188.8303082,-0.394,-0.269,9.469,0.2790021326083369,2.884262055211838,0.7967919799498747,0,0.05
1757394188.8568006,-0.394,-0.269,9.469,0.2790021326083369,2.884262055211838,0.7967919799498747,0,0.05
1757394188.8844008,-0.356,-0.341,9.476,0.2795693652745236,2.977999222847216,0.7986967418546365,0,0.05
1757394188.9119353,-0.356,-0.341,9.476,0.2795693652745236,2.977999222847216,0.7986967418546365,0,0.05
1757394188.9394271,-0.298,-0.359,9.68,0.2799661408099201,2.7594692217846926,0.8016040100250628,0,0.05
1757394188.96652,-0.298,-0.359,9.68,0.2799661408099201,2.7594692217846926,0.8016040100250628,0,0.05
1757394188.9936771,-0.519,-0.418,9.761,0.2811662186323243,3.905601998516936,0.8126817042606516,0,0.05
1757394189.0208619,-0.519,-0.418,9.761,0.2811662186323243,3.905601998516936,0.8126817042606516,0,0.05
1757394189.0475585,-0.36,-0.369,9.741,0.28174180112294306,3.029421795696929,0.8206516290726819,0,0.05
1757394189.0743504,-0.36,-0.369,9.741,0.28174180112294306,3.029421795696929,0.8206516290726819,0,0.05
1757394189.1007879,-0.337,-0.443,9.801,0.28224522139444624,3.2504187315777706,0.8218045112781955,0,0.05
1757394189.1281254,-0.337,-0.443,9.801,0.28224522139444624,3.2504187315777706,0.8218045112781955,0,0.05
1757394189.1554976,-0.337,-0.443,9.801,0.28224522139444624,3.2504187315777706,0.8218045112781955,0,0.05
1757394189.1828606,-0.337,-0.443,9.801,0.28224522139444624,3.2504187315777706,0.8218045112781955,0,0.05
1757394189.2089865,-0.337,-0.443,9.801,0.28224522139444624,3.2504187315777706,0.8218045112781955,0,0.05
1757394189.2355006,-0.337,-0.443,9.801,0.28224522139444624,3.2504187315777706,0.8218045112781955,0,0.05
1757394189.2624412,-0.337,-0.443,9.801,0.28224522139444624,3.2504187315777706,0.8218045112781955,0,0.05
1757394189.289349,-0.306,-0.438,9.73,0.28265960977826315,3.1431251708748813,0.8233583959899751,0,0.05
1757394189.3168857,-0.346,-0.469,9.691,0.283188532606813,3.441631257769587,0.8253634085213034,0,0.05
1757394189.3437507,-0.197,-0.63,9.784,0.2833597845496076,3.8596403575704934,0.8328320802005015,0,0.05
1757394189.3707922,-0.294,-0.551,9.641,0.28374082804559514,3.706355604872043,0.8376942355889725,0,0.05
1757394189.3984785,-0.124,-0.502,9.553,0.28380855783432607,3.098301723177619,0.8462155388471178,0,0.05
1757394189.4256918,-0.124,-0.502,9.553,0.28380855783432607,3.098301723177619,0.8462155388471178,0,0.05
1757394189.4523268,-0.328,-0.411,9.492,0.28428200347542226,3.1708282104345544,0.8564411027568921,0,0.05
1757394189.478786,-0.33,-0.469,9.642,0.2847604387902224,3.4036930751659713,0.8565413533834586,0,0.05
1757394189.5058854,-0.33,-0.469,9.642,0.2847604387902224,3.4036930751659713,0.8565413533834586,0,0.05
1757394189.5327518,-0.261,-0.402,9.652,0.28505930961819154,2.8428428705607627,0.86,0,0.05
1757394189.558882,-0.261,-0.402,9.652,0.28505930961819154,2.8428428705607627,0.86,0,0.05
1757394189.585943,-0.564,-0.347,9.711,0.2864507811125674,3.9009839097858787,0.875187969924812,0,0.05
1757394189.6140347,-0.564,-0.347,9.711,0.2864507811125674,3.9009839097858787,0.875187969924812,0,0.05
1757394189.6418555,-0.171,-0.313,9.699,0.28657835316017854,2.106011076950582,0.8948872180451126,0,0.05
1757394189.6694949,-0.171,-0.313,9.699,0.28657835316017854,2.106011076950582,0.8948872180451126,0,0.05
1757394189.6965055,-0.313,-0.398,9.75,0.28700535709285985,2.9727897867424806,0.9020050125313283,0,0.05
1757394189.7235603,-0.313,-0.398,9.75,0.28700535709285985,2.9727897867424806,0.9020050125313283,0,0.05
1757394189.749693,-0.283,-0.329,9.584,0.2873539585598222,2.5926209544577117,0.9035087719298246,0,0.05
1757394189.7758818,-0.283,-0.329,9.584,0.2873539585598222,2.5926209544577117,0.9035087719298246,0,0.05
1757394189.8028748,-0.264,-0.453,9.613,0.28765697888283537,3.1219425748289864,0.9044611528822055,0,0.05
1757394189.8299227,-0.264,-0.453,9.613,0.28765697888283537,3.1219425748289864,0.9044611528822055,0,0.05
1757394189.8564043,-0.24,-0.478,9.598,0.2879071681983622,3.1896255949128136,0.9056641604010025,0,0.05
1757394189.8828473,-0.24,-0.478,9.598,0.2879071681983622,3.1896255949128136,0.9056641604010025,0,0.05
1757394189.9095945,0.014,-0.505,9.374,0.287908019165844,3.0848634840291274,0.9183959899749373,0,0.05
1757394189.9364803,0.014,-0.505,9.374,0.287908019165844,3.0848634840291274,0.9183959899749373,0,0.05
1757394189.9625208,-0.181,-0.591,9.404,0.28805022131565877,3.7604632384504497,0.9281704260651629,0,0.05
1757394189.9893696,-0.181,-0.591,9.404,0.28805022131565877,3.7604632384504497,0.9281704260651629,0,0.05
1757394190.0168512,-0.022,-0.475,9.604,0.28805232163619165,2.834489849471401,0.9361403508771929,0,0.05
1757394190.0442255,-0.022,-0.475,9.604,0.28805232163619165,2.834489849471401,0.9361403508771929,0,0.05
1757394190.0712812,-0.181,-0.454,9.572,0.2881944525836679,2.9230087144054386,0.9441102756892231,0,0.05
1757394190.0981328,-0.181,-0.454,9.572,0.2881944525836679,2.9230087144054386,0.9441102756892231,0,0.05
1757394190.1248252,-0.333,-0.467,9.661,0.2886750162379834,3.397617639750367,0.9517293233082705,0,0.05
1757394190.152205,-0.333,-0.467,9.661,0.2886750162379834,3.397617639750367,0.9517293233082705,0,0.05
1757394190.1788888,-0.213,-0.452,9.887,0.28887140304986925,2.893173968814932,0.9577443609022556,0,0.05
1757394190.2055562,-0.213,-0.452,9.887,0.28887140304986925,2.893173968814932,0.9577443609022556,0,0.05
1757394190.232272,-0.418,-0.44,9.828,0.2896264792797786,3.5336324440552542,0.9680200501253131,0,0.05
1757394190.2595663,-0.418,-0.44,9.828,0.2896264792797786,3.5336324440552542,0.9680200501253131,0,0.05
1757394190.286523,-0.516,-0.475,9.868,0.29077334386081544,4.065311819764922,0.9729323308270678,0,0.05
1757394190.313573,-0.516,-0.475,9.868,0.29077334386081544,4.065311819764922,0.9729323308270678,0,0.05
1757394190.3397307,-0.421,-0.39,9.976,0.29153428614830196,3.2923857306698983,0.9776942355889724,0,0.05
1757394190.3668838,-0.421,-0.39,9.976,0.29153428614830196,3.2923857306698983,0.9776942355889724,0,0.05
1757394190.3933797,-0.506,-0.353,9.943,0.29263002238321345,3.550657725471429,0.981954887218045,0,0.05
1757394190.420689,-0.506,-0.353,9.943,0.29263002238321345,3.550657725471429,0.981954887218045,0,0.05
1757394190.448047,-0.538,-0.315,9.814,0.2938638119946041,3.6348238051537285,0.9835588972431076,0,0.05
1757394190.4741497,-0.538,-0.315,9.814,0.2938638119946041,3.6348238051537285,0.9835588972431076,0,0.05
1757394190.501417,-0.753,-0.302,9.931,0.29626586455411974,4.670350915246977,0.9943358395989972,0,0.05
1757394190.5292192,-0.753,-0.302,9.931,0.29626586455411974,4.670350915246977,0.9943358395989972,0,0.05
1757394190.5561936,-0.514,-0.255,10.126,0.2973784667725624,3.243129647829117,1.0063157894736838,0,0.05
1757394190.5827746,-0.514,-0.255,10.126,0.2973784667725624,3.243129647829117,1.0063157894736838,0,0.05
1757394190.6087375,-0.564,-0.242,9.969,0.2987125583232148,3.522881368922329,1.0088220551378444,0,0.05
1757394190.635509,-0.564,-0.242,9.969,0.2987125583232148,3.522881368922329,1.0088220551378444,0,0.05
1757394190.6622684,-0.738,-0.212,10.01,0.3009830601545542,4.386450424231173,1.0175438596491226,0,0.05
1757394190.6896079,-0.738,-0.212,10.01,0.3009830601545542,4.386450424231173,1.0175438596491226,0,0.05
1757394190.7165408,-0.388,-0.077,10.006,0.30160763004274277,2.263892210905084,1.0350877192982453,0,0.05
1757394190.743922,-0.388,-0.077,10.006,0.30160763004274277,2.263892210905084,1.0350877192982453,0,0.05
1757394190.7710648,-0.37,-0.069,9.808,0.3021744736075501,2.1976285061043455,1.0359899749373433,0,0.05
1757394190.7978005,-0.37,-0.069,9.808,0.3021744736075501,2.1976285061043455,1.0359899749373433,0,0.05
1757394190.8240287,-0.258,-0.245,9.74,0.30244970243000735,2.0920333381573393,1.0416040100250625,0,0.05
1757394190.8507328,-0.258,-0.245,9.74,0.30244970243000735,2.0920333381573393,1.0416040100250625,0,0.05
1757394190.8774738,-0.294,-0.219,9.725,0.3028067246611277,2.1588487559811127,1.0434085213032582,0,0.05
1757394190.9043164,-0.294,-0.219,9.725,0.3028067246611277,2.1588487559811127,1.0434085213032582,0,0.05
1757394190.9312906,-0.41,-0.266,9.827,0.30349985584840067,2.8471613261180893,1.0492230576441102,0,0.05
1757394190.9583588,-0.41,-0.266,9.827,0.30349985584840067,2.8471613261180893,1.0492230576441102,0,0.05
1757394190.985318,-0.286,-0.347,9.715,0.30383655556894396,2.6501222718296016,1.055438596491228,0,0.05
1757394191.0123131,-0.286,-0.347,9.715,0.30383655556894396,2.6501222718296016,1.055438596491228,0,0.05
1757394191.0387704,-0.286,-0.347,9.715,0.30383655556894396,2.6501222718296016,1.055438596491228,0,0.05
1757394191.0651822,-0.224,-0.352,9.642,0.3040429122673311,2.4777591940608756,1.058546365914787,0,0.05
1757394191.0922387,-0.076,-0.341,9.518,0.3040666579880142,2.102148279335425,1.0659649122807018,0,0.05
1757394191.1199389,-0.076,-0.341,9.518,0.3040666579880142,2.102148279335425,1.0659649122807018,0,0.05
1757394191.1472318,-0.355,-0.266,9.588,0.3045842986760808,2.6489673056247525,1.0799498746867167,0,0.05
1757394191.1749997,-0.355,-0.266,9.588,0.3045842986760808,2.6489673056247525,1.0799498746867167,0,0.05
1757394191.2017217,-0.168,-0.344,9.602,0.3047001066622721,2.283172352925769,1.0893233082706766,0,0.05
1757394191.2279963,-0.168,-0.344,9.602,0.3047001066622721,2.283172352925769,1.0893233082706766,0,0.05
1757394191.2547357,-0.253,-0.276,9.716,0.30496258377053403,2.20684109006421,1.0935839598997492,0,0.05
1757394191.2815945,-0.253,-0.276,9.716,0.30496258377053403,2.20684109006421,1.0935839598997492,0,0.05
1757394191.3084588,-0.353,-0.265,9.675,0.30547291205604465,2.61217930849151,1.0985964912280701,0,0.05
1757394191.3354895,-0.353,-0.265,9.675,0.30547291205604465,2.61217930849151,1.0985964912280701,0,0.05
1757394191.362605,-0.236,-0.139,9.576,0.3057007360148156,1.6383246102878735,1.1044611528822055,0,0.05
1757394191.3904836,-0.236,-0.139,9.576,0.3057007360148156,1.6383246102878735,1.1044611528822055,0,0.05
1757394191.4178345,-0.169,-0.155,10.022,0.30581749868181185,1.3107731224761505,1.10781954887218,0,0.05
1757394191.4444778,-0.169,-0.155,10.022,0.30581749868181185,1.3107731224761505,1.10781954887218,0,0.05
1757394191.4707875,-0.357,-0.209,9.837,0.3063379914408267,2.408059525075848,1.1172431077694231,0,0.05
1757394191.4983926,-0.357,-0.209,9.837,0.3063379914408267,2.408059525075848,1.1172431077694231,0,0.05
1757394191.5250232,-0.235,-0.171,9.85,0.30656325203781354,1.6900571234000488,1.1233583959899747,0,0.05
1757394191.5523756,-0.235,-0.171,9.85,0.30656325203781354,1.6900571234000488,1.1233583959899747,0,0.05
1757394191.579658,-0.4,-0.191,9.836,0.3072149532493495,2.5803026664484707,1.131629072681704,0,0.05
1757394191.606509,-0.4,-0.191,9.836,0.3072149532493495,2.5803026664484707,1.131629072681704,0,0.05
1757394191.63429,-0.061,-0.254,9.783,0.30723009292710896,1.529527744712985,1.1486215538847113,0,0.05
1757394191.661793,-0.061,-0.254,9.783,0.30723009292710896,1.529527744712985,1.1486215538847113,0,0.05
1757394191.6889088,-0.402,-0.263,9.721,0.3078868948169116,2.8291177978687907,1.1657142857142855,0,0.05
1757394191.716903,-0.402,-0.263,9.721,0.3078868948169116,2.8291177978687907,1.1657142857142855,0,0.05
1757394191.7439885,-0.161,-0.456,9.751,0.30799211434710466,2.8391804019899674,1.1777944862155387,0,0.05
1757394191.7714238,-0.161,-0.456,9.751,0.30799211434710466,2.8391804019899674,1.1777944862155387,0,0.05
1757394191.798371,-0.015,-0.531,9.748,0.30799302751848134,3.119216329660126,1.185112781954887,0,0.05
1757394191.8256226,-0.015,-0.531,9.748,0.30799302751848134,3.119216329660126,1.185112781954887,0,0.05
1757394191.852278,-0.247,-0.53,9.663,0.30824053513449523,3.4628738314818746,1.1967418546365913,0,0.05
1757394191.8795576,-0.247,-0.53,9.663,0.30824053513449523,3.4628738314818746,1.1967418546365913,0,0.05
1757394191.906911,-0.131,-0.538,9.734,0.308310119846884,3.2557654971510694,1.2025563909774435,0,0.05
1757394191.9342222,-0.131,-0.538,9.734,0.308310119846884,3.2557654971510694,1.2025563909774435,0,0.05
1757394191.9610407,-0.176,-0.426,9.538,0.30843568211217065,2.7666740448194482,1.2048120300751877,0,0.05
1757394191.988082,-0.176,-0.426,9.538,0.30843568211217065,2.7666740448194482,1.2048120300751877,0,0.05
1757394192.0151422,-0.162,-0.387,9.528,0.3085420230697919,2.5212320351351063,1.2055137844611528,0,0.05
1757394192.042146,-0.162,-0.387,9.528,0.3085420230697919,2.5212320351351063,1.2055137844611528,0,0.05
1757394192.06842,-0.213,-0.25,9.518,0.30872577232877724,1.9763004726184683,1.208070175438596,0,0.05
1757394192.0955873,-0.213,-0.25,9.518,0.30872577232877724,1.9763004726184683,1.208070175438596,0,0.05
1757394192.1227238,-0.317,-0.284,9.652,0.3091323745582141,2.5248596791255227,1.2132832080200497,0,0.05
1757394192.149922,-0.317,-0.284,9.652,0.3091323745582141,2.5248596791255227,1.2132832080200497,0,0.05
1757394192.177621,-0.23,-0.214,9.628,0.3093462057307314,1.8688836584902873,1.217644110275689,0,0.05
1757394192.2048807,-0.23,-0.214,9.628,0.3093462057307314,1.8688836584902873,1.217644110275689,0,0.05
1757394192.2309356,-0.213,-0.165,9.492,0.3095294775946226,1.6259181044118909,1.2184962406015034,0,0.05
1757394192.258302,-0.213,-0.165,9.492,0.3095294775946226,1.6259181044118909,1.2184962406015034,0,0.05
1757394192.2859788,-0.283,-0.252,9.712,0.30985273921655104,2.234397079277929,1.2220050125313278,0,0.05
1757394192.3126273,-0.283,-0.252,9.712,0.30985273921655104,2.234397079277929,1.2220050125313278,0,0.05
1757394192.3396134,-0.359,-0.35,9.743,0.3103722321664746,2.945867647789571,1.225814536340852,0,0.05
1757394192.3669798,-0.359,-0.35,9.743,0.3103722321664746,2.945867647789571,1.225814536340852,0,0.05
1757394192.3945053,-0.266,-0.319,9.915,0.3106570657493565,2.3987887930397647,1.23047619047619,0,0.05
1757394192.4216561,-0.266,-0.319,9.915,0.3106570657493565,2.3987887930397647,1.23047619047619,0,0.05
1757394192.4488375,-0.332,-0.233,9.779,0.31110026116993217,2.3750865471185953,1.2337844611528819,0,0.05
1757394192.476569,-0.332,-0.233,9.779,0.31110026116993217,2.3750865471185953,1.2337844611528819,0,0.05
1757394192.5042288,-0.249,-0.282,9.814,0.31134928135455847,2.195232774007395,1.2379448621553883,0,0.05
1757394192.5315323,-0.249,-0.282,9.814,0.31134928135455847,2.195232774007395,1.2379448621553883,0,0.05
1757394192.5585408,-0.278,-0.158,9.718,0.3116594054412605,1.8845882878119806,1.2393984962406013,0,0.05
1757394192.5851731,-0.278,-0.158,9.718,0.3116594054412605,1.8845882878119806,1.2393984962406013,0,0.05
1757394192.6120913,-0.564,-0.325,9.903,0.3129326205431451,3.7607246894272115,1.2537343358395987,0,0.05
1757394192.6394823,-0.564,-0.325,9.903,0.3129326205431451,3.7607246894272115,1.2537343358395987,0,0.05
1757394192.6671886,-0.349,-0.369,9.992,0.31341877336879487,2.9098758246274583,1.2645112781954886,0,0.05
1757394192.6947944,-0.349,-0.369,9.992,0.31341877336879487,2.9098758246274583,1.2645112781954886,0,0.05
1757394192.7219074,-0.647,-0.191,9.852,0.3150838777214728,3.9171436466679133,1.2794486215538847,0,0.05
1757394192.7484338,-0.647,-0.191,9.852,0.3150838777214728,3.9171436466679133,1.2794486215538847,0,0.05
1757394192.7749324,-0.586,-0.165,9.796,0.3164432650571031,3.5561550935536625,1.2825062656641601,0,0.05
1757394192.8015516,-0.586,-0.165,9.796,0.3164432650571031,3.5561550935536625,1.2825062656641601,0,0.05
1757394192.8282204,-0.376,-0.22,9.891,0.3170012302815243,2.521868826436979,1.293032581453634,0,0.05
1757394192.855556,-0.376,-0.22,9.891,0.3170012302815243,2.521868826436979,1.293032581453634,0,0.05
1757394192.8822525,-0.45,-0.113,9.771,0.3177987256110383,2.718618525519204,1.2967418546365914,0,0.05
1757394192.9095602,-0.45,-0.113,9.771,0.3177987256110383,2.718618525519204,1.2967418546365914,0,0.05
1757394192.9359252,-0.552,-0.247,9.754,0.31899496861235915,3.54776250895864,1.3018546365914785,0,0.05
1757394192.9628792,-0.552,-0.247,9.754,0.31899496861235915,3.54776250895864,1.3018546365914785,0,0.05
1757394192.9890578,-0.284,-0.284,9.906,0.31931086733777164,2.3217734467985207,1.3152882205513785,0,0.05
1757394193.0160103,-0.284,-0.284,9.906,0.31931086733777164,2.3217734467985207,1.3152882205513785,0,0.05
1757394193.0427895,-0.14,-0.388,9.705,0.3193875858576848,2.4337395866360865,1.3225062656641606,0,0.05
1757394193.0682712,-0.14,-0.388,9.705,0.3193875858576848,2.4337395866360865,1.3225062656641606,0,0.05
1757394193.0947607,-0.258,-0.46,9.814,0.3196479938932825,3.0761638948318835,1.3284210526315792,0,0.05
1757394193.1227849,-0.258,-0.46,9.814,0.3196479938932825,3.0761638948318835,1.3284210526315792,0,0.05
1757394193.1499648,-0.347,-0.369,9.91,0.3201185132103421,2.9259987914287393,1.3328822055137846,0,0.05
1757394193.177142,-0.347,-0.369,9.91,0.3201185132103421,2.9259987914287393,1.3328822055137846,0,0.05
1757394193.2034633,-0.353,-0.494,9.765,0.3206047176820703,3.5579171487281505,1.3331829573934835,0,0.05
1757394193.2294827,-0.353,-0.494,9.765,0.3206047176820703,3.5579171487281505,1.3331829573934835,0,0.05
1757394193.255991,-0.511,-0.368,9.743,0.32162118633572634,3.698047787021571,1.3411027568922307,0,0.05
1757394193.2823021,-0.511,-0.368,9.743,0.32162118633572634,3.698047787021571,1.3411027568922307,0,0.05
1757394193.3092,-0.093,-0.304,9.835,0.3216547994356683,1.851388108372216,1.3620551378446113,0,0.05
1757394193.335615,-0.093,-0.304,9.835,0.3216547994356683,1.851388108372216,1.3620551378446113,0,0.05
1757394193.3626137,-0.423,-0.409,9.912,0.32234939506690563,3.3972052865519977,1.37859649122807,0,0.05
1757394193.3898199,-0.423,-0.409,9.912,0.32234939506690563,3.3972052865519977,1.37859649122807,0,0.05
1757394193.4167018,-0.228,-0.324,9.753,0.3225509145855891,2.326163281763637,1.3883709273182956,0,0.05
1757394193.4425137,-0.228,-0.324,9.753,0.3225509145855891,2.326163281763637,1.3883709273182956,0,0.05
1757394193.4684432,-0.373,-0.264,9.845,0.3230896392643998,2.6575812356379154,1.395639097744361,0,0.05
1757394193.4958274,-0.373,-0.264,9.845,0.3230896392643998,2.6575812356379154,1.395639097744361,0,0.05
1757394193.5288758,-0.229,-0.412,9.739,0.3232924643414999,2.770938338807819,1.4028571428571428,0,0.05
1757394193.554551,-0.229,-0.412,9.739,0.3232924643414999,2.770938338807819,1.4028571428571428,0,0.05
1757394193.5800781,-0.263,-0.431,9.643,0.3235597935467261,2.99726076662502,1.4045614035087721,0,0.05
1757394193.6074595,-0.263,-0.431,9.643,0.3235597935467261,2.99726076662502,1.4045614035087721,0,0.05
1757394193.6351197,-0.396,-0.447,9.612,0.3241650505529552,3.5551416290295395,1.4112280701754387,0,0.05
1757394193.6622076,-0.396,-0.447,9.612,0.3241650505529552,3.5551416290295395,1.4112280701754387,0,0.05
1757394193.6886206,-0.126,-0.4,9.66,0.32422626358763723,2.4858571820297906,1.4247619047619045,0,0.05
1757394193.7160888,-0.126,-0.4,9.66,0.32422626358763723,2.4858571820297906,1.4247619047619045,0,0.05
1757394193.7431424,-0.164,-0.585,9.639,0.3243299400302106,3.606624132700123,1.4266666666666663,0,0.05
1757394193.770128,-0.164,-0.585,9.639,0.3243299400302106,3.606624132700123,1.4266666666666663,0,0.05
1757394193.7968109,-0.283,-0.288,9.863,0.3246384642952834,2.3442769574865703,1.4326315789473683,0,0.05
1757394193.8226569,-0.283,-0.288,9.863,0.3246384642952834,2.3442769574865703,1.4326315789473683,0,0.05
1757394193.8499389,-0.144,-0.22,9.875,0.3247182971438474,1.5252289842732165,1.439598997493734,0,0.05
1757394193.8773212,-0.144,-0.22,9.875,0.3247182971438474,1.5252289842732165,1.439598997493734,0,0.05
1757394193.9037309,-0.113,-0.231,9.685,0.32476744756825615,1.5209685650975309,1.4411528822055137,0,0.05
1757394193.9293451,-0.113,-0.231,9.685,0.32476744756825615,1.5209685650975309,1.4411528822055137,0,0.05
1757394193.9551268,-0.238,-0.333,9.726,0.3249853919793934,2.4098075466747493,1.4474185463659148,0,0.05
1757394193.981195,-0.238,-0.333,9.726,0.3249853919793934,2.4098075466747493,1.4474185463659148,0,0.05
1757394194.0082557,-0.084,-0.24,9.699,0.3250125305276706,1.5017603039083556,1.4551378446115286,0,0.05
1757394194.034814,-0.084,-0.24,9.699,0.3250125305276706,1.5017603039083556,1.4551378446115286,0,0.05
1757394194.0615718,-0.117,-0.305,9.732,0.3250651742343372,1.9225082022853304,1.4567919799498747,0,0.05
1757394194.0874658,-0.117,-0.305,9.732,0.3250651742343372,1.9225082022853304,1.4567919799498747,0,0.05
1757394194.1142433,-0.223,-0.296,9.609,0.32525634505724865,2.2086945885198186,1.4621052631578948,0,0.05
1757394194.1407332,-0.223,-0.296,9.609,0.32525634505724865,2.2086945885198186,1.4621052631578948,0,0.05
1757394194.167965,-0.069,-0.314,9.733,0.3252746416491762,1.8918556003016866,1.4698245614035086,0,0.05
1757394194.1963215,-0.069,-0.314,9.733,0.3252746416491762,1.8918556003016866,1.4698245614035086,0,0.05
1757394194.221839,-0.047,-0.302,9.765,0.3252831305186299,1.7927192779137542,1.4709273182957392,0,0.05
1757394194.2497003,-0.047,-0.302,9.765,0.3252831305186299,1.7927192779137542,1.4709273182957392,0,0.05
1757394194.2764685,-0.123,-0.374,9.667,0.3253412631376475,2.332189424163567,1.4747368421052631,0,0.05
1757394194.3029106,-0.123,-0.374,9.667,0.3253412631376475,2.332189424163567,1.4747368421052631,0,0.05
1757394194.3297582,-0.135,-0.313,9.685,0.3254112782311025,2.015745166567902,1.4753383458646616,0,0.05
1757394194.3565621,-0.135,-0.313,9.685,0.3254112782311025,2.015745166567902,1.4753383458646616,0,0.05
1757394194.3836055,-0.054,-0.275,9.671,0.3254224792481306,1.6598847667247882,1.4793984962406015,0,0.05
1757394194.4105542,-0.054,-0.275,9.671,0.3254224792481306,1.6598847667247882,1.4793984962406015,0,0.05
1757394194.4491234,-0.304,-0.366,9.752,0.3257772705392443,2.793161595234902,1.4919298245614034,0,0.05
1757394194.476118,-0.304,-0.366,9.752,0.3257772705392443,2.793161595234902,1.4919298245614034,0,0.05
1757394194.5017447,-0.139,-0.161,9.635,0.325851396345021,1.2646526992343008,1.5002005012531328,0,0.05
1757394194.5275877,-0.139,-0.161,9.635,0.325851396345021,1.2646526992343008,1.5002005012531328,0,0.05
1757394194.5534618,-0.425,-0.175,9.746,0.3265435575845893,2.7000569863686694,1.5145363408521302,0,0.05
1757394194.5791805,-0.425,-0.175,9.746,0.3265435575845893,2.7000569863686694,1.5145363408521302,0,0.05
1757394194.605568,-0.446,-0.105,9.592,0.32730411699213313,2.73484107389244,1.5155889724310778,0,0.05
1757394194.6327145,-0.446,-0.105,9.592,0.32730411699213313,2.73484107389244,1.5155889724310778,0,0.05
1757394194.660098,-0.401,-0.064,9.67,0.327917653535152,2.404625492161637,1.517844611528822,0,0.05
1757394194.6874654,-0.401,-0.064,9.67,0.327917653535152,2.404625492161637,1.517844611528822,0,0.05
1757394194.7144778,-0.493,-0.07,9.815,0.3288428348010642,2.9042989795726513,1.522456140350877,0,0.05
1757394194.741113,-0.493,-0.07,9.815,0.3288428348010642,2.9042989795726513,1.522456140350877,0,0.05
1757394194.7672174,-0.412,-0.17,9.754,0.3294874352687823,2.6162282178451077,1.5265162907268168,0,0.05
1757394194.7944992,-0.412,-0.17,9.754,0.3294874352687823,2.6162282178451077,1.5265162907268168,0,0.05
1757394194.8216739,-0.556,-0.132,9.84,0.3306581467316358,3.3236975499586907,1.5337343358395987,0,0.05
1757394194.8486316,-0.556,-0.132,9.84,0.3306581467316358,3.3236975499586907,1.5337343358395987,0,0.05
1757394194.8756576,-0.311,-0.179,9.743,0.33102358299674056,2.1092474682182862,1.5460150375939847,0,0.05
1757394194.9033928,-0.311,-0.179,9.743,0.33102358299674056,2.1092474682182862,1.5460150375939847,0,0.05
1757394194.930982,-0.491,-0.129,9.702,0.33193269649132184,2.9953061353255523,1.555037593984962,0,0.05
1757394194.9585502,-0.491,-0.129,9.702,0.33193269649132184,2.9953061353255523,1.555037593984962,0,0.05
1757394194.9857833,-0.266,-0.277,9.51,0.33219904424907665,2.3124914381143853,1.566315789473684,0,0.05
1757394195.013369,-0.266,-0.277,9.51,0.33219904424907665,2.3124914381143853,1.566315789473684,0,0.05
1757394195.0410342,-0.266,-0.277,9.51,0.33219904424907665,2.3124914381143853,1.566315789473684,0,0.05
1757394195.0684137,-0.266,-0.277,9.51,0.33219904424907665,2.3124914381143853,1.566315789473684,0,0.05
1757394195.0944445,-0.266,-0.277,9.51,0.33219904424907665,2.3124914381143853,1.566315789473684,0,0.05
1757394195.1212316,-0.266,-0.277,9.51,0.33219904424907665,2.3124914381143853,1.566315789473684,0,0.05
1757394195.1479926,-0.266,-0.277,9.51,0.33219904424907665,2.3124914381143853,1.566315789473684,0,0.05
1757394195.174265,-0.498,-0.312,9.668,0.33313092771461494,3.4784074260632356,1.5779448621553882,0,0.05
1757394195.2016594,-0.464,-0.388,9.773,0.3339378010947548,3.5414959541272797,1.5796491228070175,0,0.05
1757394195.228839,-0.552,-0.222,9.664,0.3350764315794234,3.5229962159568124,1.5840601503759395,0,0.05
1757394195.2563825,-0.508,-0.357,9.864,0.3360377582951059,3.601774196868374,1.586265664160401,0,0.05
1757394195.2839286,-0.241,-0.616,9.689,0.33625373975615497,3.905509633124869,1.5996491228070173,0,0.05
1757394195.311357,-0.391,-0.528,9.585,0.3368215848190255,3.9212554174853906,1.6071679197994988,0,0.05
1757394195.3377314,-0.391,-0.528,9.585,0.3368215848190255,3.9212554174853906,1.6071679197994988,0,0.05
1757394195.3647273,-0.395,-0.402,9.711,0.3374001222584248,3.3214817578000218,1.6073684210526313,0,0.05
1757394195.39062,-0.395,-0.402,9.711,0.3374001222584248,3.3214817578000218,1.6073684210526313,0,0.05
1757394195.4178305,-0.242,-0.301,9.664,0.33761702045364955,2.288590665012784,1.6150375939849622,0,0.05
1757394195.4456425,-0.242,-0.301,9.664,0.33761702045364955,2.288590665012784,1.6150375939849622,0,0.05
1757394195.4728613,-0.452,-0.457,9.559,0.33837259419166915,3.8469128324274138,1.6255639097744359,0,0.05
1757394195.5014095,-0.452,-0.457,9.559,0.33837259419166915,3.8469128324274138,1.6255639097744359,0,0.05
1757394195.5289261,-0.246,-0.473,9.631,0.3385960757303605,3.168506719544447,1.635889724310777,0,0.05
1757394195.556836,-0.246,-0.473,9.631,0.3385960757303605,3.168506719544447,1.635889724310777,0,0.05
1757394195.58435,-0.23,-0.399,9.726,0.3387913111341553,2.7110370235165857,1.636691729323308,0,0.05
1757394195.6120832,-0.23,-0.399,9.726,0.3387913111341553,2.7110370235165857,1.636691729323308,0,0.05
1757394195.639727,-0.194,-0.558,9.743,0.33893014398250265,3.4698544259058717,1.6384962406015038,0,0.05
1757394195.6674106,-0.194,-0.558,9.743,0.33893014398250265,3.4698544259058717,1.6384962406015038,0,0.05
1757394195.6949744,-0.333,-0.452,9.975,0.3393388645587181,3.2213659185111587,1.6454636591478693,0,0.05
1757394195.7227843,-0.333,-0.452,9.975,0.3393388645587181,3.2213659185111587,1.6454636591478693,0,0.05
1757394195.7503161,-0.527,-0.593,9.976,0.34036037886334536,4.546832577742732,1.655187969924812,0,0.05
1757394195.7780912,-0.527,-0.593,9.976,0.34036037886334536,4.546832577742732,1.655187969924812,0,0.05
1757394195.8054411,-0.108,-0.741,9.98,0.34040321311644517,4.291032058659609,1.6761904761904758,0,0.05
1757394195.8332376,-0.295,-0.561,9.737,0.34072262912815166,3.7244396169597143,1.685563909774436,0,0.05
1757394195.8612375,-0.295,-0.561,9.737,0.34072262912815166,3.7244396169597143,1.685563909774436,0,0.05
1757394195.8885207,-0.295,-0.561,9.737,0.34072262912815166,3.7244396169597143,1.685563909774436,0,0.05
1757394195.9157643,-0.295,-0.561,9.737,0.34072262912815166,3.7244396169597143,1.685563909774436,0,0.05
1757394195.9430573,-0.349,-0.418,9.783,0.34116918456976736,3.1859086481265284,1.6882706766917293,0,0.05
1757394195.9704294,-0.035,-0.366,9.861,0.341173672782646,2.135297402336835,1.7040100250626562,0,0.05
1757394195.998487,-0.334,-0.419,9.632,0.34158214970926104,3.1841110109466793,1.7189974937343355,0,0.05
1757394196.0246797,-0.334,-0.419,9.632,0.34158214970926104,3.1841110109466793,1.7189974937343355,0,0.05
1757394196.0514085,-0.274,-0.609,9.683,0.34185677556544053,3.945227549301859,1.7220050125313282,0,0.05
1757394196.0785677,-0.274,-0.609,9.683,0.34185677556544053,3.945227549301859,1.7220050125313282,0,0.05
1757394196.1055455,-0.056,-0.254,9.832,0.3418682421635563,1.515373895248639,1.7329323308270674,0,0.05
1757394196.133807,-0.056,-0.254,9.832,0.3418682421635563,1.515373895248639,1.7329323308270674,0,0.05
1757394196.16106,-0.377,-0.571,9.684,0.3423875253276614,4.041555084432579,1.7490225563909771,0,0.05
1757394196.1886382,-0.377,-0.571,9.684,0.3423875253276614,4.041555084432579,1.7490225563909771,0,0.05
1757394196.216348,-0.255,-0.576,9.581,0.34262483856253034,3.761608309629681,1.7551378446115287,0,0.05
1757394196.2440789,-0.255,-0.576,9.581,0.34262483856253034,3.761608309629681,1.7551378446115287,0,0.05
1757394196.2714276,-0.12,-0.375,9.751,0.3426773701311483,2.3122696720205216,1.7619047619047616,0,0.05
1757394196.2987933,-0.12,-0.375,9.751,0.3426773701311483,2.3122696720205216,1.7619047619047616,0,0.05
1757394196.3260548,-0.295,-0.496,9.692,0.3429946683259085,3.4075764554483983,1.7706766917293233,0,0.05
1757394196.3536384,-0.295,-0.496,9.692,0.3429946683259085,3.4075764554483983,1.7706766917293233,0,0.05
1757394196.380947,-0.369,-0.428,9.602,0.34349053116497985,3.368141467766741,1.7743859649122804,0,0.05
1757394196.408661,-0.369,-0.428,9.602,0.34349053116497985,3.368141467766741,1.7743859649122804,0,0.05
1757394196.43601,-0.214,-0.079,9.893,0.3436571474594992,1.320911730321219,1.7821553884711778,0,0.05
1757394196.4650087,-0.214,-0.079,9.893,0.3436571474594992,1.320911730321219,1.7821553884711778,0,0.05
1757394196.491956,-0.486,-0.138,9.99,0.3445152028575807,2.8950874318329687,1.7957894736842104,0,0.05
1757394196.51908,-0.486,-0.138,9.99,0.3445152028575807,2.8950874318329687,1.7957894736842104,0,0.05
1757394196.5459204,-0.149,-0.087,9.723,0.34459574504047497,1.0166376357426707,1.8126817042606518,0,0.05
1757394196.57267,-0.149,-0.087,9.723,0.34459574504047497,1.0166376357426707,1.8126817042606518,0,0.05
1757394196.59868,-0.295,-0.371,9.713,0.34491127844708125,2.79378855509349,1.8199999999999998,0,0.05
1757394196.6262648,-0.295,-0.371,9.713,0.34491127844708125,2.79378855509349,1.8199999999999998,0,0.05
1757394196.6537778,-0.071,-0.191,9.67,0.3449295471541978,1.2071771905116726,1.8312280701754384,0,0.05
1757394196.681788,-0.071,-0.191,9.67,0.3449295471541978,1.2071771905116726,1.8312280701754384,0,0.05
1757394196.7094688,-0.101,-0.234,9.569,0.34496651286755353,1.5256903255102607,1.8327318295739348,0,0.05
1757394196.7370765,-0.101,-0.234,9.569,0.34496651286755353,1.5256903255102607,1.8327318295739348,0,0.05
1757394196.764692,-0.289,-0.369,9.563,0.3452690219234851,2.805939632519594,1.842155388471178,0,0.05
1757394196.7926385,-0.289,-0.369,9.563,0.3452690219234851,2.805939632519594,1.842155388471178,0,0.05
1757394196.8201149,0.115,-0.452,9.637,0.3453168979357946,2.770770934328489,1.8624060150375938,0,0.05
1757394196.8479214,0.115,-0.452,9.637,0.3453168979357946,2.770770934328489,1.8624060150375938,0,0.05
1757394196.875392,-0.203,-0.773,9.632,0.34546603668088705,4.743226057040855,1.8783458646616542,0,0.05
1757394196.9023333,-0.203,-0.773,9.632,0.34546603668088705,4.743226057040855,1.8783458646616542,0,0.05
1757394196.9298189,-0.204,-0.792,9.59,0.34561658308015253,4.874483062375845,1.8783959899749374,0,0.05
1757394196.9574687,-0.204,-0.792,9.59,0.34561658308015253,4.874483062375845,1.8783959899749374,0,0.05
1757394196.9849267,-0.262,-0.531,9.803,0.34586476041944486,3.4565700165994766,1.881303258145363,0,0.05
1757394197.0132084,-0.262,-0.531,9.803,0.34586476041944486,3.4565700165994766,1.881303258145363,0,0.05
1757394197.0413077,-0.08,-0.662,9.581,0.3458878900742262,3.9812390821102794,1.8904260651629072,0,0.05
1757394197.069042,-0.08,-0.662,9.581,0.3458878900742262,3.9812390821102794,1.8904260651629072,0,0.05
1757394197.096743,-0.426,-0.696,9.493,0.3465431033796517,4.91309051247037,1.9077694235588971,0,0.05
1757394197.1243536,-0.426,-0.696,9.493,0.3465431033796517,4.91309051247037,1.9077694235588971,0,0.05
1757394197.1519084,-0.174,-0.571,9.646,0.3466522933719031,3.5411162751565333,1.9204010025062657,0,0.05
1757394197.1794665,-0.174,-0.571,9.646,0.3466522933719031,3.5411162751565333,1.9204010025062657,0,0.05
1757394197.206925,-0.207,-0.567,9.605,0.34680676896508233,3.5958930649863823,1.9220551378446116,0,0.05
1757394197.2345607,-0.405,-0.621,9.523,0.3473974632895295,4.451671891929977,1.931979949874687,0,0.05
1757394197.262144,-0.405,-0.621,9.523,0.3473974632895295,4.451671891929977,1.931979949874687,0,0.05
1757394197.2896063,-0.405,-0.621,9.523,0.3473974632895295,4.451671891929977,1.931979949874687,0,0.05
1757394197.3178015,-0.372,-0.549,9.767,0.3478950380502717,3.8843252533586474,1.9336340852130325,0,0.05
1757394197.3456476,-0.199,-0.502,9.743,0.34803729685193224,3.1723660848301147,1.9423057644110275,0,0.05
1757394197.3739545,-0.199,-0.502,9.743,0.34803729685193224,3.1723660848301147,1.9423057644110275,0,0.05
1757394197.4017413,-0.34,-0.654,9.578,0.3484522348902357,4.400670724547291,1.9493734335839599,0,0.05
1757394197.4297175,-0.34,-0.654,9.578,0.3484522348902357,4.400670724547291,1.9493734335839599,0,0.05
1757394197.4572995,-0.34,-0.654,9.578,0.3484522348902357,4.400670724547291,1.9493734335839599,0,0.05
1757394197.4849863,-0.34,-0.654,9.578,0.3484522348902357,4.400670724547291,1.9493734335839599,0,0.05
1757394197.5126598,-0.285,-0.456,9.594,0.3487434909786848,3.2080314194291644,1.9521303258145364,0,0.05
1757394197.5400488,-0.037,-0.347,9.554,0.3487483978457822,2.09184157578882,1.9645614035087717,0,0.05
1757394197.5679421,-0.355,-0.441,9.454,0.34919981028058994,3.426942370013467,1.980501253132832,0,0.05
1757394197.595806,-0.355,-0.441,9.454,0.34919981028058994,3.426942370013467,1.980501253132832,0,0.05
1757394197.6232698,-0.352,-0.394,9.61,0.3496430572741292,3.1468300818805948,1.9806516290726817,0,0.05
1757394197.650801,-0.352,-0.394,9.61,0.3496430572741292,3.1468300818805948,1.9806516290726817,0,0.05
1757394197.6782992,-0.265,-0.331,9.68,0.349894026813834,2.508116364212717,1.9850125313283207,0,0.05
1757394197.7060573,-0.265,-0.331,9.68,0.349894026813834,2.508116364212717,1.9850125313283207,0,0.05
1757394197.7341943,-0.438,-0.357,9.694,0.3505787215448194,3.335977961141915,1.9936842105263157,0,0.05
1757394197.7617705,-0.438,-0.357,9.694,0.3505787215448194,3.335977961141915,1.9936842105263157,0,0.05
1757394197.789405,-0.35,-0.202,9.664,0.35101522758991527,2.3944798272582184,1.998095238095238,0,0.05
1757394197.8172948,-0.35,-0.202,9.664,0.35101522758991527,2.3944798272582184,1.998095238095238,0,0.05
1757394197.8449202,-0.396,-0.002,9.73,0.3515732213920736,2.3306169173685967,2.0004010025062655,0,0.05
1757394197.8725266,-0.396,-0.002,9.73,0.3515732213920736,2.3306169173685967,2.0004010025062655,0,0.05
1757394197.900149,-0.515,-0.2,9.751,0.3525149535835324,3.2427947357046625,2.0063659147869672,0,0.05
1757394197.9281268,-0.515,-0.2,9.751,0.3525149535835324,3.2427947357046625,2.0063659147869672,0,0.05
1757394197.9557853,-0.274,-0.156,9.799,0.35278106879479804,1.8429369153430493,2.0184461152882203,0,0.05
1757394197.9835758,-0.274,-0.156,9.799,0.35278106879479804,1.8429369153430493,2.0184461152882203,0,0.05
1757394198.011101,-0.245,-0.168,9.803,0.35299368974529843,1.7357438666270784,2.0198997493734336,0,0.05
1757394198.038559,-0.245,-0.168,9.803,0.35299368974529843,1.7357438666270784,2.0198997493734336,0,0.05
1757394198.0659707,-0.183,-0.258,9.88,0.3531122590621855,1.833717500935648,2.0230075187969923,0,0.05
1757394198.0936782,-0.183,-0.258,9.88,0.3531122590621855,1.833717500935648,2.0230075187969923,0,0.05
1757394198.1210117,-0.183,-0.258,9.88,0.3531122590621855,1.833717500935648,2.0230075187969923,0,0.05
1757394198.1485772,-0.309,-0.331,9.874,0.3534500954873262,2.6257099429170374,2.0293233082706763,0,0.05
1757394198.1762702,-0.289,-0.356,9.944,0.353745349792757,2.6401537308950793,2.0303258145363405,0,0.05
1757394198.203805,-0.289,-0.356,9.944,0.353745349792757,2.6401537308950793,2.0303258145363405,0,0.05
1757394198.2313502,-0.265,-0.256,10.07,0.35399341095562786,2.095496679647762,2.0315288220551375,0,0.05
1757394198.258984,-0.355,-0.428,9.839,0.3544381434044592,3.2347146732297087,2.0360401002506268,0,0.05
1757394198.28696,-0.355,-0.428,9.839,0.3544381434044592,3.2347146732297087,2.0360401002506268,0,0.05
1757394198.3147025,-0.125,-0.476,9.806,0.35449324394126325,2.8731246915812423,2.0475689223057643,0,0.05
1757394198.3425906,-0.125,-0.476,9.806,0.35449324394126325,2.8731246915812423,2.0475689223057643,0,0.05
1757394198.3701136,-0.261,-0.448,9.852,0.3547333681795385,3.0125384086256357,2.0543859649122806,0,0.05
1757394198.3975718,-0.261,-0.448,9.852,0.3547333681795385,3.0125384086256357,2.0543859649122806,0,0.05
1757394198.4251497,-0.183,-0.417,9.729,0.35485135620425634,2.679901937047588,2.058295739348371,0,0.05
1757394198.4528363,-0.183,-0.417,9.729,0.35485135620425634,2.679901937047588,2.058295739348371,0,0.05
1757394198.4803193,-0.245,-0.297,9.685,0.35506273741410826,2.2765033892317463,2.06140350877193,0,0.05
1757394198.5079148,-0.245,-0.297,9.685,0.35506273741410826,2.2765033892317463,2.06140350877193,0,0.05
1757394198.535379,-0.202,-0.197,9.774,0.3552063590365465,1.6535666053895444,2.0635588972431083,0,0.05
1757394198.562725,-0.202,-0.197,9.774,0.3552063590365465,1.6535666053895444,2.0635588972431083,0,0.05
1757394198.5900478,-0.331,-0.422,9.811,0.3555917040652102,3.1290011569453355,2.070025062656642,0,0.05
1757394198.616061,-0.331,-0.422,9.811,0.3555917040652102,3.1290011569453355,2.070025062656642,0,0.05
1757394198.642485,-0.301,-0.474,9.727,0.35591004832682094,3.303757539338837,2.0715288220551384,0,0.05
1757394198.6688325,-0.301,-0.474,9.727,0.35591004832682094,3.303757539338837,2.0715288220551384,0,0.05
1757394198.6946335,-0.237,-0.415,9.767,0.35610726614322263,2.8012866502790463,2.074736842105263,0,0.05
1757394198.720558,-0.237,-0.415,9.767,0.35610726614322263,2.8012866502790463,2.074736842105263,0,0.05
1757394198.7484248,-0.223,-0.577,9.789,0.3562817810385482,3.615868335532428,2.075438596491228,0,0.05
1757394198.776821,-0.223,-0.577,9.789,0.3562817810385482,3.615868335532428,2.075438596491228,0,0.05
1757394198.8044052,-0.069,-0.539,9.675,0.35629848442001544,3.214653019377649,2.083157894736842,0,0.05
1757394198.8326225,-0.069,-0.539,9.675,0.35629848442001544,3.214653019377649,2.083157894736842,0,0.05
1757394198.8602958,-0.324,-0.375,9.673,0.3566665809968745,2.9328979549462675,2.09593984962406,0,0.05
1757394198.8870547,-0.324,-0.375,9.673,0.3566665809968745,2.9328979549462675,2.09593984962406,0,0.05
1757394198.9149532,0.082,-0.42,9.82,0.35669014564464774,2.4952214602001526,2.1162907268170423,0,0.05
1757394198.942314,0.082,-0.42,9.82,0.35669014564464774,2.4952214602001526,2.1162907268170423,0,0.05
1757394198.970872,-0.201,-0.399,9.722,0.3568317005256119,2.631140408134718,2.1304761904761906,0,0.05
1757394198.9985921,-0.201,-0.399,9.722,0.3568317005256119,2.631140408134718,2.1304761904761906,0,0.05
1757394199.0265567,-0.175,-0.393,9.627,0.356938965370832,2.558677384524175,2.1317794486215536,0,0.05
1757394199.0541446,-0.175,-0.393,9.627,0.356938965370832,2.558677384524175,2.1317794486215536,0,0.05
1757394199.0808632,-0.203,-0.286,9.921,0.3570832500972287,2.024639698911067,2.133182957393484,0,0.05
1757394199.1078124,-0.203,-0.286,9.921,0.3570832500972287,2.024639698911067,2.133182957393484,0,0.05
1757394199.1357706,-0.203,-0.286,9.921,0.3570832500972287,2.024639698911067,2.133182957393484,0,0.05
1757394199.163226,-0.203,-0.286,9.921,0.3570832500972287,2.024639698911067,2.133182957393484,0,0.05
1757394199.19089,-0.246,-0.332,9.811,0.3572950286527928,2.411684022335778,2.1353383458646618,0,0.05
1757394199.2187626,-0.717,-0.289,9.931,0.3590890697306171,4.451062379378113,2.1589473684210527,0,0.5
1757394199.2468395,-0.219,-0.316,10.094,0.3592559846404789,2.181281096950376,2.1839097744360907,0,0.5
1757394199.274871,-0.219,-0.316,10.094,0.3592559846404789,2.181281096950376,2.1839097744360907,0,0.5
1757394199.302639,-0.643,-0.443,10.091,0.3606916758119045,4.424673925829763,2.205162907268171,0,0.5
1757394199.3306372,-0.643,-0.443,10.091,0.3606916758119045,4.424673925829763,2.205162907268171,0,0.5
1757394199.3583171,-0.551,-0.459,9.849,0.36174229432014166,4.164524405761672,2.2097744360902256,0,0.5
1757394199.385937,-0.551,-0.459,9.849,0.36174229432014166,4.164524405761672,2.2097744360902256,0,0.5
1757394199.4136205,-0.478,-0.341,9.973,0.36253096074680297,3.369437043913176,2.2134335839598998,0,0.5
1757394199.4412818,-0.478,-0.341,9.973,0.36253096074680297,3.369437043913176,2.2134335839598998,0,0.5
1757394199.4690406,-0.542,-0.429,9.84,0.3635424425015599,4.018278479619894,2.2166416040100247,0,0.5
1757394199.4971817,-0.542,-0.429,9.84,0.3635424425015599,4.018278479619894,2.2166416040100247,0,0.5
1757394199.5228758,-0.374,-0.395,9.694,0.364023072757758,3.2117196116070783,2.225062656641604,0,0.5
1757394199.550806,-0.374,-0.395,9.694,0.364023072757758,3.2117196116070783,2.225062656641604,0,0.5
1757394199.5785313,-0.594,-0.221,9.901,0.36523264845848596,3.662603711438006,2.2360902255639097,0,0.5
1757394199.6066074,-0.594,-0.221,9.901,0.36523264845848596,3.662603711438006,2.2360902255639097,0,0.5
1757394199.6342356,-0.594,-0.221,9.901,0.36523264845848596,3.662603711438006,2.2360902255639097,0,0.5
1757394199.6618197,-0.477,-0.082,9.916,0.3660105326353328,2.794371639152033,2.2419548872180446,0,0.5
1757394199.6896176,-0.488,-0.131,9.789,0.3668229409401762,2.9548042301989996,2.2425062656641606,0,0.5
1757394199.7172697,-0.488,-0.131,9.789,0.3668229409401762,2.9548042301989996,2.2425062656641606,0,0.5
1757394199.7449455,-0.425,-0.196,9.848,0.3674379301324239,2.7208879699455304,2.2456641604010024,0,0.5
1757394199.7729418,-0.518,0.018,9.929,0.36834961992650406,2.988236065091126,2.2503258145363407,0,0.5
1757394199.8007402,-0.518,0.018,9.929,0.36834961992650406,2.988236065091126,2.2503258145363407,0,0.5
1757394199.8285666,-0.443,-0.128,9.694,0.36901499292034196,2.7233766744898458,2.2540852130325812,0,0.5
1757394199.8563433,-0.443,-0.128,9.694,0.36901499292034196,2.7233766744898458,2.2540852130325812,0,0.5
1757394199.884139,-0.443,-0.128,9.694,0.36901499292034196,2.7233766744898458,2.2540852130325812,0,0.5
1757394199.9118364,-0.58,-0.226,9.882,0.3701527590063324,3.6043484278448332,2.260952380952381,0,0.5
1757394199.939943,-0.514,-0.425,9.867,0.3710438720690587,3.8669631185320914,2.2642606516290726,0,0.5
1757394199.9677255,-0.514,-0.425,9.867,0.3710438720690587,3.8669631185320914,2.2642606516290726,0,0.5
1757394199.9956372,-0.385,-0.409,9.699,0.37154288783396194,3.314474314828363,2.2707268170426063,0,0.5
1757394200.0236375,-0.385,-0.409,9.699,0.37154288783396194,3.314474314828363,2.2707268170426063,0,0.5
1757394200.05133,-0.478,-0.414,9.722,0.37231079422976715,3.7215213257588173,2.275388471177945,0,0.5
1757394200.0794199,-0.478,-0.414,9.722,0.37231079422976715,3.7215213257588173,2.275388471177945,0,0.5
1757394200.1072817,-0.355,-0.34,9.735,0.37273367167456173,2.8906061782944117,2.281553884711779,0,0.5
1757394200.1349072,-0.355,-0.34,9.735,0.37273367167456173,2.8906061782944117,2.281553884711779,0,0.5
1757394200.1626441,-0.41,-0.415,9.804,0.3732969863259011,3.4052929129642617,2.284310776942356,0,0.45
1757394200.1906264,-0.41,-0.415,9.804,0.3732969863259011,3.4052929129642617,2.284310776942356,0,0.45
1757394200.2183075,-0.51,-0.449,9.767,0.37416692798803053,3.9796297318121217,2.2893233082706765,0,0.45
1757394200.2462893,-0.51,-0.449,9.767,0.37416692798803053,3.9796297318121217,2.2893233082706765,0,0.45
1757394200.2739213,-0.191,-0.417,9.839,0.37428878222570333,2.669004347118032,2.30531328320802,0,0.45
1757394200.3016572,-0.191,-0.417,9.839,0.37428878222570333,2.669004347118032,2.30531328320802,0,0.45
1757394200.3289998,-0.125,-0.509,9.777,0.37434096088993524,3.0685667967198067,2.3086215538847115,0,0.45
1757394200.3563576,-0.125,-0.509,9.777,0.37434096088993524,3.0685667967198067,2.3086215538847115,0,0.45
1757394200.3839426,-0.334,-0.456,9.72,0.37471328372503687,3.3281089476222347,2.319097744360902,0,0.45
1757394200.4118836,-0.334,-0.456,9.72,0.37471328372503687,3.3281089476222347,2.319097744360902,0,0.45
1757394200.439908,-0.297,-0.562,9.898,0.3750074232598603,3.674501008189565,2.320952380952381,0,0.45
1757394200.4677942,-0.297,-0.562,9.898,0.3750074232598603,3.674501008189565,2.320952380952381,0,0.45
1757394200.4957314,-0.193,-0.608,9.725,0.37513156358802974,3.7528578125821177,2.3072180451127817,0,0.45
1757394200.5233696,-0.193,-0.608,9.725,0.37513156358802974,3.7528578125821177,2.3072180451127817,0,0.45
1757394200.5510182,-0.279,-0.657,9.646,0.3749147669804432,4.232065591680741,2.3111779448621554,0,0.45
1757394200.5787268,-0.279,-0.657,9.646,0.3749147669804432,4.232065591680741,2.3111779448621554,0,0.45
1757394200.6070974,-0.235,-0.739,9.753,0.3746398837550535,4.546047083550559,2.3122807017543856,0,0.45
1757394200.6348667,-0.235,-0.739,9.753,0.3746398837550535,4.546047083550559,2.3122807017543856,0,0.45
1757394200.6626697,-0.235,-0.841,9.807,0.3743086727555214,5.088201468700145,2.3115789473684214,0,0.45
1757394200.6907215,-0.407,-0.772,9.8,0.3743086727555214,5.088916445321306,2.319248120300752,0,0.45
1757394200.7184544,-0.407,-0.772,9.8,0.3743086727555214,5.088916445321306,2.319248120300752,0,0.45
1757394200.745989,-0.547,-0.667,9.941,0.3747016346374806,4.959308797149926,2.3250626566416037,0,0.45
1757394200.7742565,-0.547,-0.667,9.941,0.3747016346374806,4.959308797149926,2.3250626566416037,0,0.45
1757394200.8019943,-0.323,-0.601,9.831,0.37437399415557704,3.9701135753596377,2.3350877192982455,0,0.45
1757394200.8298762,-0.323,-0.601,9.831,0.37437399415557704,3.9701135753596377,2.3350877192982455,0,0.45
1757394200.8575733,-0.288,-0.674,9.772,0.3739004646961541,4.289461944713229,2.336190476190476,0,0.45
1757394200.8853197,-0.288,-0.674,9.772,0.3739004646961541,4.289461944713229,2.336190476190476,0,0.45
1757394200.9130013,-0.288,-0.674,9.772,0.3739004646961541,4.289461944713229,2.336190476190476,0,0.45
1757394200.9407635,-0.316,-0.513,9.705,0.3734411265514284,3.552534649181936,2.33734335839599,0,0.45
1757394200.9686413,-0.128,-0.494,9.748,0.3726849540832042,2.996732716408014,2.3464160401002507,0,0.45
1757394200.996783,-0.128,-0.494,9.748,0.3726849540832042,2.996732716408014,2.3464160401002507,0,0.45
1757394201.0250452,-0.225,-0.535,9.69,0.37201899817079237,3.4276667879270306,2.351127819548872,0,0.45
1757394201.0528505,-0.225,-0.535,9.69,0.37201899817079237,3.4276667879270306,2.351127819548872,0,0.45
1757394201.0806193,-0.204,-0.526,9.62,0.3713114124289745,3.3563192702626172,2.3521303258145365,0,0.45
1757394201.1086323,-0.204,-0.526,9.62,0.3713114124289745,3.3563192702626172,2.3521303258145365,0,0.45
1757394201.1365302,-0.37,-0.336,9.744,0.370927098632602,2.936281324699307,2.3604511278195486,0,0.45
1757394201.1647549,-0.37,-0.336,9.744,0.370927098632602,2.936281324699307,2.3604511278195486,0,0.45
1757394201.1927543,-0.288,-0.298,9.577,0.3703603245489452,2.4778107338576536,2.363959899749373,0,0.45
1757394201.2206988,-0.288,-0.298,9.577,0.3703603245489452,2.4778107338576536,2.363959899749373,0,0.45
1757394201.2483552,-0.29,-0.352,9.529,0.36983674438865594,2.7401848320307085,2.3638596491228068,0,0.45
1757394201.2768192,-0.29,-0.352,9.529,0.36983674438865594,2.7401848320307085,2.3638596491228068,0,0.45
1757394201.3056533,-0.352,-0.368,9.684,0.3694338303404278,3.010181760401036,2.3659649122807016,0,0.45
1757394201.3338194,-0.352,-0.368,9.684,0.3694338303404278,3.010181760401036,2.3659649122807016,0,0.45
1757394201.3622983,-0.218,-0.365,9.726,0.36883714902379344,2.502937101215593,2.37187969924812,0,0.45
1757394201.389961,-0.218,-0.365,9.726,0.36883714902379344,2.502937101215593,2.37187969924812,0,0.45
1757394201.417616,-0.582,-0.464,9.789,0.369277036924854,4.348226326262951,2.3896240601503758,0,0.45
1757394201.4455585,-0.582,-0.464,9.789,0.369277036924854,4.348226326262951,2.3896240601503758,0,0.45
1757394201.4733965,-0.299,-0.453,9.837,0.3688411717799411,3.1582284445306734,2.403358395989975,0,0.45
1757394201.5014088,-0.582,-0.299,9.886,0.36927795764166593,3.786643072438302,2.416942355889724,0,0.45
1757394201.5292232,-0.582,-0.299,9.886,0.36927795764166593,3.786643072438302,2.416942355889724,0,0.45
1757394201.5569775,-0.544,-0.447,9.963,0.3696062228913361,4.042408781464334,2.418546365914787,0,0.45
1757394201.5846744,-0.544,-0.447,9.963,0.3696062228913361,4.042408781464334,2.418546365914787,0,0.45
1757394201.6124506,-0.46,-0.266,9.898,0.36966709347736104,3.0729606102887286,2.4223057644110275,0,0.45
1757394201.6402586,-0.46,-0.266,9.898,0.36966709347736104,3.0729606102887286,2.4223057644110275,0,0.45
1757394201.6678917,-0.456,-0.228,9.977,0.3697420688804562,2.925263059075527,2.4219047619047616,0,0.45
1757394201.6964588,-0.456,-0.228,9.977,0.3697420688804562,2.925263059075527,2.4219047619047616,0,0.45
1757394201.7242355,-0.432,-0.248,9.788,0.3697794680617084,2.9133458831166537,2.4226065162907267,0,0.45
1757394201.7518594,-0.432,-0.248,9.788,0.3697794680617084,2.9133458831166537,2.4226065162907267,0,0.45
1757394201.7799282,-0.37,-0.181,9.73,0.36967675407036343,2.424050008173432,2.4251127819548874,0,0.45
1757394201.8078594,-0.37,-0.181,9.73,0.36967675407036343,2.424050008173432,2.4251127819548874,0,0.45
1757394201.835569,-0.47,-0.171,9.757,0.36989070007233216,2.934396680737747,2.4288721804511275,0,0.45
1757394201.8632762,-0.47,-0.171,9.757,0.36989070007233216,2.934396680737747,2.4288721804511275,0,0.45
1757394201.8909426,-0.242,-0.268,9.698,0.3696208598009587,2.1323509800417386,2.4399498746867168,0,0.45
1757394201.918772,-0.242,-0.268,9.698,0.3696208598009587,2.1323509800417386,2.4399498746867168,0,0.45
1757394201.9463544,0.025,-0.281,9.345,0.36917215496296574,1.7291385304139757,2.452882205513784,0,0.45
1757394201.9742742,0.025,-0.281,9.345,0.36917215496296574,1.7291385304139757,2.452882205513784,0,0.45
1757394202.0022197,-0.267,-0.269,9.451,0.3689843661999787,2.29649249419058,2.4670175438596487,0,0.45
1757394202.0298731,-0.267,-0.269,9.451,0.3689843661999787,2.29649249419058,2.4670175438596487,0,0.45
1757394202.0574148,-0.093,-0.442,9.576,0.36860791499912204,2.7005091581780913,2.4753383458646616,0,0.45
1757394202.0853844,-0.093,-0.442,9.576,0.36860791499912204,2.7005091581780913,2.4753383458646616,0,0.45
1757394202.1129003,0.028,-0.494,9.452,0.3681853677157744,2.9965817914895374,2.4810025062656638,0,0.45
1757394202.140448,0.028,-0.494,9.452,0.3681853677157744,2.9965817914895374,2.4810025062656638,0,0.45
1757394202.168098,-0.267,-0.377,9.431,0.36802091992168057,2.804357727538186,2.4957894736842103,0,0.45
1757394202.19597,-0.267,-0.377,9.431,0.36802091992168057,2.804357727538186,2.4957894736842103,0,0.45
1757394202.2234297,0.091,-0.385,9.473,0.3676422309800657,2.3913784225493395,2.5134837092731828,0,0.45
1757394202.2512066,0.091,-0.385,9.473,0.3676422309800657,2.3913784225493395,2.5134837092731828,0,0.45
1757394202.2790134,-0.234,-0.496,9.398,0.3674329836854607,3.3397475444776976,2.529624060150376,0,0.45
1757394202.3068378,-0.234,-0.496,9.398,0.3674329836854607,3.3397475444776976,2.529624060150376,0,0.45
1757394202.33435,-0.226,-0.513,9.456,0.36720409515690317,3.3926680273612835,2.5294736842105263,0,0.45
1757394202.3622208,-0.226,-0.513,9.456,0.36720409515690317,3.3926680273612835,2.5294736842105263,0,0.45
1757394202.390002,-0.072,-0.475,9.606,0.3667925094655015,2.8631540128234496,2.536842105263158,0,0.45
1757394202.4183273,-0.355,-0.512,9.613,0.3667754047097488,3.7082339959633503,2.5508270676691733,0,0.45
1757394202.446395,-0.355,-0.512,9.613,0.3667754047097488,3.7082339959633503,2.5508270676691733,0,0.45
1757394202.4741333,-0.198,-0.521,9.635,0.3664720964821196,3.3106965494050176,2.558095238095238,0,0.45
1757394202.5019948,-0.198,-0.521,9.635,0.3664720964821196,3.3106965494050176,2.558095238095238,0,0.45
1757394202.5295653,-0.231,-0.525,9.725,0.36618704237042576,3.37535080774943,2.5595488721804514,0,0.45
1757394202.5574234,-0.231,-0.525,9.725,0.36618704237042576,3.37535080774943,2.5595488721804514,0,0.45
1757394202.5849938,-0.179,-0.47,9.766,0.3658187563534708,2.9480309685530646,2.561954887218045,0,0.45
1757394202.6128566,-0.179,-0.47,9.766,0.3658187563534708,2.9480309685530646,2.561954887218045,0,0.45
1757394202.640557,-0.283,-0.513,9.725,0.3656041233356101,3.447615013888085,2.5667167919799496,0,0.45
1757394202.668575,-0.283,-0.513,9.725,0.3656041233356101,3.447615013888085,2.5667167919799496,0,0.45
1757394202.6962898,-0.214,-0.64,9.852,0.3652484668003413,3.918456257087349,2.5693734335839595,0,0.45
1757394202.7240205,-0.214,-0.64,9.852,0.3652484668003413,3.918456257087349,2.5693734335839595,0,0.45
1757394202.751872,-0.133,-0.547,9.787,0.3647528512568476,3.291959897205582,2.572882205513784,0,0.45
1757394202.779371,-0.133,-0.547,9.787,0.3647528512568476,3.291959897205582,2.572882205513784,0,0.45
1757394202.8075492,-0.248,-0.525,9.783,0.364376059175133,3.396561452321704,2.578195488721805,0,0.6000000000000001
1757394202.835608,-0.248,-0.525,9.783,0.364376059175133,3.396561452321704,2.578195488721805,0,0.6000000000000001
1757394202.863431,-0.247,-0.382,9.826,0.36397130724825,2.650640123527709,2.5764912280701755,0,0.6000000000000001
1757394202.8911443,-0.247,-0.382,9.826,0.36397130724825,2.650640123527709,2.5764912280701755,0,0.6000000000000001
1757394202.9190564,-0.134,-0.407,9.695,0.3633119768188216,2.530664238006699,2.581052631578947,0,0.6000000000000001
1757394202.9468272,-0.134,-0.407,9.695,0.3633119768188216,2.530664238006699,2.581052631578947,0,0.6000000000000001
1757394202.9747279,-0.317,-0.44,9.788,0.3628647337507463,3.171204672033349,2.5893233082706764,0,0.6000000000000001
1757394203.002618,-0.317,-0.44,9.788,0.3628647337507463,3.171204672033349,2.5893233082706764,0,0.6000000000000001
1757394203.030588,-0.072,-0.398,9.895,0.3620272986944493,2.3406736155034262,2.6012531328320803,0,0.6000000000000001
1757394203.0585628,-0.072,-0.398,9.895,0.3620272986944493,2.3406736155034262,2.6012531328320803,0,0.6000000000000001
1757394203.0863197,-0.325,-0.276,9.792,0.36151108558383105,2.4933032496388274,2.613333333333333,0,0.6000000000000001
1757394203.1141093,-0.325,-0.276,9.792,0.36151108558383105,2.4933032496388274,2.613333333333333,0,0.6000000000000001
1757394203.1417625,-0.241,-0.312,9.681,0.36078698008658794,2.3319699489103782,2.6172932330827066,0,0.6000000000000001
1757394203.1698399,-0.241,-0.312,9.681,0.36078698008658794,2.3319699489103782,2.6172932330827066,0,0.6000000000000001
1757394203.1975565,0.043,-0.385,9.628,0.3598840195118422,2.30411991266749,2.6308771929824557,0,0.45
1757394203.2254725,0.043,-0.385,9.628,0.3598840195118422,2.30411991266749,2.6308771929824557,0,0.45
1757394203.253617,-0.292,-0.475,9.735,0.3592222223081417,3.2780466854757075,2.647017543859649,0,0.45
1757394203.28207,-0.304,-0.402,9.624,0.35863112664686536,2.99781216936769,2.647117794486215,0,0.45
1757394203.3100808,-0.304,-0.402,9.624,0.35863112664686536,2.99781216936769,2.647117794486215,0,0.45
1757394203.3379502,-0.16,-0.349,9.588,0.3578411309505938,2.293046521648718,2.653934837092732,0,0.45
1757394203.3655488,-0.16,-0.349,9.588,0.3578411309505938,2.293046521648718,2.653934837092732,0,0.45
1757394203.3933702,-0.1,-0.426,9.584,0.35702266734760696,2.6141559809523565,2.6562907268170424,0,0.45
1757394203.4213297,-0.1,-0.426,9.584,0.35702266734760696,2.6141559809523565,2.6562907268170424,0,0.45
1757394203.4489608,-0.183,-0.369,9.647,0.3563292087382116,2.4448014719514966,2.660200501253133,0,0.45
1757394203.4769976,-0.183,-0.369,9.647,0.3563292087382116,2.4448014719514966,2.660200501253133,0,0.45
1757394203.504923,-0.088,-0.407,9.617,0.3555607191465334,2.479291625725758,2.664110275689223,0,0.45
1757394203.5327902,-0.088,-0.407,9.617,0.3555607191465334,2.479291625725758,2.664110275689223,0,0.45
1757394203.5604284,-0.345,-0.439,9.641,0.3552383495626563,3.3144858134318187,2.6767418546365915,0,0.45
1757394203.5883765,-0.345,-0.439,9.641,0.3552383495626563,3.3144858134318187,2.6767418546365915,0,0.45
1757394203.6160762,-0.099,-0.419,9.744,0.3545468904108454,2.529958079766277,2.689072681704261,0,0.45
1757394203.644082,-0.099,-0.419,9.744,0.3545468904108454,2.529958079766277,2.689072681704261,0,0.45
1757394203.67209,-0.32,-0.459,9.76,0.3541810377476468,3.2811497505758513,2.700050125313283,0,0.45
1757394203.7004325,-0.32,-0.459,9.76,0.3541810377476468,3.2811497505758513,2.700050125313283,0,0.45
1757394203.7284684,-0.352,-0.402,9.711,0.35388434198195323,3.14941659328013,2.701303258145363,0,0.45
1757394203.7562752,-0.352,-0.402,9.711,0.35388434198195323,3.14941659328013,2.701303258145363,0,0.45
1757394203.783758,-0.342,-0.337,9.778,0.3535852584596818,2.811191673602704,2.7016040100250627,0,0.45
1757394203.811377,-0.342,-0.337,9.778,0.3535852584596818,2.811191673602704,2.7016040100250627,0,0.45
1757394203.8390298,-0.613,-0.436,9.831,0.35421306441180284,4.375582893448806,2.7142857142857144,0,0.45
1757394203.8668747,-0.613,-0.436,9.831,0.35421306441180284,4.375582893448806,2.7142857142857144,0,0.45
1757394203.8945057,-0.553,-0.444,9.84,0.35464855138573453,4.122280225799436,2.716190476190476,0,0.45
1757394203.9224777,-0.553,-0.444,9.84,0.35464855138573453,4.122280225799436,2.716190476190476,0,0.45
1757394203.9504287,-0.515,-0.455,9.808,0.35500506334417264,4.0079194610354785,2.717393483709273,0,0.45
1757394203.9783213,-0.515,-0.455,9.808,0.35500506334417264,4.0079194610354785,2.717393483709273,0,0.45
1757394204.006578,-0.245,-0.429,9.927,0.35467795956331993,2.849050185038541,2.729874686716792,0,0.45
1757394204.034803,-0.245,-0.429,9.927,0.35467795956331993,2.849050185038541,2.729874686716792,0,0.45
1757394204.0626314,-0.599,-0.526,9.771,0.3554591502549906,4.664152393816516,2.7469674185463657,0,0.45
1757394204.0906124,-0.599,-0.526,9.771,0.3554591502549906,4.664152393816516,2.7469674185463657,0,0.45
1757394204.1183739,-0.518,-0.702,9.848,0.35595420351500273,5.062571453606241,2.7499248120300748,0,0.45
1757394204.1460788,-0.445,-0.637,9.744,0.35625537890676123,4.559441704622562,2.7408521303258144,0,0.45
1757394204.174223,-0.445,-0.637,9.744,0.35625537890676123,4.559441704622562,2.7408521303258144,0,0.45
1757394204.201854,-0.361,-0.394,9.574,0.3566893536398304,3.194664311077304,2.729674185463659,0,0.45
1757394204.2295842,-0.361,-0.394,9.574,0.3566893536398304,3.194664311077304,2.729674185463659,0,0.45
1757394204.257223,-0.405,-0.398,9.53,0.35673659400179286,3.4098370876413733,2.7131328320802006,0,0.45
1757394204.2850094,-0.405,-0.398,9.53,0.35673659400179286,3.4098370876413733,2.7131328320802006,0,0.45
1757394204.312733,-0.314,-0.41,9.741,0.35708121975259355,3.0347362268884885,2.715187969924812,0,0.45
1757394204.3404722,-0.314,-0.41,9.741,0.35708121975259355,3.0347362268884885,2.715187969924812,0,0.45
1757394204.3682072,-0.21,-0.461,9.632,0.3572310281876422,3.0105948065438257,2.709924812030075,0,0.45
1757394204.3959455,-0.21,-0.461,9.632,0.3572310281876422,3.0105948065438257,2.709924812030075,0,0.45
1757394204.4236963,-0.393,-0.353,9.562,0.357666475225174,3.1621311618435515,2.7139849624060153,0,0.45
1757394204.4515586,-0.393,-0.353,9.562,0.357666475225174,3.1621311618435515,2.7139849624060153,0,0.45
1757394204.4793928,-0.148,-0.406,9.686,0.3577254044654922,2.55451788639902,2.710977443609022,0,0.45
1757394204.5071743,-0.148,-0.406,9.686,0.3577254044654922,2.55451788639902,2.710977443609022,0,0.45
1757394204.5328546,-0.505,-0.394,9.689,0.35812230801780554,3.782181237005541,2.728471177944862,0,0.45
1757394204.5605652,-0.505,-0.394,9.689,0.35812230801780554,3.782181237005541,2.728471177944862,0,0.45
1757394204.5883858,-0.235,-0.334,9.677,0.35780023756280543,2.4165598188687993,2.7362406015037593,0,0.45
1757394204.6161354,-0.235,-0.334,9.677,0.35780023756280543,2.4165598188687993,2.7362406015037593,0,0.45
1757394204.6437492,-0.386,-0.266,9.74,0.3574506924038615,2.75546624707413,2.7424561403508765,0,0.45
1757394204.671467,-0.386,-0.266,9.74,0.3574506924038615,2.75546624707413,2.7424561403508765,0,0.45
1757394204.6994555,-0.381,-0.296,9.789,0.3571791427281274,2.821649360673512,2.739548872180451,0,0.45
1757394204.7272973,-0.381,-0.296,9.789,0.3571791427281274,2.821649360673512,2.739548872180451,0,0.45
1757394204.7550945,-0.381,-0.296,9.789,0.3571791427281274,2.821649360673512,2.739548872180451,0,0.45
1757394204.7830122,-0.405,-0.341,9.691,0.3571677477040725,3.127078038554477,2.7396992481203006,0,0.45
1757394204.81095,-0.499,-0.37,9.998,0.35739201515982416,3.5554085484036384,2.738997493734336,0,0.45
1757394204.8388302,-0.499,-0.37,9.998,0.35739201515982416,3.5554085484036384,2.738997493734336,0,0.45
1757394204.8670943,-0.46,-0.395,9.98,0.3577692587408817,3.4766513124756795,2.724160401002506,0,0.45
1757394204.8950963,-0.46,-0.395,9.98,0.3577692587408817,3.4766513124756795,2.724160401002506,0,0.45
1757394204.9227877,-0.58,-0.446,9.901,0.35743631600608244,4.226297103830243,2.7251127819548864,0,0.45
1757394204.9503407,-0.58,-0.446,9.901,0.35743631600608244,4.226297103830243,2.7251127819548864,0,0.45
1757394204.9779406,-0.45,-0.583,9.848,0.3570632016884406,4.276833771133977,2.731127819548872,0,0.45
1757394205.0054102,-0.45,-0.583,9.848,0.3570632016884406,4.276833771133977,2.731127819548872,0,0.45
1757394205.033114,-0.22,-0.539,9.788,0.3561098706860005,3.4038198956920787,2.7420551378446114,0,0.45
1757394205.0609543,-0.22,-0.539,9.788,0.3561098706860005,3.4038198956920787,2.7420551378446114,0,0.45
1757394205.088856,0.015,-0.636,9.51,0.35503170633057546,3.8271317477981848,2.752180451127819,0,0.45
1757394205.116556,0.015,-0.636,9.51,0.35503170633057546,3.8271317477981848,2.752180451127819,0,0.45
1757394205.1440332,-0.361,-0.614,9.838,0.3542765762790422,4.1409352277488605,2.7635588972431075,0,0.45
1757394205.1720443,-0.361,-0.614,9.838,0.3542765762790422,4.1409352277488605,2.7635588972431075,0,0.45
1757394205.1999915,-0.047,-0.667,9.875,0.3536068508951714,3.873686557235842,2.7764411027568916,0,0.45
1757394205.2279465,-0.222,-0.7,9.841,0.352914228248168,4.2676420175709975,2.784310776942356,0,0.45
1757394205.2559445,-0.222,-0.7,9.841,0.352914228248168,4.2676420175709975,2.784310776942356,0,0.45
1757394205.283628,-0.22,-0.586,9.807,0.3521527083524987,3.651974764517993,2.7806015037593985,0,0.45
1757394205.3112688,-0.22,-0.586,9.807,0.3521527083524987,3.651974764517993,2.7806015037593985,0,0.45
1757394205.338968,-0.036,-0.465,9.801,0.35092373459200504,2.7244280878445144,2.7836591478696744,0,0.45
1757394205.366595,-0.036,-0.465,9.801,0.35092373459200504,2.7244280878445144,2.7836591478696744,0,0.45
1757394205.394179,-0.107,-0.577,9.75,0.3501902340157418,3.444388304085043,2.7865664160401002,0,0.45
1757394205.4222424,-0.107,-0.577,9.75,0.3501902340157418,3.444388304085043,2.7865664160401002,0,0.45
1757394205.449767,-0.199,-0.437,9.668,0.3495119454324845,2.8433522733536307,2.7805012531328317,0,0.45
1757394205.4773936,-0.199,-0.437,9.668,0.3495119454324845,2.8433522733536307,2.7805012531328317,0,0.45
1757394205.5057428,-0.118,-0.498,9.734,0.34784515233074614,3.0096954111369496,2.773583959899749,0,0.45
1757394205.5339458,-0.118,-0.498,9.734,0.34784515233074614,3.0096954111369496,2.773583959899749,0,0.45
1757394205.562221,-0.251,-0.374,9.619,0.3472670874125563,2.6809702496737566,2.7793483709273183,0,0.45
1757394205.5901427,-0.251,-0.374,9.619,0.3472670874125563,2.6809702496737566,2.7793483709273183,0,0.45
1757394205.6179776,-0.069,-0.449,9.606,0.34653826628526896,2.7075187892736365,2.7836090225563908,0,0.45
1757394205.6456301,-0.069,-0.449,9.606,0.34653826628526896,2.7075187892736365,2.7836090225563908,0,0.45
1757394205.6730697,-0.439,-0.278,9.757,0.34677105199252145,3.0484715775667603,2.796040100250627,0,0.45
1757394205.701077,-0.439,-0.278,9.757,0.34677105199252145,3.0484715775667603,2.796040100250627,0,0.45
1757394205.7290583,0.015,-0.418,9.631,0.34594034890425834,2.4867616500829572,2.8085714285714283,0,0.45
1757394205.7570248,0.015,-0.418,9.631,0.34594034890425834,2.4867616500829572,2.8085714285714283,0,0.45
1757394205.7847052,-0.447,-0.458,9.757,0.34638678886470253,3.752755984824365,2.8290225563909774,0,0.45
1757394205.812902,-0.447,-0.458,9.757,0.34638678886470253,3.752755984824365,2.8290225563909774,0,0.45
1757394205.841235,-0.253,-0.335,9.827,0.3462247535922295,2.44614697460404,2.8288220551378442,0,0.45
1757394205.870277,-0.253,-0.335,9.827,0.3462247535922295,2.44614697460404,2.8288220551378442,0,0.45
1757394205.898549,-0.133,-0.319,9.806,0.34622571033936805,2.018571261596995,2.832380952380952,0,0.45
1757394205.926234,-0.133,-0.319,9.806,0.34622571033936805,2.018571261596995,2.832380952380952,0,0.45
1757394205.9540918,-0.337,-0.476,9.845,0.3465173336212779,3.390249738457048,2.842406015037594,0,0.45
1757394205.981906,-0.316,-0.328,9.903,0.3467540050237344,2.6332747433868415,2.8403508771929817,0,0.45
1757394206.009359,-0.316,-0.328,9.903,0.3467540050237344,2.6332747433868415,2.8403508771929817,0,0.45
1757394206.0368512,-0.316,-0.328,9.903,0.3467540050237344,2.6332747433868415,2.8403508771929817,0,0.45
1757394206.0643106,-0.24,-0.224,9.77,0.3469070732919696,1.9245346071340552,2.843157894736842,0,0.45
1757394206.092041,-0.23,-0.256,9.699,0.34702398332103795,2.0321482026973996,2.833834586466165,0,0.45
1757394206.1195133,-0.23,-0.256,9.699,0.34702398332103795,2.0321482026973996,2.833834586466165,0,0.45
1757394206.1471696,-0.245,-0.286,9.73,0.3468261884575616,2.2164775927875127,2.8225563909774434,0,0.45
1757394206.1747644,-0.245,-0.286,9.73,0.3468261884575616,2.2164775927875127,2.8225563909774434,0,0.45
1757394206.2023108,-0.381,-0.374,9.859,0.3473136982613845,3.0996767310165283,2.8173934837092727,0,0.45
1757394206.2297602,-0.381,-0.374,9.859,0.3473136982613845,3.0996767310165283,2.8173934837092727,0,0.45
1757394206.2573342,-0.324,-0.27,9.739,0.34728034064714924,2.479680207921148,2.819799498746867,0,0.45
1757394206.284774,-0.324,-0.27,9.739,0.34728034064714924,2.479680207921148,2.819799498746867,0,0.45
1757394206.3123257,-0.223,-0.275,9.681,0.3470258419772222,2.0944885861909666,2.8212531328320805,0,0.45
1757394206.339964,-0.223,-0.275,9.681,0.3470258419772222,2.0944885861909666,2.8212531328320805,0,0.45
1757394206.3675847,-0.453,-0.191,9.836,0.34749229487860595,2.861357994041098,2.8304761904761904,0,0.45
1757394206.3950865,-0.453,-0.191,9.836,0.34749229487860595,2.861357994041098,2.8304761904761904,0,0.45
1757394206.4226985,-0.341,-0.164,9.684,0.3475399185705147,2.2376059560182298,2.8318295739348374,0,0.45
1757394206.4503312,-0.341,-0.164,9.684,0.3475399185705147,2.2376059560182298,2.8318295739348374,0,0.45
1757394206.4777806,-0.368,-0.177,9.688,0.3474341160565554,2.4136168524011854,2.8306766917293236,0,0.45
1757394206.5052342,-0.368,-0.177,9.688,0.3474341160565554,2.4136168524011854,2.8306766917293236,0,0.45
1757394206.5328863,-0.367,-0.143,9.792,0.34746272821699886,2.3034365726501593,2.825413533834586,0,0.45
1757394206.5603726,-0.367,-0.143,9.792,0.34746272821699886,2.3034365726501593,2.825413533834586,0,0.45
1757394206.5879009,-0.556,-0.253,9.802,0.3483488732578304,3.566033880336156,2.8316290726817046,0,0.45
1757394206.6153526,-0.556,-0.253,9.802,0.3483488732578304,3.566033880336156,2.8316290726817046,0,0.45
1757394206.6428335,-0.358,-0.266,9.712,0.3484527012379155,2.629348573446327,2.8314786967418546,0,0.45
1757394206.6704643,-0.358,-0.266,9.712,0.3484527012379155,2.629348573446327,2.8314786967418546,0,0.45
1757394206.6981044,-0.402,-0.4,9.654,0.3480770819804142,3.3618417367574867,2.8272180451127817,0,0.45
1757394206.7261806,-0.402,-0.4,9.654,0.3480770819804142,3.3618417367574867,2.8272180451127817,0,0.45
1757394206.7537057,-0.361,-0.443,9.658,0.34800723412021195,3.3862382313876638,2.8257142857142856,0,0.45
1757394206.781234,-0.361,-0.443,9.658,0.34800723412021195,3.3862382313876638,2.8257142857142856,0,0.45
1757394206.8087769,-0.237,-0.512,9.48,0.3474551014159959,3.405881424736867,2.830275689223058,0,0.45
1757394206.8363702,-0.237,-0.512,9.48,0.3474551014159959,3.405881424736867,2.830275689223058,0,0.45
1757394206.863897,-0.394,-0.521,9.643,0.3473637502676409,3.875226929041851,2.833233082706767,0,0.45
1757394206.8917966,-0.394,-0.521,9.643,0.3473637502676409,3.875226929041851,2.833233082706767,0,0.45
1757394206.9193454,-0.203,-0.528,9.632,0.3465267305706733,3.3610721232740652,2.8406516290726818,0,0.45
1757394206.946798,-0.203,-0.528,9.632,0.3465267305706733,3.3610721232740652,2.8406516290726818,0,0.45
1757394206.974529,-0.441,-0.309,9.633,0.34639713841196784,3.1994834651430395,2.852431077694235,0,0.45
1757394207.0025167,-0.441,-0.309,9.633,0.34639713841196784,3.1994834651430395,2.852431077694235,0,0.45
1757394207.0309246,-0.36,-0.179,9.624,0.3460435738458381,2.392160596789131,2.847318295739348,0,0.45
1757394207.0589187,-0.36,-0.179,9.624,0.3460435738458381,2.392160596789131,2.847318295739348,0,0.45
1757394207.086676,-0.245,-0.206,9.646,0.3446842286789461,1.9006201606527864,2.8464160401002507,0,0.45
1757394207.1145625,-0.217,-0.362,9.703,0.34384679364507675,2.490663832223486,2.8437593984962404,0,0.45
1757394207.1423874,-0.217,-0.362,9.703,0.34384679364507675,2.490663832223486,2.8437593984962404,0,0.45
1757394207.1702657,-0.542,-0.408,9.828,0.34357076054286106,3.9487137403309918,2.8563909774436085,0,0.45
1757394207.1980739,-0.542,-0.408,9.828,0.34357076054286106,3.9487137403309918,2.8563909774436085,0,0.45
1757394207.2255945,-0.542,-0.408,9.828,0.34357076054286106,3.9487137403309918,2.8563909774436085,0,0.45
1757394207.2530513,-0.275,-0.365,9.888,0.3428036865321025,2.646198817534434,2.8623057644110275,0,0.45
1757394207.2805355,-0.292,-0.449,9.768,0.34140575200192513,3.1384924544768142,2.8542857142857145,0,0.45
1757394207.3080485,-0.292,-0.449,9.768,0.34140575200192513,3.1384924544768142,2.8542857142857145,0,0.45
1757394207.3362226,-0.12,-0.542,9.741,0.3405161743588695,3.261673981059315,2.8616040100250624,0,0.45
1757394207.364062,-0.12,-0.542,9.741,0.3405161743588695,3.261673981059315,2.8616040100250624,0,0.45
1757394207.3920867,-0.172,-0.376,9.783,0.3397746642997385,2.420134163551567,2.8626065162907266,0,0.45
1757394207.4198608,-0.172,-0.376,9.783,0.3397746642997385,2.420134163551567,2.8626065162907266,0,0.45
1757394207.4476604,-0.257,-0.525,9.744,0.3390487022538208,3.4329792502120244,2.862957393483709,0,0.45
1757394207.4755838,-0.257,-0.525,9.744,0.3390487022538208,3.4329792502120244,2.862957393483709,0,0.45
1757394207.503176,-0.168,-0.635,9.765,0.33845460552339957,3.8482332588504113,2.864210526315789,0,0.5
1757394207.5307822,-0.168,-0.635,9.765,0.33845460552339957,3.8482332588504113,2.864210526315789,0,0.5
1757394207.5584698,-0.23,-0.511,9.854,0.3381414903557385,3.254782054950192,2.8635588972431076,0,0.5
1757394207.5861225,-0.23,-0.511,9.854,0.3381414903557385,3.254782054950192,2.8635588972431076,0,0.5
1757394207.614075,-0.232,-0.565,9.824,0.3376047059802336,3.5576120428198457,2.851478696741854,0,0.5
1757394207.6415992,-0.232,-0.565,9.824,0.3376047059802336,3.5576120428198457,2.851478696741854,0,0.5
1757394207.6693227,-0.242,-0.45,9.752,0.3376689577085818,2.9992005735236544,2.8474185463659145,0,0.5
1757394207.697102,-0.242,-0.45,9.752,0.3376689577085818,2.9992005735236544,2.8474185463659145,0,0.5
1757394207.725059,-0.236,-0.286,9.771,0.3378286621943141,2.173271499890792,2.844561403508772,0,0.5
1757394207.7527823,-0.236,-0.286,9.771,0.3378286621943141,2.173271499890792,2.844561403508772,0,0.5
1757394207.7804744,-0.148,-0.364,9.699,0.33779639207664724,2.319967411596095,2.8473684210526313,0,0.5
1757394207.8080075,-0.148,-0.364,9.699,0.33779639207664724,2.319967411596095,2.8473684210526313,0,0.5
1757394207.836002,-0.2,-0.451,9.694,0.3378687319063426,2.913441224388905,2.8405513784461154,0,0.5
1757394207.8638,-0.2,-0.451,9.694,0.3378687319063426,2.913441224388905,2.8405513784461154,0,0.5
1757394207.8913887,-0.134,-0.4,9.803,0.3375296542527782,2.4640645829651056,2.8398997493734335,0,0.45
1757394207.9191065,-0.134,-0.4,9.803,0.3375296542527782,2.4640645829651056,2.8398997493734335,0,0.45
1757394207.9468486,-0.213,-0.373,9.788,0.33746248680408913,2.5127307358766617,2.8364411027568917,0,0.45
1757394207.9749386,-0.213,-0.373,9.788,0.33746248680408913,2.5127307358766617,2.8364411027568917,0,0.45
1757394208.0027049,-0.256,-0.521,9.755,0.33766511516589925,3.4055215890197,2.81593984962406,0,0.5
1757394208.0302875,-0.256,-0.521,9.755,0.33766511516589925,3.4055215890197,2.81593984962406,0,0.5
1757394208.0578425,-0.234,-0.488,9.869,0.33672211094610344,3.1388776519753963,2.803157894736842,0,0.45
1757394208.0854223,-0.234,-0.488,9.869,0.33672211094610344,3.1388776519753963,2.803157894736842,0,0.45
1757394208.1128883,-0.213,-0.304,9.718,0.33660154485682325,2.1874373985673223,2.803809523809524,0,0.45
1757394208.1403584,-0.213,-0.304,9.718,0.33660154485682325,2.1874373985673223,2.803809523809524,0,0.45
1757394208.1678715,-0.162,-0.263,9.674,0.33639305507099876,1.8288277361159875,2.802155388471178,0,0.45
1757394208.195382,-0.162,-0.263,9.674,0.33639305507099876,1.8288277361159875,2.802155388471178,0,0.45
1757394208.2229795,-0.058,-0.325,9.64,0.3358937257526553,1.9614048129489412,2.806666666666667,0,0.45
1757394208.250872,-0.058,-0.325,9.64,0.3358937257526553,1.9614048129489412,2.806666666666667,0,0.45
1757394208.278708,-0.22,-0.407,9.644,0.33559942267530796,2.746560672647898,2.8134335839598994,0,0.45
1757394208.3064294,-0.111,-0.294,9.584,0.3350957102082926,1.8780372341359246,2.8069172932330826,0,0.45
1757394208.3339422,-0.111,-0.294,9.584,0.3350957102082926,1.8780372341359246,2.8069172932330826,0,0.45
1757394208.3615015,-0.358,-0.394,9.58,0.3354951303670442,3.1806114514939576,2.8189974937343356,0,0.45
1757394208.3888798,-0.358,-0.394,9.58,0.3354951303670442,3.1806114514939576,2.8189974937343356,0,0.45
1757394208.4163308,-0.194,-0.309,9.609,0.3355503985990778,2.174466000662486,2.82406015037594,0,0.45
1757394208.4438243,-0.194,-0.309,9.609,0.3355503985990778,2.174466000662486,2.82406015037594,0,0.45
1757394208.471436,-0.231,-0.461,9.649,0.3355785787263543,3.058946554309957,2.8148872180451123,0,0.45
1757394208.4994295,-0.231,-0.461,9.649,0.3355785787263543,3.058946554309957,2.8148872180451123,0,0.45
1757394208.5268755,-0.355,-0.524,9.656,0.3360475487189276,3.75025292882408,2.805112781954887,0,0.45
1757394208.5545275,-0.355,-0.524,9.656,0.3360475487189276,3.75025292882408,2.805112781954887,0,0.45
1757394208.5821676,-0.355,-0.524,9.656,0.3360475487189276,3.75025292882408,2.805112781954887,0,0.45
1757394208.6098614,-0.192,-0.471,9.714,0.3358201788159848,2.9973021403783964,2.8035588972431076,0,0.45
1757394208.6373699,-0.238,-0.283,9.718,0.3359782731070567,2.179078845246053,2.796040100250627,0,0.45
1757394208.6648462,-0.238,-0.283,9.718,0.3359782731070567,2.179078845246053,2.796040100250627,0,0.45
1757394208.6924045,-0.348,-0.322,9.606,0.3360596636015694,2.825623720272226,2.799197994987469,0,0.45
1757394208.720165,-0.348,-0.322,9.606,0.3360596636015694,2.825623720272226,2.799197994987469,0,0.45
1757394208.7479382,-0.125,-0.163,9.599,0.3358505620063781,1.2259018799813721,2.8084210526315787,0,0.45
1757394208.7766078,-0.125,-0.163,9.599,0.3358505620063781,1.2259018799813721,2.8084210526315787,0,0.45
1757394208.8047118,-0.429,-0.184,9.504,0.3361845921513953,2.811855332640292,2.821203007518797,0,0.45
1757394208.833005,-0.429,-0.184,9.504,0.3361845921513953,2.811855332640292,2.821203007518797,0,0.45
1757394208.861401,-0.123,-0.19,9.445,0.3357693590844763,1.3727627838192937,2.8337343358395986,0,0.45
1757394208.889302,-0.123,-0.19,9.445,0.3357693590844763,1.3727627838192937,2.8337343358395986,0,0.45
1757394208.9170141,-0.443,-0.234,9.696,0.3361646694701869,2.957911315877715,2.8428571428571425,0,0.45
1757394208.9448826,-0.443,-0.234,9.696,0.3361646694701869,2.957911315877715,2.8428571428571425,0,0.45
1757394208.9728777,-0.357,-0.025,9.623,0.33592513674924657,2.1298182070117413,2.8380952380952382,0,0.45
1757394209.0006251,-0.357,-0.025,9.623,0.33592513674924657,2.1298182070117413,2.8380952380952382,0,0.45
1757394209.0284085,-0.356,-0.143,9.439,0.33615088130183446,2.327498667959404,2.8329824561403507,0,0.45
1757394209.0559616,-0.356,-0.143,9.439,0.33615088130183446,2.327498667959404,2.8329824561403507,0,0.45
1757394209.0837135,-0.356,-0.143,9.439,0.33615088130183446,2.327498667959404,2.8329824561403507,0,0.45
1757394209.111701,-0.365,-0.108,9.653,0.33616436084153833,2.2581515550924207,2.8306766917293236,0,0.45
1757394209.1393256,-0.316,-0.159,9.624,0.33589515477303333,2.1050596955980616,2.822606516290726,0,0.45
1757394209.166974,-0.316,-0.159,9.624,0.33589515477303333,2.1050596955980616,2.822606516290726,0,0.45
1757394209.1948397,-0.339,-0.204,9.542,0.3361663204427237,2.374340618509943,2.822205513784461,0,0.45
1757394209.2223895,-0.242,-0.416,9.694,0.33627149001959716,2.842177646324147,2.8232080200501253,0,0.45
1757394209.2498803,-0.242,-0.416,9.694,0.33627149001959716,2.842177646324147,2.8232080200501253,0,0.45
1757394209.2772748,-0.234,-0.454,9.644,0.3364400132267266,3.0316119509817625,2.817042606516291,0,0.45
1757394209.3049338,-0.234,-0.454,9.644,0.3364400132267266,3.0316119509817625,2.817042606516291,0,0.45
1757394209.3323414,-0.388,-0.531,9.614,0.3368060012826375,3.9132541035801744,2.8220551378446115,0,0.45
1757394209.359765,-0.388,-0.531,9.614,0.3368060012826375,3.9132541035801744,2.8220551378446115,0,0.45
1757394209.3875406,-0.249,-0.626,9.719,0.33692372282164995,3.965299402854329,2.809122807017544,0,0.45
1757394209.415256,-0.249,-0.626,9.719,0.33692372282164995,3.965299402854329,2.809122807017544,0,0.45
1757394209.4428425,-0.095,-0.764,9.673,0.3357455211912737,4.5506356390883385,2.795839598997494,0,0.45
1757394209.470451,-0.095,-0.764,9.673,0.3357455211912737,4.5506356390883385,2.795839598997494,0,0.45
1757394209.498012,-0.295,-0.648,9.597,0.335983418489663,4.242929528051936,2.7874686716791977,0,0.45
1757394209.5255477,-0.295,-0.648,9.597,0.335983418489663,4.242929528051936,2.7874686716791977,0,0.45
1757394209.5528862,-0.307,-0.574,9.694,0.3353312951395977,3.8415827425042437,2.783157894736842,0,0.45
1757394209.5802624,-0.307,-0.574,9.694,0.3353312951395977,3.8415827425042437,2.783157894736842,0,0.45
1757394209.6058245,-0.023,-0.673,9.715,0.33467192517449085,3.9651012128528724,2.7906766917293235,0,0.45
1757394209.6317527,-0.023,-0.673,9.715,0.33467192517449085,3.9651012128528724,2.7906766917293235,0,0.45
1757394209.6577349,-0.422,-0.714,9.756,0.33418624298435745,4.859193595956164,2.804411027568922,0,0.45
1757394209.6841228,-0.422,-0.714,9.756,0.33418624298435745,4.859193595956164,2.804411027568922,0,0.45
1757394209.7118866,-0.317,-0.377,9.903,0.3338703603196906,2.8474729435818054,2.7965413533834584,0,0.45
1757394209.739414,-0.317,-0.377,9.903,0.3338703603196906,2.8474729435818054,2.7965413533834584,0,0.45
1757394209.7670712,-0.284,-0.224,9.856,0.3323761385839844,2.1017645758923584,2.7951378446115287,0,0.45
1757394209.7950823,-0.284,-0.224,9.856,0.3323761385839844,2.1017645758923584,2.7951378446115287,0,0.45
1757394209.823044,-0.508,-0.262,9.958,0.33184884360202316,3.285141785429718,2.79889724310777,0,0.45
1757394209.8515701,-0.508,-0.262,9.958,0.33184884360202316,3.285141785429718,2.79889724310777,0,0.45
1757394209.8797615,-0.357,-0.28,9.864,0.331453567638063,2.6335281149923047,2.798696741854636,0,0.45
1757394209.9076324,-0.357,-0.28,9.864,0.331453567638063,2.6335281149923047,2.798696741854636,0,0.45
1757394209.9357245,-0.393,-0.33,9.77,0.3305044137375475,3.0067338326669035,2.789874686716792,0,0.45
1757394209.9633193,-0.393,-0.33,9.77,0.3305044137375475,3.0067338326669035,2.789874686716792,0,0.45
1757394209.9908726,-0.209,-0.493,9.751,0.3299860716757603,3.1432147864725093,2.791127819548872,0,0.45
1757394210.0190108,-0.209,-0.493,9.751,0.3299860716757603,3.1432147864725093,2.791127819548872,0,0.45
1757394210.046724,-0.115,-0.457,9.682,0.3287418896337977,2.786530579517562,2.7755388471177946,0,0.45
1757394210.0745013,-0.115,-0.457,9.682,0.3287418896337977,2.786530579517562,2.7755388471177946,0,0.45
1757394210.1027415,-0.267,-0.38,9.608,0.328891091396529,2.767360504070717,2.769473684210526,0,0.45
1757394210.1310933,-0.267,-0.38,9.608,0.328891091396529,2.767360504070717,2.769473684210526,0,0.45
1757394210.159499,-0.242,-0.297,9.566,0.3283367174106484,2.2934184925336516,2.7581954887218045,0,0.45
1757394210.1878777,-0.242,-0.297,9.566,0.3283367174106484,2.2934184925336516,2.7581954887218045,0,0.45
1757394210.2160242,-0.044,-0.297,9.624,0.32818871095758306,1.7868866520212625,2.76375939849624,0,0.45
1757394210.2436407,-0.044,-0.297,9.624,0.32818871095758306,1.7868866520212625,2.76375939849624,0,0.45
1757394210.2711701,-0.15,-0.394,9.572,0.3279562127784744,2.5218953216427913,2.767218045112782,0,0.45
1757394210.2986035,-0.15,-0.394,9.572,0.3279562127784744,2.5218953216427913,2.767218045112782,0,0.45
1757394210.3263893,-0.397,-0.389,9.535,0.3283146965945935,3.3361133220883903,2.7784461152882205,0,0.45
1757394210.3538177,-0.397,-0.389,9.535,0.3283146965945935,3.3361133220883903,2.7784461152882205,0,0.45
1757394210.3812366,-0.217,-0.271,9.674,0.3282943191710755,2.055312145454593,2.779197994987469,0,0.45
1757394210.4089217,-0.217,-0.271,9.674,0.3282943191710755,2.055312145454593,2.779197994987469,0,0.45
1757394210.436437,-0.254,-0.247,9.675,0.3279487155028969,2.097214042742015,2.7791478696741856,0,0.45
1757394210.463979,-0.145,-0.508,9.72,0.3275455426349136,3.1110044954678555,2.7817042606516287,0,0.45
1757394210.4915116,-0.145,-0.508,9.72,0.3275455426349136,3.1110044954678555,2.7817042606516287,0,0.45
1757394210.5189579,-0.339,-0.553,9.742,0.3276451968211956,3.809217056544567,2.7803508771929826,0,0.45
1757394210.5466123,-0.339,-0.553,9.742,0.3276451968211956,3.809217056544567,2.7803508771929826,0,0.45
1757394210.5740592,-0.211,-0.478,9.763,0.3267862833718698,3.063448059428101,2.778796992481203,0,0.45
1757394210.6017559,-0.211,-0.478,9.763,0.3267862833718698,3.063448059428101,2.778796992481203,0,0.45
1757394210.629324,-0.355,-0.53,9.658,0.3267726082461625,3.778872726348556,2.784862155388471,0,0.45
1757394210.6573932,-0.355,-0.53,9.658,0.3267726082461625,3.778872726348556,2.784862155388471,0,0.45
1757394210.6851182,-0.238,-0.486,9.703,0.3265547810092512,3.192141447386163,2.789172932330827,0,0.45
1757394210.7128286,-0.238,-0.486,9.703,0.3265547810092512,3.192141447386163,2.789172932330827,0,0.45
1757394210.7404544,-0.269,-0.5,9.636,0.32647333352051894,3.3720597001101265,2.788721804511278,0,0.45
1757394210.7680438,-0.269,-0.5,9.636,0.32647333352051894,3.3720597001101265,2.788721804511278,0,0.45
1757394210.7955751,-0.23,-0.368,9.515,0.3262174083337675,2.6113544106483184,2.7832080200501252,0,0.45
1757394210.823105,-0.23,-0.368,9.515,0.3262174083337675,2.6113544106483184,2.7832080200501252,0,0.45
