timestamp,ax,ay,az,rms,tilt_now,jerk,tilt_crosses,freq
1757395048.204377,0.254,-0.343,9.722,0.012700000000000001,2.513742046022292,0.012731829573934837,0,0.05
1757395048.233815,0.248,-0.337,9.719,0.017749647883831387,2.4651454055699458,0.013032581453634085,0,0.05
1757395048.2593021,0.259,-0.33,9.722,0.021971629434341004,2.470760143429129,0.013583959899749374,0,0.05
1757395048.2867887,0.272,-0.337,9.719,0.025840133513586962,2.551384231645,0.014235588972431077,0,0.05
1757395048.3133602,0.259,-0.341,9.728,0.028903546495196743,2.5204232622450333,0.01488721804511278,0,0.05
1757395048.339464,0.254,-0.34,9.728,0.03157063509022268,2.498043028051039,0.01513784461152882,0,0.05
1757395048.3647122,0.238,-0.341,9.74,0.033738924108513,2.444718719955534,0.01593984962406015,0,0.05
1757395048.3900955,0.222,-0.336,9.744,0.035517953206793886,2.366665662990056,0.016741854636591474,0,0.05
1757395048.415336,0.219,-0.322,9.735,0.0371675597800017,2.290705411020082,0.016892230576441097,0,0.05
1757395048.4405885,0.205,-0.318,9.728,0.03855502561275248,2.227277825161547,0.017593984962406013,0,0.05
1757395048.4664948,0.21,-0.31,9.72,0.03995922922179556,2.2060517216975306,0.01784461152882206,0,0.05
1757395048.492164,0.199,-0.311,9.711,0.041179394118903694,2.177371412561073,0.018395989974937344,0,0.05
1757395048.5177429,0.188,-0.315,9.71,0.042238637525374795,2.163562393522216,0.018947368421052633,0,0.05
1757395048.5431318,0.189,-0.316,9.716,0.04328284879718524,2.170302926697869,0.01899749373433584,0,0.05
1757395048.568799,0.17,-0.309,9.719,0.044109579458435105,2.0782010438834124,0.019949874686716797,0,0.05
1757395048.5942402,0.137,-0.296,9.716,0.04463829633845808,1.9227032564012518,0.02160401002506266,0,0.05
1757395048.619549,0.137,-0.296,9.716,0.04463829633845808,1.9227032564012518,0.02160401002506266,0,0.05
1757395048.6447082,0.111,-0.293,9.727,0.04498199639855928,1.8449430917264111,0.022907268170426064,0,0.05
1757395048.6702204,0.111,-0.293,9.727,0.04498199639855928,1.8449430917264111,0.022907268170426064,0,0.05
1757395048.695105,0.103,-0.271,9.729,0.04527584897050523,1.7068477721711643,0.023308270676691726,0,0.05
1757395048.7205133,0.103,-0.271,9.729,0.04527584897050523,1.7068477721711643,0.023308270676691726,0,0.05
1757395048.7457697,0.092,-0.274,9.748,0.04550892769556321,1.6983497267334609,0.02385964912280702,0,0.05
1757395048.7714944,0.092,-0.274,9.748,0.04550892769556321,1.6983497267334609,0.02385964912280702,0,0.05
1757395048.7968445,0.078,-0.277,9.738,0.045675732068572256,1.6926834465411833,0.024561403508771933,0,0.05
1757395048.8221204,0.078,-0.277,9.738,0.045675732068572256,1.6926834465411833,0.024561403508771933,0,0.05
1757395048.847515,0.078,-0.277,9.738,0.045675732068572256,1.6926834465411833,0.024561403508771933,0,0.05
1757395048.8728626,0.064,-0.272,9.735,0.045787689393547694,1.6441345340055922,0.02526315789473684,0,0.05
1757395048.8987925,0.064,-0.276,9.739,0.04589937363407043,1.666356177140216,0.02526315789473684,0,0.05
1757395048.9248712,0.064,-0.276,9.739,0.04589937363407043,1.666356177140216,0.02526315789473684,0,0.05
1757395048.9507284,0.07,-0.274,9.757,0.046032624300597944,1.6602160015810596,0.025563909774436087,0,0.05
1757395048.9759033,0.07,-0.274,9.757,0.046032624300597944,1.6602160015810596,0.025563909774436087,0,0.05
1757395049.0011723,0.07,-0.274,9.757,0.046032624300597944,1.6602160015810596,0.025563909774436087,0,0.05
1757395049.0263772,0.064,-0.28,9.76,0.0461437157151437,1.6856365385967922,0.025864661654135347,0,0.05
1757395049.0518928,0.064,-0.28,9.76,0.0461437157151437,1.6856365385967922,0.025864661654135347,0,0.05
1757395049.0775404,0.069,-0.294,9.763,0.046272508036630126,1.7717040088024407,0.026115288220551387,0,0.05
1757395049.1027386,0.069,-0.294,9.763,0.046272508036630126,1.7717040088024407,0.026115288220551387,0,0.05
1757395049.127937,0.067,-0.292,9.739,0.04639361486239243,1.7619590934113996,0.026215538847117796,0,0.05
1757395049.1535628,0.067,-0.292,9.739,0.04639361486239243,1.7619590934113996,0.026215538847117796,0,0.05
1757395049.1793163,0.093,-0.308,9.741,0.0466260656714675,1.8917279755447445,0.027518796992481203,0,0.05
1757395049.2049441,0.093,-0.308,9.741,0.0466260656714675,1.8917279755447445,0.027518796992481203,0,0.05
1757395049.2303984,0.109,-0.308,9.757,0.04694350327787648,1.9178642104258845,0.02832080200501254,0,0.05
1757395049.2552881,0.109,-0.308,9.757,0.04694350327787648,1.9178642104258845,0.02832080200501254,0,0.05
1757395049.2802427,0.098,-0.31,9.745,0.047198543409728226,1.9108449208101,0.02887218045112783,0,0.05
1757395049.3052998,0.098,-0.31,9.745,0.047198543409728226,1.9108449208101,0.02887218045112783,0,0.05
1757395049.3308463,0.114,-0.318,9.745,0.04754148188687433,1.9853989884438406,0.02967418546365915,0,0.05
1757395049.3567398,0.114,-0.318,9.745,0.04754148188687433,1.9853989884438406,0.02967418546365915,0,0.05
1757395049.3817205,0.114,-0.318,9.745,0.04754148188687433,1.9853989884438406,0.02967418546365915,0,0.05
1757395049.406501,0.125,-0.333,9.732,0.04795054744213042,2.09313174225623,0.03022556390977444,0,0.05
1757395049.4313834,0.125,-0.333,9.732,0.04795054744213042,2.09313174225623,0.03022556390977444,0,0.05
1757395049.4564157,0.127,-0.337,9.736,0.0483691792363691,2.118413554502603,0.030325814536340857,0,0.05
1757395049.481344,0.127,-0.337,9.736,0.0483691792363691,2.118413554502603,0.030325814536340857,0,0.05
1757395049.5062706,0.15,-0.337,9.743,0.04894719093063462,2.168214009590364,0.03147869674185464,0,0.05
1757395049.5312533,0.15,-0.337,9.743,0.04894719093063462,2.168214009590364,0.03147869674185464,0,0.05
1757395049.556276,0.15,-0.337,9.743,0.04894719093063462,2.168214009590364,0.03147869674185464,0,0.05
1757395049.5817533,0.156,-0.327,9.736,0.04956478084285252,2.1311606472999425,0.031779448621553893,0,0.05
1757395049.606679,0.174,-0.333,9.754,0.050322534713585325,2.2059148288371326,0.03268170426065164,0,0.05
1757395049.6316097,0.174,-0.333,9.754,0.050322534713585325,2.2059148288371326,0.03268170426065164,0,0.05
1757395049.6573343,0.18,-0.336,9.758,0.051121008401634645,2.2370098379586802,0.032982456140350884,0,0.05
1757395049.6831872,0.18,-0.336,9.758,0.051121008401634645,2.2370098379586802,0.032982456140350884,0,0.05
1757395049.7084692,0.183,-0.334,9.76,0.051933418913065986,2.234621194326802,0.0331328320802005,0,0.05
1757395049.7336347,0.183,-0.334,9.76,0.051933418913065986,2.234621194326802,0.0331328320802005,0,0.05
1757395049.7588465,0.183,-0.334,9.76,0.051933418913065986,2.234621194326802,0.0331328320802005,0,0.05
1757395049.7844226,0.198,-0.336,9.756,0.05286861072507958,2.2892028025672646,0.03388471177944862,0,0.05
1757395049.8094115,0.198,-0.336,9.756,0.05286861072507958,2.2892028025672646,0.03388471177944862,0,0.05
1757395049.8345513,0.211,-0.336,9.735,0.053910968271771935,2.333846052279166,0.03453634085213033,0,0.05
1757395049.8598528,0.211,-0.336,9.735,0.053910968271771935,2.333846052279166,0.03453634085213033,0,0.05
1757395049.8850474,0.217,-0.336,9.734,0.05499195395691992,2.3530256917731482,0.03483709273182959,0,0.05
1757395049.910711,0.217,-0.336,9.734,0.05499195395691992,2.3530256917731482,0.03483709273182959,0,0.05
1757395049.9366324,0.209,-0.337,9.72,0.055976043983118354,2.3362048507325537,0.03523809523809524,0,0.05
1757395049.9625983,0.209,-0.337,9.72,0.055976043983118354,2.3362048507325537,0.03523809523809524,0,0.05
1757395049.987654,0.2,-0.34,9.731,0.05686226780563716,2.3213052066447557,0.035689223057644125,0,0.05
1757395050.012578,0.2,-0.34,9.731,0.05686226780563716,2.3213052066447557,0.035689223057644125,0,0.05
1757395050.038062,0.199,-0.33,9.723,0.057726250527814466,2.2696546999614875,0.03573934837092733,0,0.05
1757395050.0633695,0.199,-0.33,9.723,0.057726250527814466,2.2696546999614875,0.03573934837092733,0,0.05
1757395050.0885353,0.207,-0.32,9.759,0.058646760353833705,2.2364194093924783,0.03614035087719299,0,0.05
1757395050.114201,0.207,-0.32,9.759,0.058646760353833705,2.2364194093924783,0.03614035087719299,0,0.05
1757395050.1391451,0.206,-0.309,9.745,0.059544374209491865,2.1824262724449635,0.036190476190476197,0,0.05
1757395050.163983,0.206,-0.309,9.745,0.059544374209491865,2.1824262724449635,0.036190476190476197,0,0.05
1757395050.1894822,0.206,-0.309,9.745,0.059544374209491865,2.1824262724449635,0.036190476190476197,0,0.05
1757395050.2151089,0.202,-0.315,9.742,0.060394888028706545,2.1997333814989877,0.03639097744360902,0,0.05
1757395050.2406652,0.202,-0.315,9.742,0.060394888028706545,2.1997333814989877,0.03639097744360902,0,0.05
1757395050.2659848,0.189,-0.311,9.736,0.06112973908009096,2.1406851015053907,0.03704260651629073,0,0.05
1757395050.2910566,0.189,-0.311,9.736,0.06112973908009096,2.1406851015053907,0.03704260651629073,0,0.05
1757395050.316598,0.179,-0.309,9.735,0.06178144948121564,2.100799248703957,0.03754385964912281,0,0.05
1757395050.3424356,0.179,-0.309,9.735,0.06178144948121564,2.100799248703957,0.03754385964912281,0,0.05
1757395050.3678145,0.175,-0.304,9.729,0.06239799676271667,2.064863177869032,0.03774436090225564,0,0.05
1757395050.392957,0.175,-0.304,9.729,0.06239799676271667,2.064863177869032,0.03774436090225564,0,0.05
1757395050.4183733,0.154,-0.303,9.746,0.06287129710766273,1.9973686834831537,0.03879699248120301,0,0.05
1757395050.4437466,0.154,-0.303,9.746,0.06287129710766273,1.9973686834831537,0.03879699248120301,0,0.05
1757395050.4687586,0.156,-0.293,9.748,0.0633532950997815,1.950296185631133,0.03889724310776942,0,0.05
1757395050.4942348,0.156,-0.293,9.748,0.0633532950997815,1.950296185631133,0.03889724310776942,0,0.05
1757395050.5198822,0.128,-0.287,9.735,0.06367574106361072,1.8488898781880965,0.04030075187969925,0,0.05
1757395050.5452688,0.128,-0.287,9.735,0.06367574106361072,1.8488898781880965,0.04030075187969925,0,0.05
1757395050.5706222,0.125,-0.285,9.743,0.06398173567511278,1.8294987148192388,0.04045112781954886,0,0.05
1757395050.5954332,0.125,-0.285,9.743,0.06398173567511278,1.8294987148192388,0.04045112781954886,0,0.05
1757395050.6204517,0.125,-0.285,9.743,0.06398173567511278,1.8294987148192388,0.04045112781954886,0,0.05
1757395050.645876,0.106,-0.283,9.748,0.06420087616224564,1.7756725456691542,0.04140350877192982,0,0.05
1757395050.6714187,0.106,-0.283,9.748,0.06420087616224564,1.7756725456691542,0.04140350877192982,0,0.05
1757395050.6964064,0.081,-0.279,9.748,0.064328492909441,1.707084216505127,0.042656641604010025,0,0.05
1757395050.7212703,0.081,-0.279,9.748,0.064328492909441,1.707084216505127,0.042656641604010025,0,0.05
1757395050.746358,0.069,-0.277,9.758,0.06442093991863206,1.6756763135347696,0.04325814536340851,0,0.05
1757395050.7717826,0.069,-0.277,9.758,0.06442093991863206,1.6756763135347696,0.04325814536340851,0,0.05
1757395050.7971778,0.061,-0.275,9.757,0.06449310040616749,1.6536676559273873,0.04365914786967418,0,0.05
1757395050.822554,0.061,-0.275,9.757,0.06449310040616749,1.6536676559273873,0.04365914786967418,0,0.05
1757395050.847633,0.052,-0.274,9.74,0.06454548783609898,1.6401327376317318,0.04411027568922305,0,0.05
1757395050.8724294,0.052,-0.274,9.74,0.06454548783609898,1.6401327376317318,0.04411027568922305,0,0.05
1757395050.8973176,0.049,-0.276,9.727,0.06459196931507817,1.6507117970974479,0.044260651629072674,0,0.05
1757395050.9226422,0.049,-0.276,9.727,0.06459196931507817,1.6507117970974479,0.044260651629072674,0,0.05
1757395050.947819,0.049,-0.276,9.727,0.06459196931507817,1.6507117970974479,0.044260651629072674,0,0.05
1757395050.9729273,0.058,-0.279,9.74,0.06465703751332874,1.6758347460796323,0.04471177944862154,0,0.05
1757395050.9988794,0.058,-0.279,9.74,0.06465703751332874,1.6758347460796323,0.04471177944862154,0,0.05
1757395051.0237699,0.063,-0.28,9.738,0.0647337238230584,1.6881423390408732,0.0449624060150376,0,0.05
1757395051.0486887,0.063,-0.28,9.738,0.0647337238230584,1.6881423390408732,0.0449624060150376,0,0.05
1757395051.0740125,0.073,-0.282,9.727,0.06483654447917471,1.7153294284768195,0.04546365914786968,0,0.05
1757395051.0991704,0.073,-0.282,9.727,0.06483654447917471,1.7153294284768195,0.04546365914786968,0,0.05
1757395051.1242452,0.081,-0.277,9.743,0.06496291249628515,1.6966778478121822,0.04586466165413534,0,0.05
1757395051.1491807,0.081,-0.277,9.743,0.06496291249628515,1.6966778478121822,0.04586466165413534,0,0.05
1757395051.1744938,0.092,-0.275,9.725,0.06512557101477115,1.707945281047095,0.046416040100250626,0,0.05
1757395051.1997645,0.092,-0.275,9.725,0.06512557101477115,1.707945281047095,0.046416040100250626,0,0.05
1757395051.225195,0.098,-0.288,9.737,0.06530964706687672,1.7895330718199796,0.04671679197994988,0,0.05
1757395051.2512329,0.098,-0.288,9.737,0.06530964706687672,1.7895330718199796,0.04671679197994988,0,0.05
1757395051.276976,0.107,-0.287,9.747,0.06552840986930783,1.7999144149550672,0.047167919799498755,0,0.05
1757395051.3034515,0.107,-0.287,9.747,0.06552840986930783,1.7999144149550672,0.047167919799498755,0,0.05
1757395051.33031,0.118,-0.295,9.746,0.06579348371989432,1.86721123362352,0.04771929824561404,0,0.05
1757395051.3571198,0.118,-0.295,9.746,0.06579348371989432,1.86721123362352,0.04771929824561404,0,0.05
1757395051.3842475,0.118,-0.304,9.75,0.06605749389736186,1.9155984832744288,0.047719298245614036,0,0.05
1757395051.4109175,0.118,-0.304,9.75,0.06605749389736186,1.9155984832744288,0.047719298245614036,0,0.05
1757395051.4377105,0.143,-0.251,9.761,0.06644332171106439,1.6951757991982495,0.04897243107769424,0,0.05
1757395051.4644604,0.143,-0.251,9.761,0.06644332171106439,1.6951757991982495,0.04897243107769424,0,0.05
1757395051.4913075,0.71,0.012,9.749,0.07533236356307958,4.16597492867278,0.0773934837092732,0,0.05
1757395051.518706,0.71,0.012,9.749,0.07533236356307958,4.16597492867278,0.0773934837092732,0,0.05
1757395051.5455844,0.563,-0.023,9.668,0.08042006901265379,3.3355347944178595,0.08476190476190476,0,0.05
1757395051.5726442,0.563,-0.023,9.668,0.08042006901265379,3.3355347944178595,0.08476190476190476,0,0.05
1757395051.5994046,0.783,-0.15,9.857,0.08944333401657163,4.624041636073067,0.09578947368421051,0,0.05
1757395051.6269906,0.783,-0.15,9.857,0.08944333401657163,4.624041636073067,0.09578947368421051,0,0.05
1757395051.6538937,0.399,-0.003,9.767,0.09164121616390739,2.339403754563069,0.11503759398496238,0,0.05
1757395051.6812947,0.399,-0.003,9.767,0.09164121616390739,2.339403754563069,0.11503759398496238,0,0.05
1757395051.7079885,0.164,0.063,9.682,0.09200735024985776,1.0395443841485625,0.1268170426065163,0,0.05
1757395051.7346652,0.164,0.063,9.682,0.09200735024985776,1.0395443841485625,0.1268170426065163,0,0.05
1757395051.7604132,0.373,0.003,9.677,0.09387851191832985,2.207444607454266,0.13729323308270677,0,0.05
1757395051.7870038,0.373,0.003,9.677,0.09387851191832985,2.207444607454266,0.13729323308270677,0,0.05
1757395051.8143651,0.373,0.003,9.677,0.09387851191832985,2.207444607454266,0.13729323308270677,0,0.05
1757395051.841284,0.369,-0.142,9.652,0.09567433041312597,2.3457233873815944,0.13749373433583958,0,0.05
1757395051.8682148,0.19,-0.104,9.549,0.0961448256538021,1.2994236283103362,0.14646616541353383,0,0.05
1757395051.895895,0.19,-0.104,9.549,0.0961448256538021,1.2994236283103362,0.14646616541353383,0,0.05
1757395051.922826,0.481,-0.036,9.598,0.09910716422136193,2.876966060262025,0.16105263157894734,0,0.05
1757395051.9499214,0.481,-0.036,9.598,0.09910716422136193,2.876966060262025,0.16105263157894734,0,0.05
1757395051.9770482,0.221,-0.189,9.533,0.09972127405924977,1.747213646709822,0.17408521303258143,0,0.05
1757395052.004039,0.221,-0.189,9.533,0.09972127405924977,1.747213646709822,0.17408521303258143,0,0.05
1757395052.0303802,0.412,-0.456,9.487,0.1018267769302358,3.706374943193019,0.18365914786967416,0,0.05
1757395052.0572546,0.412,-0.456,9.487,0.1018267769302358,3.706374943193019,0.18365914786967416,0,0.05
1757395052.0838845,0.345,-0.369,9.476,0.10327756290695476,3.0515121474147096,0.1870175438596491,0,0.05
1757395052.1099548,0.345,-0.369,9.476,0.10327756290695476,3.0515121474147096,0.1870175438596491,0,0.05
1757395052.1365716,0.345,-0.369,9.476,0.10327756290695476,3.0515121474147096,0.1870175438596491,0,0.05
1757395052.1638958,0.411,-0.215,9.435,0.10530221982465517,2.81447799282967,0.19032581453634081,0,0.05
1757395052.1910572,0.094,-0.318,9.349,0.10540705621541663,2.0313876757808145,0.20621553884711777,0,0.05
1757395052.2180395,0.094,-0.318,9.349,0.10540705621541663,2.0313876757808145,0.20621553884711777,0,0.05
1757395052.2448742,0.248,-0.423,9.578,0.10613391305327435,2.9306628475101433,0.21393483709273178,0,0.05
1757395052.271391,0.248,-0.423,9.578,0.10613391305327435,2.9306628475101433,0.21393483709273178,0,0.05
1757395052.2984574,0.316,-0.316,9.561,0.10730352976486841,2.676119002106618,0.21734335839598995,0,0.05
1757395052.3254237,0.316,-0.316,9.561,0.10730352976486841,2.676119002106618,0.21734335839598995,0,0.05
1757395052.3521185,0.316,-0.316,9.561,0.10730352976486841,2.676119002106618,0.21734335839598995,0,0.05
1757395052.3787704,0.194,-0.429,9.582,0.10774106691508117,2.813051151420724,0.22345864661654136,0,0.05
1757395052.405761,0.194,-0.429,9.582,0.10774106691508117,2.813051151420724,0.22345864661654136,0,0.05
1757395052.4328077,0.313,-0.384,9.643,0.10887175942364485,2.94095391370404,0.22942355889724309,0,0.05
1757395052.460317,0.313,-0.384,9.643,0.10887175942364485,2.94095391370404,0.22942355889724309,0,0.05
1757395052.485861,0.272,-0.307,9.659,0.10971791102641355,2.431561302616061,0.2314786967418546,0,0.05
1757395052.5124857,0.272,-0.307,9.659,0.10971791102641355,2.431561302616061,0.2314786967418546,0,0.05
1757395052.5393991,0.145,-0.323,9.67,0.10995718484937672,2.096869022552269,0.23784461152882203,0,0.05
1757395052.5658455,0.145,-0.323,9.67,0.10995718484937672,2.096869022552269,0.23784461152882203,0,0.05
1757395052.5920749,0.132,-0.27,9.637,0.1101550838590757,1.7862474437873572,0.23849624060150376,0,0.05
1757395052.6187184,0.132,-0.27,9.637,0.1101550838590757,1.7862474437873572,0.23849624060150376,0,0.05
1757395052.6453602,0.174,-0.21,9.66,0.11049811084357959,1.6171360988713084,0.24060150375939848,0,0.05
1757395052.672111,0.174,-0.21,9.66,0.11049811084357959,1.6171360988713084,0.24060150375939848,0,0.05
1757395052.6987157,0.086,-0.192,9.555,0.11058174578111886,1.2613263850037277,0.24501253132832082,0,0.05
1757395052.7251277,0.086,-0.192,9.555,0.11058174578111886,1.2613263850037277,0.24501253132832082,0,0.05
1757395052.7519212,-0.015,-0.355,9.707,0.11058428911920534,2.096329004711784,0.25007518796992484,0,0.05
1757395052.7788599,-0.015,-0.355,9.707,0.11058428911920534,2.096329004711784,0.25007518796992484,0,0.05
1757395052.8058524,-0.008,-0.393,9.793,0.1105850125469089,2.2985624965144345,0.2504260651629073,0,0.05
1757395052.832628,-0.008,-0.393,9.793,0.1105850125469089,2.2985624965144345,0.2504260651629073,0,0.05
1757395052.8594868,0.095,-0.329,9.625,0.11068697981244226,2.037627553676076,0.25558897243107775,0,0.05
1757395052.8856986,0.095,-0.329,9.625,0.11068697981244226,2.037627553676076,0.25558897243107775,0,0.05
1757395052.912482,-0.0,-0.358,9.721,0.11068697981244226,2.1091064115868994,0.2603508771929825,0,0.05
1757395052.9396858,-0.0,-0.358,9.721,0.11068697981244226,2.1091064115868994,0.2603508771929825,0,0.05
1757395052.9657085,0.03,-0.246,9.902,0.11069714314290138,1.4336720595779109,0.26185463659147873,0,0.05
1757395052.9916534,0.03,-0.246,9.902,0.11069714314290138,1.4336720595779109,0.26185463659147873,0,0.05
1757395053.0181432,-0.242,-0.119,9.903,0.11135648836058004,1.5598771633601345,0.2754887218045113,0,0.05
1757395053.0453825,-0.242,-0.119,9.903,0.11135648836058004,1.5598771633601345,0.2754887218045113,0,0.05
1757395053.0722141,-0.224,-0.181,9.938,0.1119183072602512,1.6598784204939079,0.27639097744360897,0,0.05
1757395053.099251,-0.224,-0.181,9.938,0.1119183072602512,1.6598784204939079,0.27639097744360897,0,0.05
1757395053.126524,-0.019,-0.116,9.935,0.11192233914639205,0.6778621367269564,0.2866666666666667,0,0.05
1757395053.1536129,-0.019,-0.116,9.935,0.11192233914639205,0.6778621367269564,0.2866666666666667,0,0.05
1757395053.1796246,0.102,-0.059,9.766,0.11203847553407713,0.6912860300163176,0.2927318295739348,0,0.05
1757395053.2062135,0.102,-0.059,9.766,0.11203847553407713,0.6912860300163176,0.2927318295739348,0,0.05
1757395053.2330222,-0.066,-0.235,9.865,0.11208706437408378,1.4173947871728205,0.3011528822055138,0,0.05
1757395053.259256,-0.066,-0.235,9.865,0.11208706437408378,1.4173947871728205,0.3011528822055138,0,0.05
1757395053.2854302,0.132,-0.27,9.918,0.11228120946979507,1.7356703072223647,0.3110776942355889,0,0.05
1757395053.3131835,0.132,-0.27,9.918,0.11228120946979507,1.7356703072223647,0.3110776942355889,0,0.05
1757395053.3405426,0.057,-0.304,9.998,0.11231737398995759,1.7719340373579218,0.3148370927318295,0,0.05
1757395053.367826,0.057,-0.304,9.998,0.11231737398995759,1.7719340373579218,0.3148370927318295,0,0.05
1757395053.3949375,0.057,-0.304,9.998,0.11231737398995759,1.7719340373579218,0.3148370927318295,0,0.05
1757395053.4217336,-0.039,-0.217,9.801,0.11233430019366301,1.2886702809338042,0.3196491228070175,0,0.05
1757395053.4486303,0.193,-0.473,9.866,0.11274802659026897,2.964120016019255,0.3312781954887217,0,0.05
1757395053.4747775,0.193,-0.473,9.866,0.11274802659026897,2.964120016019255,0.3312781954887217,0,0.05
1757395053.5009203,0.142,-0.462,9.887,0.11297135698928291,2.7987000462446785,0.3338345864661654,0,0.05
1757395053.527772,0.142,-0.462,9.887,0.11297135698928291,2.7987000462446785,0.3338345864661654,0,0.05
1757395053.554959,0.229,-0.367,9.723,0.11355012109196537,2.5474621929060683,0.3381954887218045,0,0.05
1757395053.5819178,0.229,-0.367,9.723,0.11355012109196537,2.5474621929060683,0.3381954887218045,0,0.05
1757395053.6087775,0.335,-0.373,9.652,0.11477888525334265,2.9734325527606025,0.34350877192982454,0,0.05
1757395053.6355703,0.335,-0.373,9.652,0.11477888525334265,2.9734325527606025,0.34350877192982454,0,0.05
1757395053.662427,0.24,-0.535,9.748,0.1154044734834833,3.4423327793700884,0.34827067669172934,0,0.05
1757395053.6898537,0.24,-0.535,9.748,0.1154044734834833,3.4423327793700884,0.34827067669172934,0,0.05
1757395053.7155497,0.404,-0.418,9.709,0.11715900520233176,3.426492235574892,0.3564912280701755,0,0.05
1757395053.7419713,0.404,-0.418,9.709,0.11715900520233176,3.426492235574892,0.3564912280701755,0,0.05
1757395053.7681398,0.145,-0.397,9.515,0.11738311207324502,2.5433756639979097,0.36947368421052645,0,0.05
1757395053.7950294,0.145,-0.397,9.515,0.11738311207324502,2.5433756639979097,0.36947368421052645,0,0.05
1757395053.8224092,0.206,-0.354,9.665,0.11783414191141718,2.4265813599350934,0.372531328320802,0,0.05
1757395053.8492465,0.206,-0.354,9.665,0.11783414191141718,2.4265813599350934,0.372531328320802,0,0.05
1757395053.8761108,0.432,-0.243,9.548,0.11979751666875237,2.971661062531278,0.38385964912280707,0,0.05
1757395053.9035082,0.432,-0.243,9.548,0.11979751666875237,2.971661062531278,0.38385964912280707,0,0.05
1757395053.9302187,0.253,-0.229,9.41,0.12046355257919301,2.076885158970971,0.39283208020050137,0,0.05
1757395053.9574318,0.253,-0.229,9.41,0.12046355257919301,2.076885158970971,0.39283208020050137,0,0.05
1757395053.9841359,0.246,-0.284,9.603,0.12108987364763414,2.240621607850352,0.39318295739348375,0,0.05
1757395054.0107515,0.246,-0.284,9.603,0.12108987364763414,2.240621607850352,0.39318295739348375,0,0.05
1757395054.0377672,0.426,-0.107,9.62,0.12294896298871333,2.6142089639327204,0.4022055137844612,0,0.05
1757395054.0650816,0.426,-0.107,9.62,0.12294896298871333,2.6142089639327204,0.4022055137844612,0,0.05
1757395054.0919096,-0.012,-0.305,9.547,0.1229504270021052,1.8312326088432667,0.4241604010025063,0,0.05
1757395054.118605,-0.012,-0.305,9.547,0.1229504270021052,1.8312326088432667,0.4241604010025063,0,0.05
1757395054.1450748,0.225,-0.245,9.693,0.12346404334866083,1.9654849652622557,0.4360401002506266,0,0.05
1757395054.171734,0.225,-0.245,9.693,0.12346404334866083,1.9654849652622557,0.4360401002506266,0,0.05
1757395054.1985784,-0.062,-0.388,9.917,0.12350295543022444,2.268934652232915,0.45042606516290734,0,0.05
1757395054.225169,-0.062,-0.388,9.917,0.12350295543022444,2.268934652232915,0.45042606516290734,0,0.05
1757395054.251362,0.196,-0.309,9.785,0.12389116191238178,2.1416322637652354,0.4633583959899749,0,0.05
1757395054.2781086,0.196,-0.309,9.785,0.12389116191238178,2.1416322637652354,0.4633583959899749,0,0.05
1757395054.3050992,-0.014,-0.273,9.853,0.12389313943879218,1.5891896254063793,0.4738847117794486,0,0.05
1757395054.3327987,-0.014,-0.273,9.853,0.12389313943879218,1.5891896254063793,0.4738847117794486,0,0.05
1757395054.3597069,0.263,-0.262,9.921,0.12458905449516823,2.1429384849103714,0.48776942355889724,0,0.05
1757395054.386858,0.263,-0.262,9.921,0.12458905449516823,2.1429384849103714,0.48776942355889724,0,0.05
1757395054.4136612,0.153,-0.282,9.727,0.12482369566712885,1.8891376936463957,0.49328320802005005,0,0.05
1757395054.4405217,0.153,-0.282,9.727,0.12482369566712885,1.8891376936463957,0.49328320802005005,0,0.05
1757395054.4669793,0.254,-0.166,9.669,0.1254681035163918,1.7974729014636743,0.49834586466165415,0,0.05
1757395054.4932714,0.254,-0.166,9.669,0.1254681035163918,1.7974729014636743,0.49834586466165415,0,0.05
1757395054.5197034,0.295,-0.244,9.769,0.12633213170052976,2.2441896701466466,0.5004010025062656,0,0.05
1757395054.546518,0.295,-0.244,9.769,0.12633213170052976,2.2441896701466466,0.5004010025062656,0,0.05
1757395054.5734165,0.132,-0.131,9.756,0.12650441691893607,1.0920490275244412,0.5085714285714285,0,0.05
1757395054.6005611,0.132,-0.131,9.756,0.12650441691893607,1.0920490275244412,0.5085714285714285,0,0.05
1757395054.6265886,0.333,-0.176,9.646,0.12759541527813606,2.2361062250651127,0.5186466165413534,0,0.05
1757395054.652698,0.333,-0.176,9.646,0.12759541527813606,2.2361062250651127,0.5186466165413534,0,0.05
1757395054.6789095,0.071,-0.081,9.771,0.1276447903363079,0.6315859473826311,0.5317794486215539,0,0.05
1757395054.705856,0.071,-0.081,9.771,0.1276447903363079,0.6315859473826311,0.5317794486215539,0,0.05
1757395054.7319622,0.163,0.088,9.917,0.12790471062474595,1.0700921146855145,0.5363909774436091,0,0.05
1757395054.7589111,0.163,0.088,9.917,0.12790471062474595,1.0700921146855145,0.5363909774436091,0,0.05
1757395054.7856917,0.163,0.088,9.917,0.12790471062474595,1.0700921146855145,0.5363909774436091,0,0.05
1757395054.8128204,0.042,-0.103,9.779,0.12792194885945102,0.6516988630102153,0.5424561403508772,0,0.05
1757395054.84001,-0.068,-0.081,9.891,0.12796712468442822,0.6126097080347398,0.54796992481203,0,0.05
1757395054.8670492,-0.068,-0.081,9.891,0.12796712468442822,0.6126097080347398,0.54796992481203,0,0.05
1757395054.8939555,0.017,-0.022,9.919,0.12796994764396835,0.16059919044081644,0.5522305764411027,0,0.05
1757395054.9210868,0.017,-0.022,9.919,0.12796994764396835,0.16059919044081644,0.5522305764411027,0,0.05
1757395054.94813,-0.074,-0.158,9.72,0.1280234255907879,1.028328935360922,0.5567919799498746,0,0.05
1757395054.9750175,-0.074,-0.158,9.72,0.1280234255907879,1.028328935360922,0.5567919799498746,0,0.05
1757395055.0006318,-0.074,-0.158,9.72,0.1280234255907879,1.028328935360922,0.5567919799498746,0,0.05
1757395055.0274336,0.007,0.035,9.706,0.12802390401796063,0.21070027464960722,0.5608521303258145,0,0.05
1757395055.054377,0.007,0.035,9.706,0.12802390401796063,0.21070027464960722,0.5608521303258145,0,0.05
1757395055.0814095,-0.029,0.004,9.819,0.1280321151117953,0.17082227306408287,0.5626566416040099,0,0.05
1757395055.1080887,-0.029,0.004,9.819,0.1280321151117953,0.17082227306408287,0.5626566416040099,0,0.05
1757395055.1346698,-0.038,-0.008,9.73,0.1280462123610066,0.22866945518132645,0.5631077694235589,0,0.05
1757395055.1612952,-0.122,-0.05,9.854,0.12819142912067094,0.7665827034530395,0.5673182957393482,0,0.05
1757395055.1880963,-0.122,-0.05,9.854,0.12819142912067094,0.7665827034530395,0.5673182957393482,0,0.05
1757395055.21413,0.093,-0.147,9.93,0.12827573815807883,1.0035732491342737,0.5780952380952381,0,0.05
1757395055.239854,0.093,-0.147,9.93,0.12827573815807883,1.0035732491342737,0.5780952380952381,0,0.05
1757395055.2666352,0.093,-0.147,9.93,0.12827573815807883,1.0035732491342737,0.5780952380952381,0,0.05
1757395055.293209,0.116,-0.182,9.862,0.12840679499154242,1.2536839296288906,0.579248120300752,0,0.05
1757395055.319601,0.116,-0.182,9.862,0.12840679499154242,1.2536839296288906,0.579248120300752,0,0.05
1757395055.3464644,-0.022,-0.232,9.83,0.1284115064937718,1.358062250212272,0.5861654135338347,0,0.05
1757395055.3739076,-0.022,-0.232,9.83,0.1284115064937718,1.358062250212272,0.5861654135338347,0,0.05
1757395055.3997362,0.08,-0.118,9.897,0.12847379110153168,0.8252653678314393,0.5912781954887217,0,0.05
1757395055.4268813,0.08,-0.118,9.897,0.12847379110153168,0.8252653678314393,0.5912781954887217,0,0.05
1757395055.4543543,0.304,-0.154,9.655,0.12936983806127297,2.0214642105502922,0.6025062656641603,0,0.05
1757395055.4817085,0.304,-0.154,9.655,0.12936983806127297,2.0214642105502922,0.6025062656641603,0,0.05
1757395055.5087655,0.128,-0.232,9.648,0.12952804715581873,1.5731476505922337,0.611328320802005,0,0.05
1757395055.536405,0.128,-0.232,9.648,0.12952804715581873,1.5731476505922337,0.611328320802005,0,0.05
1757395055.5635345,0.186,-0.2,9.799,0.12986148389726648,1.596563580659803,0.6142355889724311,0,0.05
1757395055.590443,0.186,-0.2,9.799,0.12986148389726648,1.596563580659803,0.6142355889724311,0,0.05
1757395055.6175084,0.216,-0.287,9.698,0.13030980392894467,2.1211867591979106,0.6157393483709273,0,0.05
1757395055.645077,0.216,-0.287,9.698,0.13030980392894467,2.1211867591979106,0.6157393483709273,0,0.05
1757395055.6723626,0.292,-0.322,9.72,0.13112515014290738,2.560579425430081,0.6195488721804511,0,0.05
1757395055.6992927,0.292,-0.322,9.72,0.13112515014290738,2.560579425430081,0.6195488721804511,0,0.05
1757395055.7260172,0.152,-0.16,9.889,0.13134521308369027,1.2784404063843828,0.6265664160401003,0,0.05
1757395055.7530646,0.152,-0.16,9.889,0.13134521308369027,1.2784404063843828,0.6265664160401003,0,0.05
1757395055.7806523,0.148,-0.173,9.924,0.1315535062246537,1.3142042805529823,0.6267669172932331,0,0.05
1757395055.807887,0.148,-0.173,9.924,0.1315535062246537,1.3142042805529823,0.6267669172932331,0,0.05
1757395055.835041,0.223,-0.122,9.8,0.13202517752307702,1.4857958616099178,0.6305263157894738,0,0.05
1757395055.8622422,0.223,-0.122,9.8,0.13202517752307702,1.4857958616099178,0.6305263157894738,0,0.05
1757395055.8892865,0.223,-0.122,9.8,0.13202517752307702,1.4857958616099178,0.6305263157894738,0,0.05
1757395055.9162958,0.223,-0.122,9.8,0.13202517752307702,1.4857958616099178,0.6305263157894738,0,0.05
1757395055.943507,0.223,-0.122,9.8,0.13202517752307702,1.4857958616099178,0.6305263157894738,0,0.05
1757395055.9710526,0.223,-0.122,9.8,0.13202517752307702,1.4857958616099178,0.6305263157894738,0,0.05
1757395055.998262,0.223,-0.122,9.8,0.13202517752307702,1.4857958616099178,0.6305263157894738,0,0.05
1757395056.0257227,0.188,-0.173,9.902,0.13235938765346417,1.4779854308979237,0.632280701754386,0,0.05
1757395056.053198,0.241,-0.156,9.839,0.132906771836502,1.6713094579384944,0.634937343358396,0,0.05
1757395056.0810459,0.347,-0.219,9.666,0.13403444519973215,2.4307904699926413,0.6402506265664162,0,0.05
1757395056.1090052,0.22,-0.261,9.792,0.13448506422647832,1.996537620743182,0.6466165413533834,0,0.05
1757395056.1362786,0.22,-0.261,9.792,0.13448506422647832,1.996537620743182,0.6466165413533834,0,0.05
1757395056.163418,0.22,-0.261,9.792,0.13448506422647832,1.996537620743182,0.6466165413533834,0,0.05
1757395056.1905951,0.22,-0.261,9.792,0.13448506422647832,1.996537620743182,0.6466165413533834,0,0.05
1757395056.2180977,0.254,-0.259,9.843,0.13508339091094804,2.1106762600388476,0.6483208020050125,0,0.05
1757395056.245425,0.259,-0.189,9.766,0.13570270815278523,1.8804021061476959,0.6485714285714285,0,0.05
1757395056.2725053,0.109,-0.315,9.683,0.13581210365795826,1.9715600019411426,0.6560902255639097,0,0.05
1757395056.2997174,0.237,-0.36,9.736,0.13632809688395126,2.5348088756277947,0.6625062656641605,0,0.05
1757395056.32687,0.444,-0.282,9.681,0.13812382126193876,3.1099170740575097,0.6728822055137844,0,0.05
1757395056.354621,0.444,-0.282,9.681,0.13812382126193876,3.1099170740575097,0.6728822055137844,0,0.05
1757395056.3818178,-0.049,-0.242,9.741,0.13814554824531988,1.4519992516752689,0.6975939849624061,0,0.05
1757395056.4088976,-0.049,-0.242,9.741,0.13814554824531988,1.4519992516752689,0.6975939849624061,0,0.05
1757395056.436095,0.199,-0.355,9.974,0.1385034115103307,2.336558608854387,0.7100250626566417,0,0.05
1757395056.4632885,0.199,-0.355,9.974,0.1385034115103307,2.336558608854387,0.7100250626566417,0,0.05
1757395056.490112,0.042,-0.377,9.939,0.13851933078094192,2.185692374864766,0.7178947368421051,0,0.05
1757395056.5174148,0.043,-0.222,9.836,0.1385360151729506,1.3169771962997756,0.7179448621553883,0,0.05
1757395056.5442994,0.043,-0.222,9.836,0.1385360151729506,1.3169771962997756,0.7179448621553883,0,0.05
1757395056.5712843,0.117,-0.321,9.912,0.1386594749737644,1.9741523832229,0.7216541353383459,0,0.05
1757395056.598148,0.117,-0.321,9.912,0.1386594749737644,1.9741523832229,0.7216541353383459,0,0.05
1757395056.6254995,0.097,-0.377,9.865,0.13874427015195978,2.2597534150403367,0.7226566416040098,0,0.05
1757395056.65243,0.097,-0.377,9.865,0.13874427015195978,2.2597534150403367,0.7226566416040098,0,0.05
1757395056.6795092,0.181,-0.215,9.763,0.13903911320200515,1.6489006294664879,0.7268671679197994,0,0.05
1757395056.7068543,0.181,-0.215,9.763,0.13903911320200515,1.6489006294664879,0.7268671679197994,0,0.05
1757395056.7339628,0.222,-0.288,9.757,0.13948148622666737,2.134357133015616,0.728922305764411,0,0.05
1757395056.76102,0.222,-0.288,9.757,0.13948148622666737,2.134357133015616,0.728922305764411,0,0.05
1757395056.7878566,0.198,-0.286,9.766,0.13983238180049712,2.0399289357725165,0.730125313283208,0,0.05
1757395056.8148334,0.198,-0.286,9.766,0.13983238180049712,2.0399289357725165,0.730125313283208,0,0.05
1757395056.8416798,0.198,-0.286,9.766,0.13983238180049712,2.0399289357725165,0.730125313283208,0,0.05
1757395056.8685634,0.198,-0.286,9.766,0.13983238180049712,2.0399289357725165,0.730125313283208,0,0.05
1757395056.8956008,0.198,-0.286,9.766,0.13983238180049712,2.0399289357725165,0.730125313283208,0,0.05
1757395056.9229062,0.195,-0.45,9.802,0.14017188555484297,2.864349667511702,0.7302756892230577,0,0.05
1757395056.9498274,0.02,-0.439,9.772,0.14017545255857033,2.574906192983213,0.7390476190476192,0,0.05
1757395056.977063,0.02,-0.439,9.772,0.14017545255857033,2.574906192983213,0.7390476190476192,0,0.05
1757395057.004081,0.235,-0.418,9.795,0.14066705371194776,2.8027692850510717,0.749824561403509,0,0.05
1757395057.0311065,0.196,-0.426,9.766,0.14100801395665424,2.749015550017372,0.7517794486215539,0,0.05
1757395057.0580204,0.122,-0.456,9.733,0.14113989513953876,2.7765969055846296,0.7554887218045113,0,0.05
1757395057.084374,0.122,-0.456,9.733,0.14113989513953876,2.7765969055846296,0.7554887218045113,0,0.05
1757395057.1105962,0.203,-0.355,9.823,0.14150439039125254,2.3839111567870335,0.7595488721804511,0,0.05
1757395057.1380804,0.203,-0.355,9.823,0.14150439039125254,2.3839111567870335,0.7595488721804511,0,0.05
1757395057.165181,0.119,-0.195,9.741,0.1416294284391489,1.3434344945894499,0.7637593984962406,0,0.05
1757395057.1922233,0.119,-0.195,9.741,0.1416294284391489,1.3434344945894499,0.7637593984962406,0,0.05
1757395057.2193623,-0.112,-0.2,9.695,0.14174009665581577,1.354426610143714,0.7753383458646617,0,0.05
1757395057.2465086,-0.112,-0.2,9.695,0.14174009665581577,1.354426610143714,0.7753383458646617,0,0.05
1757395057.272591,0.085,-0.032,9.878,0.14180379931440484,0.5267954610843926,0.7852130325814537,0,0.05
1757395057.299874,0.085,-0.032,9.878,0.14180379931440484,0.5267954610843926,0.7852130325814537,0,0.05
1757395057.3268106,-0.062,-0.076,9.779,0.1418376801135721,0.5746470214618903,0.7925814536340853,0,0.05
1757395057.353135,-0.062,-0.076,9.779,0.1418376801135721,0.5746470214618903,0.7925814536340853,0,0.05
1757395057.380048,0.023,-0.116,9.688,0.14184234205624213,0.6993557801617303,0.7968421052631579,0,0.05
1757395057.4081185,0.023,-0.116,9.688,0.14184234205624213,0.6993557801617303,0.7968421052631579,0,0.05
1757395057.4351788,-0.076,0.004,9.83,0.1418932345110224,0.4435828164831312,0.8018045112781955,0,0.05
1757395057.462479,-0.076,0.004,9.83,0.1418932345110224,0.4435828164831312,0.8018045112781955,0,0.05
1757395057.489429,0.081,-0.06,9.796,0.14195102148276353,0.5895582943950088,0.8096741854636591,0,0.05
1757395057.5165513,0.081,-0.06,9.796,0.14195102148276353,0.5895582943950088,0.8096741854636591,0,0.05
1757395057.5434825,0.079,-0.244,9.628,0.14200596818443936,1.5258817931159625,0.8097744360902256,0,0.05
1757395057.5703502,0.079,-0.244,9.628,0.14200596818443936,1.5258817931159625,0.8097744360902256,0,0.05
1757395057.5969563,0.082,-0.187,9.677,0.14206514350818078,1.2087848922032443,0.8099248120300752,0,0.05
1757395057.6240191,0.082,-0.187,9.677,0.14206514350818078,1.2087848922032443,0.8099248120300752,0,0.05
1757395057.6506503,0.075,-0.265,9.73,0.14211462802962965,1.6213308349333868,0.8102756892230575,0,0.05
1757395057.678203,0.075,-0.265,9.73,0.14211462802962965,1.6213308349333868,0.8102756892230575,0,0.05
1757395057.7057114,0.247,-0.251,9.525,0.14265023659286374,2.1173285054469493,0.8188972431077695,0,0.05
1757395057.7332764,0.247,-0.251,9.525,0.14265023659286374,2.1173285054469493,0.8188972431077695,0,0.05
1757395057.7600844,0.4,-0.246,9.599,0.14404544421813553,2.8007258129167045,0.8265664160401004,0,0.05
1757395057.7873433,0.4,-0.246,9.599,0.14404544421813553,2.8007258129167045,0.8265664160401004,0,0.05
1757395057.814227,0.152,-0.334,9.757,0.14424579716580999,2.153877435929554,0.8389974937343359,0,0.05
1757395057.8410656,0.152,-0.334,9.757,0.14424579716580999,2.153877435929554,0.8389974937343359,0,0.05
1757395057.8669956,0.38,-0.36,9.553,0.1454917523435607,3.136346638139971,0.8504260651629072,0,0.05
1757395057.8943648,0.38,-0.36,9.553,0.1454917523435607,3.136346638139971,0.8504260651629072,0,0.05
1757395057.9216423,0.218,-0.274,9.51,0.14589948594837474,2.1085855378822824,0.858546365914787,0,0.05
1757395057.948859,0.218,-0.274,9.51,0.14589948594837474,2.1085855378822824,0.858546365914787,0,0.05
1757395057.9753306,0.287,-0.347,9.638,0.14660348733914894,2.6750407975644666,0.8620050125313284,0,0.05
1757395058.0020437,0.287,-0.347,9.638,0.14660348733914894,2.6750407975644666,0.8620050125313284,0,0.05
1757395058.0290735,0.356,-0.334,9.542,0.1476801357664598,2.9285962863000425,0.8654636591478695,0,0.05
1757395058.0548165,0.356,-0.334,9.542,0.1476801357664598,2.9285962863000425,0.8654636591478695,0,0.05
1757395058.0811467,0.234,-0.229,9.511,0.14814287866785902,1.971588623195968,0.871578947368421,0,0.05
1757395058.1072028,0.234,-0.229,9.511,0.14814287866785902,1.971588623195968,0.871578947368421,0,0.05
1757395058.1340005,0.239,-0.202,9.642,0.14862407274731776,1.8588736943555302,0.8718295739348372,0,0.05
1757395058.1614165,0.239,-0.202,9.642,0.14862407274731776,1.8588736943555302,0.8718295739348372,0,0.05
1757395058.1884527,0.108,-0.187,9.76,0.14872214024818228,1.2675019566098626,0.8783959899749374,0,0.05
1757395058.2158642,0.108,-0.187,9.76,0.14872214024818228,1.2675019566098626,0.8783959899749374,0,0.05
1757395058.2422643,-0.015,-0.248,9.681,0.14872403134665224,1.4701163653734037,0.8845614035087719,0,0.05
1757395058.2692554,-0.015,-0.248,9.681,0.14872403134665224,1.4701163653734037,0.8845614035087719,0,0.05
1757395058.2962005,0.176,-0.174,9.683,0.14898415184173114,1.4641254576629013,0.8941353383458647,0,0.05
1757395058.322856,0.176,-0.174,9.683,0.14898415184173114,1.4641254576629013,0.8941353383458647,0,0.05
1757395058.3488991,0.154,-0.277,9.823,0.14918300003686746,1.8479576805703848,0.895238095238095,0,0.05
1757395058.3760815,0.154,-0.277,9.823,0.14918300003686746,1.8479576805703848,0.895238095238095,0,0.05
1757395058.4029841,0.147,-0.294,9.68,0.14936395147424295,1.9448350466001254,0.8955889724310775,0,0.05
1757395058.4299161,0.147,-0.294,9.68,0.14936395147424295,1.9448350466001254,0.8955889724310775,0,0.05
1757395058.456939,0.036,-0.167,9.831,0.14937479707099185,0.9955454141088056,0.9011528822055136,0,0.05
1757395058.4841504,0.036,-0.167,9.831,0.14937479707099185,0.9955454141088056,0.9011528822055136,0,0.05
1757395058.510765,0.036,-0.167,9.831,0.14937479707099185,0.9955454141088056,0.9011528822055136,0,0.05
1757395058.5375686,0.199,-0.108,9.832,0.14970581986015108,1.319211685102807,0.9093233082706765,0,0.05
1757395058.5650759,0.077,-0.155,9.849,0.14975531710092965,1.0067304646417643,0.915438596491228,0,0.05
1757395058.5924692,0.077,-0.155,9.849,0.14975531710092965,1.0067304646417643,0.915438596491228,0,0.05
1757395058.6187432,0.157,-0.186,9.767,0.149960919909155,1.4275700040032209,0.9194486215538847,0,0.05
1757395058.6456735,0.157,-0.186,9.767,0.149960919909155,1.4275700040032209,0.9194486215538847,0,0.05
1757395058.6725185,0.157,-0.186,9.767,0.149960919909155,1.4275700040032209,0.9194486215538847,0,0.05
1757395058.699347,0.103,-0.229,9.804,0.15004932522340778,1.4671244071012728,0.922155388471178,0,0.05
1757395058.7251396,0.017,-0.204,9.862,0.15005173274574338,1.1891268763158613,0.9264661654135338,0,0.05
1757395058.751915,0.017,-0.204,9.862,0.15005173274574338,1.1891268763158613,0.9264661654135338,0,0.05
1757395058.7787113,0.171,-0.273,9.738,0.15029512633482164,1.8946562681566916,0.9341854636591479,0,0.05
1757395058.8056154,0.171,-0.273,9.738,0.15029512633482164,1.8946562681566916,0.9341854636591479,0,0.05
1757395058.830969,0.171,-0.273,9.738,0.15029512633482164,1.8946562681566916,0.9341854636591479,0,0.05
1757395058.8578212,0.053,-0.204,9.813,0.15031848688700936,1.2304607898383717,0.9401002506265664,0,0.05
1757395058.8850365,0.053,-0.204,9.813,0.15031848688700936,1.2304607898383717,0.9401002506265664,0,0.05
1757395058.9120035,0.104,-0.105,9.769,0.15040840235837888,0.8667136860665097,0.9426566416040099,0,0.05
1757395058.9392548,0.104,-0.105,9.769,0.15040840235837888,0.8667136860665097,0.9426566416040099,0,0.05
1757395058.966215,0.118,-0.22,9.621,0.15052407614730606,1.4863895181683497,0.9433583959899747,0,0.05
1757395058.992745,0.118,-0.22,9.621,0.15052407614730606,1.4863895181683497,0.9433583959899747,0,0.05
1757395059.0191882,0.026,-0.105,9.678,0.1505296897625183,0.6403691779793284,0.9479699248120299,0,0.05
1757395059.0460308,0.026,-0.105,9.678,0.1505296897625183,0.6403691779793284,0.9479699248120299,0,0.05
1757395059.0730767,0.098,-0.16,9.624,0.15060942035609856,1.116883847972809,0.951578947368421,0,0.05
1757395059.0997117,0.098,-0.16,9.624,0.15060942035609856,1.116883847972809,0.951578947368421,0,0.05
1757395059.1263397,0.118,-0.277,9.59,0.15072493987393062,1.7982599907592118,0.9525814536340849,0,0.05
1757395059.1533847,0.118,-0.277,9.59,0.15072493987393062,1.7982599907592118,0.9525814536340849,0,0.05
1757395059.1803913,0.014,-0.381,9.587,0.1507265653426761,2.277346380328167,0.9577944862155386,0,0.05
1757395059.2075677,0.014,-0.381,9.587,0.1507265653426761,2.277346380328167,0.9577944862155386,0,0.05
1757395059.2340474,0.186,-0.192,9.65,0.1510132030651625,1.5867765468807662,0.9664160401002505,0,0.05
1757395059.2607634,0.186,-0.192,9.65,0.1510132030651625,1.5867765468807662,0.9664160401002505,0,0.05
1757395059.287621,0.386,-0.171,9.555,0.1522415104365429,2.529929935372513,0.9764411027568923,0,0.05
1757395059.3148308,0.386,-0.171,9.555,0.1522415104365429,2.529929935372513,0.9764411027568923,0,0.05
1757395059.341844,0.135,-0.052,9.477,0.15239107585419823,0.8745653364933273,0.9890225563909774,0,0.05
1757395059.368441,0.135,-0.052,9.477,0.15239107585419823,0.8745653364933273,0.9890225563909774,0,0.05
1757395059.3953948,0.385,-0.116,9.667,0.15360209145711526,2.3818265641801757,1.0015538847117795,0,0.05
1757395059.4224317,0.385,-0.116,9.667,0.15360209145711526,2.3818265641801757,1.0015538847117795,0,0.05
1757395059.4495296,0.131,-0.282,9.767,0.15374168270186198,1.8234520032514732,1.014285714285714,0,0.05
1757395059.4757018,0.131,-0.282,9.767,0.15374168270186198,1.8234520032514732,1.014285714285714,0,0.05
1757395059.5027487,0.12,-0.305,9.665,0.1538587176600663,1.9422586179300991,1.0148370927318295,0,0.05
1757395059.5298672,0.12,-0.305,9.665,0.1538587176600663,1.9422586179300991,1.0148370927318295,0,0.05
1757395059.5570877,0.234,-0.325,9.684,0.15430293257096572,2.368082992124839,1.0205513784461149,0,0.05
1757395059.5841448,0.234,-0.325,9.684,0.15430293257096572,2.368082992124839,1.0205513784461149,0,0.05
1757395059.6112154,0.186,-0.496,9.722,0.15458293890336022,3.1188242001868676,1.022957393483709,0,0.05
1757395059.638229,0.186,-0.496,9.722,0.15458293890336022,3.1188242001868676,1.022957393483709,0,0.05
1757395059.6657205,0.13,-0.4,9.744,0.15471953658151902,2.47160900653928,1.0257644110275688,0,0.05
1757395059.6928935,0.13,-0.4,9.744,0.15471953658151902,2.47160900653928,1.0257644110275688,0,0.05
1757395059.7192748,0.168,-0.482,9.858,0.15494739429883939,2.964080636757679,1.0276691729323306,0,0.05
1757395059.7458205,0.168,-0.482,9.858,0.15494739429883939,2.964080636757679,1.0276691729323306,0,0.05
1757395059.7728179,0.292,-0.418,9.792,0.15563372063919825,2.9808203947743293,1.0338847117794485,0,0.05
1757395059.8003259,0.292,-0.418,9.792,0.15563372063919825,2.9808203947743293,1.0338847117794485,0,0.05
1757395059.827648,0.154,-0.422,9.743,0.1558240835044442,2.6398730561652886,1.0408020050125313,0,0.05
1757395059.854486,0.154,-0.422,9.743,0.1558240835044442,2.6398730561652886,1.0408020050125313,0,0.05
1757395059.8814802,0.313,-0.414,9.785,0.1566080058617694,3.036166683743557,1.0487719298245612,0,0.05
1757395059.9089804,0.313,-0.414,9.785,0.1566080058617694,3.036166683743557,1.0487719298245612,0,0.05
1757395059.9362266,0.206,-0.439,9.895,0.15694635229912163,2.805682110256717,1.0541353383458647,0,0.05
1757395059.9635406,0.206,-0.439,9.895,0.15694635229912163,2.805682110256717,1.0541353383458647,0,0.05
1757395059.9902954,0.186,-0.312,9.732,0.1572216508627231,2.137505428854773,1.0551378446115287,0,0.05
1757395060.0177178,0.186,-0.312,9.732,0.1572216508627231,2.137505428854773,1.0551378446115287,0,0.05
1757395060.0440273,0.058,-0.367,9.672,0.15724839426843126,2.199964984315082,1.0615538847117791,0,0.05
1757395060.0714307,0.058,-0.367,9.672,0.15724839426843126,2.199964984315082,1.0615538847117791,0,0.05
1757395060.0982356,0.242,-0.338,9.816,0.1577132445294307,2.424993475432326,1.0707769423558895,0,0.05
1757395060.1256652,0.242,-0.338,9.816,0.1577132445294307,2.424993475432326,1.0707769423558895,0,0.05
1757395060.1528823,0.096,-0.443,9.73,0.15778627158279646,2.6672568297313943,1.0780952380952382,0,0.05
1757395060.1806617,0.096,-0.443,9.73,0.15778627158279646,2.6672568297313943,1.0780952380952382,0,0.05
1757395060.2077768,0.12,-0.386,9.708,0.15790030873940686,2.3843103283040037,1.079298245614035,0,0.05
1757395060.233915,0.12,-0.386,9.708,0.15790030873940686,2.3843103283040037,1.079298245614035,0,0.05
1757395060.2599306,0.299,-0.277,9.752,0.1586064626678245,2.3933172893462027,1.0882706766917292,0,0.05
1757395060.286754,0.299,-0.277,9.752,0.1586064626678245,2.3933172893462027,1.0882706766917292,0,0.05
1757395060.3135772,0.152,-0.363,9.811,0.1587884441639252,2.2970182807756525,1.0956390977443609,0,0.05
1757395060.339774,0.152,-0.363,9.811,0.1587884441639252,2.2970182807756525,1.0956390977443609,0,0.05
1757395060.3683956,0.18,-0.291,9.604,0.15904329599200337,2.040469164156026,1.0970426065162908,0,0.05
1757395060.395599,0.18,-0.291,9.604,0.15904329599200337,2.040469164156026,1.0970426065162908,0,0.05
1757395060.4229112,0.341,-0.288,9.633,0.15995459511999022,2.6529097549279337,1.1051127819548872,0,0.05
1757395060.4510212,0.341,-0.288,9.633,0.15995459511999022,2.6529097549279337,1.1051127819548872,0,0.05
1757395060.4780772,0.183,-0.213,9.557,0.16021608845556054,1.6830576223698572,1.113032581453634,0,0.05
1757395060.5038176,0.183,-0.213,9.557,0.16021608845556054,1.6830576223698572,1.113032581453634,0,0.05
1757395060.5289767,0.231,-0.202,9.533,0.1606318695029103,1.8436898353399596,1.1154385964912281,0,0.05
1757395060.5552232,0.231,-0.202,9.533,0.1606318695029103,1.8436898353399596,1.1154385964912281,0,0.05
1757395060.5815873,0.015,-0.269,9.699,0.16063362039124934,1.5911474983329474,1.1262656641604012,0,0.05
1757395060.6081164,0.015,-0.269,9.699,0.16063362039124934,1.5911474983329474,1.1262656641604012,0,0.05
1757395060.635592,0.166,-0.405,9.894,0.16084790952946823,2.5330506151306493,1.1338345864661654,0,0.05
1757395060.6629612,0.166,-0.405,9.894,0.16084790952946823,2.5330506151306493,1.1338345864661654,0,0.05
1757395060.6902287,0.034,-0.493,9.734,0.16085689292038435,2.9062694323482035,1.1404511278195488,0,0.05
1757395060.7167518,0.034,-0.493,9.734,0.16085689292038435,2.9062694323482035,1.1404511278195488,0,0.05
1757395060.7430813,0.049,-0.387,9.814,0.16087554972711052,2.2762111043873556,1.1412030075187969,0,0.05
1757395060.7703714,0.049,-0.387,9.814,0.16087554972711052,2.2762111043873556,1.1412030075187969,0,0.05
1757395060.7975857,-0.017,-0.372,9.964,0.16087779523601137,2.1403401007360645,1.1445112781954887,0,0.05
1757395060.8248467,-0.017,-0.372,9.964,0.16087779523601137,2.1403401007360645,1.1445112781954887,0,0.05
1757395060.852473,0.202,-0.424,9.867,0.16119452534127826,2.725165631783351,1.1554887218045113,0,0.05
1757395060.8804278,0.202,-0.424,9.867,0.16119452534127826,2.725165631783351,1.1554887218045113,0,0.05
1757395060.908208,0.276,-0.3,9.738,0.1617841617711697,2.397085483232563,1.1591979949874687,0,0.05
1757395060.935659,0.276,-0.3,9.738,0.1617841617711697,2.397085483232563,1.1591979949874687,0,0.05
1757395060.9629512,0.046,-0.377,9.878,0.1618005098879481,2.2018621482090635,1.1707268170426062,0,0.05
1757395060.9890387,0.046,-0.377,9.878,0.1618005098879481,2.2018621482090635,1.1707268170426062,0,0.05
1757395061.0154793,0.319,-0.381,9.745,0.16258477019696527,2.9190712603247544,1.1844110275689221,0,0.05
1757395061.0421865,0.319,-0.381,9.745,0.16258477019696527,2.9190712603247544,1.1844110275689221,0,0.05
1757395061.069516,0.227,-0.497,9.722,0.16298045895137245,3.2166973568238038,1.1890225563909773,0,0.05
1757395061.0969048,0.227,-0.497,9.722,0.16298045895137245,3.2166973568238038,1.1890225563909773,0,0.05
1757395061.1236885,0.272,-0.478,9.674,0.16354690458703278,3.2537864416351128,1.1912781954887217,0,0.05
1757395061.1506214,0.272,-0.478,9.674,0.16354690458703278,3.2537864416351128,1.1912781954887217,0,0.05
1757395061.178922,0.294,-0.326,9.571,0.16420621181916353,2.6261251795090215,1.1923809523809523,0,0.05
1757395061.2062178,0.294,-0.326,9.571,0.16420621181916353,2.6261251795090215,1.1923809523809523,0,0.05
1757395061.2331886,0.112,-0.479,9.598,0.164301673758973,2.933974086901693,1.201503759398496,0,0.05
1757395061.2606115,0.112,-0.479,9.598,0.164301673758973,2.933974086901693,1.201503759398496,0,0.05
1757395061.2879047,0.163,-0.175,9.694,0.16450368536905186,1.4132102195864942,1.2040601503759398,0,0.05
1757395061.314697,0.163,-0.175,9.694,0.16450368536905186,1.4132102195864942,1.2040601503759398,0,0.05
1757395061.3406165,0.231,-0.161,9.632,0.1649086565344585,1.6744407820148641,1.207468671679198,0,0.05
1757395061.3678734,0.231,-0.161,9.632,0.1649086565344585,1.6744407820148641,1.207468671679198,0,0.05
1757395061.3950658,0.159,-0.05,9.401,0.16510017413679492,1.0157270485832204,1.211077694235589,0,0.05
1757395061.4229429,0.159,-0.05,9.401,0.16510017413679492,1.0157270485832204,1.211077694235589,0,0.05
1757395061.451064,0.225,0.043,9.335,0.16548302027700607,1.4057019459093112,1.2143859649122806,0,0.05
1757395061.478374,0.243,-0.146,9.567,0.16592845596822747,1.6972791322292529,1.2152882205513784,0,0.05
1757395061.5057814,0.243,-0.146,9.567,0.16592845596822747,1.6972791322292529,1.2152882205513784,0,0.05
1757395061.5329936,0.232,-0.287,9.449,0.16633343770871808,2.236626666502097,1.2158395989974935,0,0.05
1757395061.5600111,0.232,-0.287,9.449,0.16633343770871808,2.236626666502097,1.2158395989974935,0,0.05
1757395061.5875554,0.114,-0.173,9.435,0.16643107432207485,1.2579578480804572,1.2217543859649123,0,0.05
1757395061.614609,0.114,-0.173,9.435,0.16643107432207485,1.2579578480804572,1.2217543859649123,0,0.05
1757395061.641467,0.114,-0.173,9.435,0.16643107432207485,1.2579578480804572,1.2217543859649123,0,0.05
1757395061.6691864,0.178,-0.22,9.63,0.16666887081875847,1.6832330785205896,1.2249624060150375,0,0.05
1757395061.6963804,0.21,-0.284,9.717,0.1669992889206418,2.081756762548301,1.2265664160401004,0,0.05
1757395061.7238739,0.21,-0.284,9.717,0.1669992889206418,2.081756762548301,1.2265664160401004,0,0.05
1757395061.7513673,0.1,-0.34,9.556,0.16707412277190026,2.1239403531509473,1.232080200501253,0,0.05
1757395061.7784433,0.1,-0.34,9.556,0.16707412277190026,2.1239403531509473,1.232080200501253,0,0.05
1757395061.8058193,0.232,-0.355,9.67,0.16747633414903731,2.511146050788174,1.2386967418546366,0,0.05
1757395061.8330417,0.232,-0.355,9.67,0.16747633414903731,2.511146050788174,1.2386967418546366,0,0.05
1757395061.860084,0.174,-0.475,9.732,0.16770215413047027,2.9755403375780096,1.2416040100250627,0,0.05
1757395061.8869514,0.174,-0.475,9.732,0.16770215413047027,2.9755403375780096,1.2416040100250627,0,0.05
1757395061.913825,0.207,-0.401,9.665,0.1680212337771628,2.6732998505196295,1.2432581453634084,0,0.05
1757395061.9402251,0.207,-0.401,9.665,0.1680212337771628,2.6732998505196295,1.2432581453634084,0,0.05
1757395061.9675643,0.342,-0.374,9.879,0.1688891500363478,2.9367057495595863,1.2500250626566414,0,0.05
1757395061.9949844,0.342,-0.374,9.879,0.1688891500363478,2.9367057495595863,1.2500250626566414,0,0.05
1757395062.0218606,0.199,-0.45,9.977,0.16918199520043495,2.8233793078806113,1.2571929824561403,0,0.05
1757395062.049241,0.199,-0.45,9.977,0.16918199520043495,2.8233793078806113,1.2571929824561403,0,0.05
1757395062.0750322,0.148,-0.286,9.85,0.16934375542074176,1.8724969697921827,1.259749373433584,0,0.05
1757395062.101307,0.148,-0.286,9.85,0.16934375542074176,1.8724969697921827,1.259749373433584,0,0.05
1757395062.128011,0.148,-0.286,9.85,0.16934375542074176,1.8724969697921827,1.259749373433584,0,0.05
1757395062.155293,0.204,-0.245,9.931,0.16965066312867746,1.838717415575635,1.2625563909774435,0,0.05
1757395062.1825957,0.244,-0.275,9.964,0.1700887635912496,2.1130883022174807,1.264561403508772,0,0.05
1757395062.2097578,0.244,-0.275,9.964,0.1700887635912496,2.1130883022174807,1.264561403508772,0,0.05
1757395062.2375588,0.269,-0.335,9.916,0.1706197233616325,2.4809268108144362,1.2658145363408522,0,0.05
1757395062.2649295,0.269,-0.335,9.916,0.1706197233616325,2.4809268108144362,1.2658145363408522,0,0.05
1757395062.2923372,0.244,-0.141,9.808,0.17105534192184704,1.6458090403680086,1.2670676691729323,0,0.05
1757395062.3196948,0.244,-0.141,9.808,0.17105534192184704,1.6458090403680086,1.2670676691729323,0,0.05
1757395062.3471723,0.244,-0.141,9.808,0.17105534192184704,1.6458090403680086,1.2670676691729323,0,0.05
1757395062.3745358,0.373,-0.093,9.857,0.1720690341113124,2.2333805537236753,1.2735338345864662,0,0.05
1757395062.401536,0.487,-0.152,9.804,0.1737834140532404,2.9788068814831146,1.279248120300752,0,0.05
1757395062.4286442,0.487,-0.152,9.804,0.1737834140532404,2.9788068814831146,1.279248120300752,0,0.05
1757395062.455989,0.161,-0.143,9.68,0.1739697603033355,1.2743660687201244,1.2955889724310778,0,0.05
1757395062.4833994,0.161,-0.143,9.68,0.1739697603033355,1.2743660687201244,1.2955889724310778,0,0.05
1757395062.5101871,0.383,-0.159,9.719,0.1750205702196173,2.443228286577858,1.3067167919799498,0,0.05
1757395062.5381908,0.383,-0.159,9.719,0.1750205702196173,2.443228286577858,1.3067167919799498,0,0.05
1757395062.565501,0.132,-0.367,9.746,0.17514496852607556,2.2916469867137477,1.319298245614035,0,0.05
1757395062.5921714,0.132,-0.367,9.746,0.17514496852607556,2.2916469867137477,1.319298245614035,0,0.05
1757395062.6189091,0.22,-0.439,9.601,0.17549005669837822,2.927827162756076,1.3237092731829574,0,0.05
1757395062.645979,0.22,-0.439,9.601,0.17549005669837822,2.927827162756076,1.3237092731829574,0,0.05
1757395062.6727831,0.234,-0.354,9.697,0.1758796463494284,2.5057130471596794,1.3244110275689223,0,0.05
1757395062.6994798,0.234,-0.354,9.697,0.1758796463494284,2.5057130471596794,1.3244110275689223,0,0.05
1757395062.7265885,0.246,-0.495,9.737,0.1763092170024018,3.249124310560868,1.325012531328321,0,0.05
1757395062.754188,0.246,-0.495,9.737,0.1763092170024018,3.249124310560868,1.325012531328321,0,0.05
1757395062.7816958,0.039,-0.347,9.639,0.17632000028357533,2.0747036271377612,1.3353884711779447,0,0.05
1757395062.8100693,0.039,-0.347,9.639,0.17632000028357533,2.0747036271377612,1.3353884711779447,0,0.05
1757395062.8367758,0.133,-0.213,9.761,0.17644535981430626,1.4736781093209745,1.3401002506265665,0,0.05
1757395062.863776,0.133,-0.213,9.761,0.17644535981430626,1.4736781093209745,1.3401002506265665,0,0.05
1757395062.8911166,0.116,-0.234,9.887,0.17654066103875335,1.5131692369346756,1.340952380952381,0,0.05
1757395062.918362,0.116,-0.234,9.887,0.17654066103875335,1.5131692369346756,1.340952380952381,0,0.05
1757395062.9456549,0.077,-0.247,9.793,0.1765826364623657,1.5133599343696273,1.342907268170426,0,0.05
1757395062.9728248,0.077,-0.247,9.793,0.1765826364623657,1.5133599343696273,1.342907268170426,0,0.05
1757395063.0000315,0.015,-0.217,9.712,0.17658422919388925,1.2830281668214418,1.3460150375939852,0,0.05
1757395063.0273936,0.015,-0.217,9.712,0.17658422919388925,1.2830281668214418,1.3460150375939852,0,0.05
1757395063.0548027,-0.058,-0.001,9.917,0.1766080405870582,0.3351428050884132,1.3496741854636591,0,0.05
1757395063.0828493,-0.058,-0.001,9.917,0.1766080405870582,0.3351428050884132,1.3496741854636591,0,0.05
1757395063.1097538,0.038,-0.018,9.864,0.1766182606640661,0.244235094595403,1.354486215538847,0,0.05
1757395063.136356,0.038,-0.018,9.864,0.1766182606640661,0.244235094595403,1.354486215538847,0,0.05
1757395063.1638937,-0.124,-0.01,9.762,0.17672704942933892,0.7301123282162737,1.362606516290727,0,0.05
1757395063.1909776,-0.124,-0.01,9.762,0.17672704942933892,0.7301123282162737,1.362606516290727,0,0.05
1757395063.2167382,0.005,-0.111,9.969,0.17672722625560555,0.6385812897731312,1.3690726817042607,0,0.05
1757395063.2439344,0.005,-0.111,9.969,0.17672722625560555,0.6385812897731312,1.3690726817042607,0,0.05
1757395063.2709877,-0.126,-0.283,9.87,0.17683948229962673,1.7977088943423092,1.3756390977443609,0,0.05
1757395063.2984734,-0.126,-0.283,9.87,0.17683948229962673,1.7977088943423092,1.3756390977443609,0,0.05
1757395063.3259237,0.053,-0.327,9.789,0.1768593367622982,1.9381934528610365,1.3846115288220553,0,0.05
1757395063.3532507,0.053,-0.327,9.789,0.1768593367622982,1.9381934528610365,1.3846115288220553,0,0.05
1757395063.3798199,-0.025,-0.28,9.774,0.17686375405944543,1.6474522691663414,1.3885213032581454,0,0.05
1757395063.4072013,-0.025,-0.28,9.774,0.17686375405944543,1.6474522691663414,1.3885213032581454,0,0.05
1757395063.4345438,0.274,-0.412,9.687,0.1773935666815457,2.9240144828411676,1.4035087719298245,0,0.05
1757395063.4615214,0.274,-0.412,9.687,0.1773935666815457,2.9240144828411676,1.4035087719298245,0,0.05
1757395063.4883344,-0.066,-0.167,9.553,0.1774242584879531,1.0768690695884438,1.4205513784461155,0,0.05
1757395063.5159853,-0.066,-0.167,9.553,0.1774242584879531,1.0768690695884438,1.4205513784461155,0,0.05
1757395063.5433033,0.371,-0.164,9.545,0.17839133947588376,2.4334209891950143,1.442456140350877,0,0.05
1757395063.570899,0.371,-0.164,9.545,0.17839133947588376,2.4334209891950143,1.442456140350877,0,0.05
1757395063.5981672,0.158,-0.07,9.646,0.1785661782085286,1.0263675334000602,1.4531328320802004,0,0.05
1757395063.625554,0.158,-0.07,9.646,0.1785661782085286,1.0263675334000602,1.4531328320802004,0,0.05
1757395063.6527655,0.101,-0.05,9.534,0.17863757303546196,0.677245637451957,1.4559899749373433,0,0.05
1757395063.6803353,0.101,-0.05,9.534,0.17863757303546196,0.677245637451957,1.4559899749373433,0,0.05
1757395063.7074854,0.149,0.129,9.501,0.17879285500265385,1.1883430396866776,1.4583959899749372,0,0.05
1757395063.7342145,0.149,0.129,9.501,0.17879285500265385,1.1883430396866776,1.4583959899749372,0,0.05
1757395063.7609413,0.367,0.025,9.527,0.17973204360936865,2.2111700933575786,1.4693233082706767,0,0.05
1757395063.7884676,0.367,0.025,9.527,0.17973204360936865,2.2111700933575786,1.4693233082706767,0,0.05
1757395063.8161232,0.117,-0.136,9.448,0.17982722263328207,1.087820695112376,1.4818546365914786,0,0.05
1757395063.8445513,0.117,-0.136,9.448,0.17982722263328207,1.087820695112376,1.4818546365914786,0,0.05
1757395063.8717823,0.365,-0.169,9.466,0.1807509128607654,2.4331306312180327,1.494285714285714,0,0.55
1757395063.899285,0.365,-0.169,9.466,0.1807509128607654,2.4331306312180327,1.494285714285714,0,0.55
1757395063.9264457,0.148,-0.175,9.569,0.18090232861961725,1.3720584634653046,1.5051629072681703,0,0.55
1757395063.9536996,0.148,-0.175,9.569,0.18090232861961725,1.3720584634653046,1.5051629072681703,0,0.55
1757395063.9809577,0.263,-0.367,9.431,0.18137964328997894,2.7409259146268443,1.5109273182957395,0,0.55
1757395064.0082924,0.263,-0.367,9.431,0.18137964328997894,2.7409259146268443,1.5109273182957395,0,0.55
1757395064.0348842,0.593,-0.333,9.38,0.18378709829582707,4.147001533321249,1.527468671679198,0,0.55
1757395064.0624647,0.593,-0.333,9.38,0.18378709829582707,4.147001533321249,1.527468671679198,0,0.55
1757395064.0899105,0.257,-0.431,9.666,0.18423577285641352,2.971820835986179,1.544310776942356,0,0.55
1757395064.117323,0.257,-0.431,9.666,0.18423577285641352,2.971820835986179,1.544310776942356,0,0.55
1757395064.1450102,0.499,-0.343,9.505,0.1859175153125708,3.645103656462355,1.5564411027568923,0,0.55
1757395064.172914,0.499,-0.343,9.505,0.1859175153125708,3.645103656462355,1.5564411027568923,0,0.55
1757395064.2003667,0.311,-0.276,9.362,0.1865666770889164,2.5430939100155423,1.5658646616541352,0,0.55
1757395064.2268167,0.311,-0.276,9.362,0.1865666770889164,2.5430939100155423,1.5658646616541352,0,0.55
1757395064.2543213,0.46,-0.421,9.534,0.1879790546842919,3.74209991126352,1.5733333333333333,0,0.55
1757395064.2815373,0.46,-0.421,9.534,0.1879790546842919,3.74209991126352,1.5733333333333333,0,0.55
1757395064.3089983,0.293,-0.384,9.526,0.18854905860279442,2.9027009919443,1.5817042606516292,0,0.55
1757395064.3357136,0.293,-0.384,9.526,0.18854905860279442,2.9027009919443,1.5817042606516292,0,0.55
1757395064.363103,0.288,-0.373,9.469,0.18909814250806378,2.849103519120552,1.5819548872180447,0,0.55
1757395064.3904102,0.288,-0.373,9.469,0.18909814250806378,2.849103519120552,1.5819548872180447,0,0.55
1757395064.4183035,0.274,-0.27,9.587,0.1895937696761157,2.2977492758915647,1.5826566416040098,0,0.55
1757395064.4455664,0.274,-0.27,9.587,0.1895937696761157,2.2977492758915647,1.5826566416040098,0,0.55
1757395064.4722495,0.29,-0.237,9.53,0.190147436217268,2.250542136649121,1.5834586466165412,0,0.55
1757395064.4989755,0.29,-0.237,9.53,0.190147436217268,2.250542136649121,1.5834586466165412,0,0.55
1757395064.5258992,0.258,-0.278,9.44,0.19058451537310162,2.300747902092768,1.5850626566416042,0,0.55
1757395064.5522425,0.258,-0.278,9.44,0.19058451537310162,2.300747902092768,1.5850626566416042,0,0.55
1757395064.5784638,0.257,-0.163,9.476,0.1910172243542451,1.8394840635381648,1.585112781954887,0,0.55
1757395064.6061354,0.257,-0.163,9.476,0.1910172243542451,1.8394840635381648,1.585112781954887,0,0.55
1757395064.6330495,0.245,-0.295,9.522,0.19140961966421646,2.306175472134862,1.5857142857142852,0,0.55
1757395064.6612928,0.245,-0.295,9.522,0.19140961966421646,2.306175472134862,1.5857142857142852,0,0.55
1757395064.688614,0.233,-0.481,9.514,0.19176382609866752,3.215291673440849,1.5863157894736837,0,0.55
1757395064.7150424,0.233,-0.481,9.514,0.19176382609866752,3.215291673440849,1.5863157894736837,0,0.55
1757395064.7425296,0.221,-0.348,9.483,0.1920819291344191,2.4891881464510006,1.5869172932330826,0,0.55
1757395064.7700279,0.221,-0.348,9.483,0.1920819291344191,2.4891881464510006,1.5869172932330826,0,0.55
1757395064.7973702,0.219,-0.141,9.518,0.1923937888810343,1.5675372796481208,1.5870175438596492,0,0.55
1757395064.8246381,0.219,-0.141,9.518,0.1923937888810343,1.5675372796481208,1.5870175438596492,0,0.55
1757395064.8508732,0.165,-0.252,9.458,0.19257059095303208,1.824104105234084,1.5897243107769423,0,0.55
1757395064.8790429,0.165,-0.252,9.458,0.19257059095303208,1.824104105234084,1.5897243107769423,0,0.55
1757395064.9063473,0.113,-0.255,9.462,0.19265345831310687,1.6884453102202621,1.5923308270676693,0,0.55
1757395064.9327612,0.113,-0.255,9.462,0.19265345831310687,1.6884453102202621,1.5923308270676693,0,0.55
1757395064.9589868,0.069,-0.219,9.678,0.1926843467954779,1.359100232501146,1.5945363408521305,0,0.55
1757395064.986144,0.069,-0.219,9.678,0.1926843467954779,1.359100232501146,1.5945363408521305,0,0.55
1757395065.012996,-0.037,-0.443,9.806,0.192693227696253,2.595653667897856,1.5998496240601505,0,0.55
1757395065.0402532,-0.037,-0.443,9.806,0.192693227696253,2.595653667897856,1.5998496240601505,0,0.55
1757395065.0677955,0.004,-0.458,9.844,0.19269333148814463,2.6639126022635633,1.6019047619047617,0,0.55
1757395065.0945086,0.004,-0.458,9.844,0.19269333148814463,2.6639126022635633,1.6019047619047617,0,0.55
1757395065.1211812,0.064,-0.394,9.932,0.19271990037357328,2.3014617581937333,1.6049122807017542,0,0.55
1757395065.1491086,0.064,-0.394,9.932,0.19271990037357328,2.3014617581937333,1.6049122807017542,0,0.55
1757395065.1762636,-0.021,-0.466,9.954,0.19272276072119765,2.6830812714778487,1.609172932330827,0,0.55
1757395065.2038708,-0.021,-0.466,9.954,0.19272276072119765,2.6830812714778487,1.609172932330827,0,0.55
1757395065.231511,-0.043,-0.429,9.863,0.19273475296375586,2.50302513462036,1.6102756892230576,0,0.55
1757395065.2586555,-0.043,-0.429,9.863,0.19273475296375586,2.50302513462036,1.6102756892230576,0,0.55
1757395065.2863424,0.171,-0.207,9.877,0.19292430510435954,1.557141750375962,1.6210025062656641,0,0.55
1757395065.3133729,0.079,-0.189,9.838,0.19296473771132383,1.1928371389870835,1.6256140350877193,0,0.55
1757395065.3395731,0.079,-0.189,9.838,0.19296473771132383,1.1928371389870835,1.6256140350877193,0,0.55
1757395065.3671951,0.026,-0.456,9.714,0.19296911670005645,2.6919961934343544,1.6282706766917292,0,0.55
1757395065.394544,0.026,-0.456,9.714,0.19296911670005645,2.6919961934343544,1.6282706766917292,0,0.55
1757395065.4219186,0.237,-0.432,9.694,0.19333262140673518,2.909806416381912,1.638847117794486,0,0.55
1757395065.4501474,0.237,-0.432,9.694,0.19333262140673518,2.909806416381912,1.638847117794486,0,0.55
1757395065.4779127,0.21,-0.187,9.728,0.1936175418189168,1.6556986048191842,1.6402005012531327,0,0.55
1757395065.505225,0.21,-0.187,9.728,0.1936175418189168,1.6556986048191842,1.6402005012531327,0,0.55
1757395065.5326045,0.358,-0.515,9.66,0.19444321150402757,3.7149026831335337,1.6476190476190475,0,0.55
1757395065.5597465,0.358,-0.515,9.66,0.19444321150402757,3.7149026831335337,1.6476190476190475,0,0.55
1757395065.5875294,0.215,-0.385,9.637,0.19474014737593273,2.6198831451002444,1.6547869674185463,0,0.55
1757395065.6147819,0.215,-0.385,9.637,0.19474014737593273,2.6198831451002444,1.6547869674185463,0,0.55
1757395065.6409724,0.289,-0.431,9.773,0.19527551689856054,3.0394202207651175,1.6584962406015038,0,0.55
1757395065.668929,0.289,-0.431,9.773,0.19527551689856054,3.0394202207651175,1.6584962406015038,0,0.55
1757395065.695633,0.226,-0.39,9.769,0.19560219196113318,2.6418053046869745,1.6616541353383456,0,0.55
1757395065.7228582,0.226,-0.39,9.769,0.19560219196113318,2.6418053046869745,1.6616541353383456,0,0.55
1757395065.7504394,0.344,-0.407,9.651,0.19635696448050932,3.1605103605598144,1.6675689223057644,0,0.55
1757395065.7787082,0.344,-0.407,9.651,0.19635696448050932,3.1605103605598144,1.6675689223057644,0,0.55
1757395065.806255,0.435,-0.381,9.584,0.19755789024992143,3.452818036141273,1.6721303258145361,0,0.55
1757395065.8340425,0.435,-0.381,9.584,0.19755789024992143,3.452818036141273,1.6721303258145361,0,0.55
1757395065.8618793,0.477,-0.376,9.662,0.1989923176909099,3.5970111552900215,1.674235588972431,0,0.55
1757395065.889792,0.477,-0.376,9.662,0.1989923176909099,3.5970111552900215,1.674235588972431,0,0.55
1757395065.9161065,0.298,-0.411,9.7,0.19954937358959562,2.995940004373391,1.6832080200501252,0,0.55
1757395065.9426684,0.298,-0.411,9.7,0.19954937358959562,2.995940004373391,1.6832080200501252,0,0.55
1757395065.9696143,0.278,-0.339,9.586,0.2000329035433921,2.6185750436651523,1.6842105263157892,0,0.55
1757395065.9965117,0.278,-0.339,9.586,0.2000329035433921,2.6185750436651523,1.6842105263157892,0,0.55
1757395066.023643,0.351,-0.405,9.664,0.200801307266661,3.1741903001638483,1.6878696741854637,0,0.55
1757395066.0508869,0.351,-0.405,9.664,0.200801307266661,3.1741903001638483,1.6878696741854637,0,0.55
1757395066.0782952,0.382,-0.551,9.626,0.20170764735130892,3.984307673904267,1.6894235588972433,0,0.55
1757395066.1063383,0.382,-0.551,9.626,0.20170764735130892,3.984307673904267,1.6894235588972433,0,0.55
1757395066.1347668,0.24,-0.33,9.671,0.20206428432555812,2.4160218336490984,1.6965413533834586,0,0.55
1757395066.1623023,0.24,-0.33,9.671,0.20206428432555812,2.4160218336490984,1.6965413533834586,0,0.55
1757395066.188506,0.24,-0.33,9.671,0.20206428432555812,2.4160218336490984,1.6965413533834586,0,0.55
1757395066.2149258,0.302,-0.262,9.77,0.2026277004755273,2.34336220305708,1.6996491228070179,0,0.55
1757395066.2417421,0.238,-0.257,9.662,0.2029768336534985,2.0762294157965737,1.702857142857143,0,0.55
1757395066.2688875,0.238,-0.257,9.662,0.2029768336534985,2.0762294157965737,1.702857142857143,0,0.55
1757395066.2961724,0.259,-0.207,9.674,0.2033895216081694,1.9629295075671835,1.7039097744360903,0,0.55
1757395066.323674,0.259,-0.207,9.674,0.2033895216081694,1.9629295075671835,1.7039097744360903,0,0.55
1757395066.3508747,0.129,-0.317,9.849,0.20349176887530365,1.9901685355547296,1.7104260651629073,0,0.55
1757395066.3785193,0.129,-0.317,9.849,0.20349176887530365,1.9901685355547296,1.7104260651629073,0,0.55
1757395066.4065585,0.072,-0.518,9.813,0.2035236104239506,3.0506696259822803,1.71328320802005,0,0.55
1757395066.4340699,0.072,-0.518,9.813,0.2035236104239506,3.0506696259822803,1.71328320802005,0,0.55
1757395066.460903,0.248,-0.436,9.723,0.2039010053923227,2.953199808686969,1.7221052631578944,0,0.55
1757395066.488537,0.248,-0.436,9.723,0.2039010053923227,2.953199808686969,1.7221052631578944,0,0.55
1757395066.5165277,0.146,-0.378,9.845,0.20403163970325777,2.3569394227435456,1.7272180451127819,0,0.55
1757395066.544485,0.146,-0.378,9.845,0.20403163970325777,2.3569394227435456,1.7272180451127819,0,0.55
1757395066.5727448,0.294,-0.383,9.844,0.20456050449683585,2.808002889706406,1.7346365914786965,0,0.55
1757395066.599642,0.294,-0.383,9.844,0.20456050449683585,2.808002889706406,1.7346365914786965,0,0.55
1757395066.6270425,0.106,-0.376,9.735,0.20462915237081936,2.2979896104421016,1.7440601503759399,0,0.55
1757395066.6549861,0.106,-0.376,9.735,0.20462915237081936,2.2979896104421016,1.7440601503759399,0,0.55
1757395066.6821423,0.083,-0.361,9.793,0.20467123026942502,2.166171165980109,1.7452130325814534,0,0.55
1757395066.710054,0.083,-0.361,9.793,0.20467123026942502,2.166171165980109,1.7452130325814534,0,0.55
1757395066.7367296,0.129,-0.267,9.827,0.20477283755420297,1.7283768946382438,1.7475187969924812,0,0.55
1757395066.7640486,0.129,-0.267,9.827,0.20477283755420297,1.7283768946382438,1.7475187969924812,0,0.55
1757395066.791787,-0.032,-0.519,9.853,0.20477908828784253,3.0209444804794052,1.7555889724310778,0,0.55
1757395066.8193061,-0.032,-0.519,9.853,0.20477908828784253,3.0209444804794052,1.7555889724310778,0,0.55
1757395066.8465273,0.116,-0.277,9.877,0.20486120911485414,1.7415299953052183,1.7630075187969922,0,0.55
1757395066.8732932,0.116,-0.277,9.877,0.20486120911485414,1.7415299953052183,1.7630075187969922,0,0.55
1757395066.9004772,-0.015,-0.201,9.967,0.20486258199095314,1.158513274720026,1.7695739348370927,0,0.55
1757395066.9276512,-0.015,-0.201,9.967,0.20486258199095314,1.158513274720026,1.7695739348370927,0,0.55
1757395066.9537215,-0.009,-0.338,9.815,0.20486307622409658,1.973018791463549,1.7698746867167918,0,0.55
1757395066.979976,-0.009,-0.338,9.815,0.20486307622409658,1.973018791463549,1.7698746867167918,0,0.55
1757395067.00761,-0.017,-0.252,9.812,0.20486483958942295,1.4745371232524631,1.7702756892230578,0,0.55
1757395067.0346532,-0.017,-0.252,9.812,0.20486483958942295,1.4745371232524631,1.7702756892230578,0,0.55
1757395067.061469,0.041,-0.303,9.788,0.20487509609515747,1.78924595662569,1.7731829573934836,0,0.55
1757395067.088654,0.041,-0.303,9.788,0.20487509609515747,1.78924595662569,1.7731829573934836,0,0.55
1757395067.1159112,-0.03,-0.281,9.842,0.2048805871721379,1.6447024295546957,1.7767418546365914,0,0.55
1757395067.1440828,-0.03,-0.281,9.842,0.2048805871721379,1.6447024295546957,1.7767418546365914,0,0.55
1757395067.171871,0.183,-0.243,9.601,0.20508480562928108,1.814767328795394,1.787418546365915,0,0.55
1757395067.199267,0.183,-0.243,9.601,0.20508480562928108,1.814767328795394,1.787418546365915,0,0.55
1757395067.227202,0.179,-0.162,9.672,0.20528000389711612,1.4298634776041015,1.7876190476190477,0,0.55
1757395067.2545638,0.179,-0.162,9.672,0.20528000389711612,1.4298634776041015,1.7876190476190477,0,0.55
1757395067.2809265,0.139,-0.268,9.861,0.2053976204828089,1.7536077712027014,1.789624060150376,0,0.55
1757395067.3087263,0.139,-0.268,9.861,0.2053976204828089,1.7536077712027014,1.789624060150376,0,0.55
1757395067.3353887,0.152,-0.319,9.668,0.2055381777188851,2.093211320624558,1.7902756892230576,0,0.55
1757395067.36182,0.152,-0.319,9.668,0.2055381777188851,2.093211320624558,1.7902756892230576,0,0.55
1757395067.3885343,0.064,-0.365,9.827,0.20556308642360865,2.159555791291023,1.7946867167919798,0,0.55
1757395067.415611,0.064,-0.365,9.827,0.20556308642360865,2.159555791291023,1.7946867167919798,0,0.55
1757395067.4436672,0.092,-0.387,9.995,0.20561454836659784,2.2790782014348134,1.7960902255639095,0,0.55
1757395067.4722676,0.092,-0.387,9.995,0.20561454836659784,2.2790782014348134,1.7960902255639095,0,0.55
1757395067.5005534,-0.143,-0.302,9.965,0.2057388271571509,1.9205155824766744,1.8078696741854638,0,0.55
1757395067.5289588,0.095,-0.321,9.964,0.2057936527203888,1.9242545505567696,1.8197994987468669,0,0.55
1757395067.5571406,0.095,-0.321,9.964,0.2057936527203888,1.9242545505567696,1.8197994987468669,0,0.55
1757395067.5845551,0.108,-0.428,10.141,0.20586448819551176,2.492388672133528,1.8204511278195485,0,0.55
1757395067.6124916,0.108,-0.428,10.141,0.20586448819551176,2.492388672133528,1.8204511278195485,0,0.55
1757395067.6398451,0.093,-0.376,9.913,0.20591699784136325,2.23757951647688,1.8212030075187966,0,0.55
1757395067.6671844,0.093,-0.376,9.913,0.20591699784136325,2.23757951647688,1.8212030075187966,0,0.55
1757395067.694458,-0.027,-0.296,10.071,0.205921423120568,1.6904992249022297,1.8272180451127817,0,0.55
1757395067.7213538,-0.027,-0.296,10.071,0.205921423120568,1.6904992249022297,1.8272180451127817,0,0.55
1757395067.7488277,0.088,-0.417,10.162,0.20596842597835233,2.4015210058713516,1.8329824561403507,0,0.55
1757395067.776201,0.088,-0.417,10.162,0.20596842597835233,2.4015210058713516,1.8329824561403507,0,0.55
1757395067.8034637,0.127,-0.493,10.072,0.20606628787843975,2.8935869541589416,1.834937343358396,0,0.55
1757395067.8307192,0.127,-0.493,10.072,0.20606628787843975,2.8935869541589416,1.834937343358396,0,0.55
1757395067.8578823,0.132,-0.368,10.002,0.20617195493082952,2.2384357176813965,1.8351879699248121,0,0.55
1757395067.8855057,0.132,-0.368,10.002,0.20617195493082952,2.2384357176813965,1.8351879699248121,0,0.55
1757395067.9127843,0.404,-0.323,10.09,0.2071591537924405,2.9346065719415924,1.8488220551378447,0,0.55
1757395067.9388366,0.404,-0.323,10.09,0.2071591537924405,2.9346065719415924,1.8488220551378447,0,0.55
1757395067.9643893,0.227,-0.404,10.096,0.2074698472067688,2.6280287239279394,1.8576942355889725,0,0.55
1757395067.991217,0.227,-0.404,10.096,0.2074698472067688,2.6280287239279394,1.8576942355889725,0,0.55
1757395068.0179367,0.286,-0.519,9.727,0.20796208188032742,3.486245417930632,1.8606516290726816,0,0.55
1757395068.044637,0.286,-0.519,9.727,0.20796208188032742,3.486245417930632,1.8606516290726816,0,0.55
1757395068.0715356,0.117,-0.391,9.872,0.20804434623416232,2.3673835920010045,1.8691228070175439,0,0.55
1757395068.0998514,0.117,-0.391,9.872,0.20804434623416232,2.3673835920010045,1.8691228070175439,0,0.55
1757395068.1271124,0.355,-0.51,9.845,0.20880017361103895,3.611562650219954,1.8810526315789473,0,0.55
1757395068.1545877,0.355,-0.51,9.845,0.20880017361103895,3.611562650219954,1.8810526315789473,0,0.55
1757395068.1818142,0.204,-0.4,9.687,0.20904916287801775,2.653903235099427,1.8886215538847115,0,0.55
1757395068.2089396,0.204,-0.4,9.687,0.20904916287801775,2.653903235099427,1.8886215538847115,0,0.55
1757395068.2355092,0.22,-0.394,9.718,0.20933836843732206,2.6586499349393553,1.8894235588972428,0,0.55
1757395068.2615366,0.22,-0.394,9.718,0.20933836843732206,2.6586499349393553,1.8894235588972428,0,0.55
1757395068.2886996,0.067,-0.405,9.821,0.2093651714111017,2.393493121980804,1.897092731829574,0,0.55
1757395068.3151498,0.067,-0.405,9.821,0.2093651714111017,2.393493121980804,1.897092731829574,0,0.55
1757395068.3425128,0.056,-0.505,9.826,0.20938389384095427,2.9600875629631203,1.8976441102756891,0,0.55
1757395068.3698125,0.056,-0.505,9.826,0.20938389384095427,2.9600875629631203,1.8976441102756891,0,0.55
1757395068.3969831,0.168,-0.463,9.785,0.20955232043573271,2.881605638437439,1.9032581453634085,0,0.55
1757395068.4231322,0.168,-0.463,9.785,0.20955232043573271,2.881605638437439,1.9032581453634085,0,0.55
1757395068.4493864,0.008,-0.498,9.953,0.209552702201618,2.864783976569961,1.9112781954887217,0,0.55
1757395068.476182,0.008,-0.498,9.953,0.209552702201618,2.864783976569961,1.9112781954887217,0,0.55
1757395068.5035243,-0.148,-0.641,9.868,0.20968332074821783,3.8140592328443237,1.9190977443609023,0,0.55
1757395068.5292459,-0.148,-0.641,9.868,0.20968332074821783,3.8140592328443237,1.9190977443609023,0,0.55
1757395068.5557983,0.013,-0.536,9.643,0.20968432821744212,3.182409190861814,1.9271679197994986,0,0.55
1757395068.5821948,0.013,-0.536,9.643,0.20968432821744212,3.182409190861814,1.9271679197994986,0,0.55
1757395068.6094995,-0.023,-0.38,9.707,0.2096874817436654,2.245912000708678,1.9289724310776943,0,0.55
1757395068.6360986,-0.023,-0.38,9.707,0.2096874817436654,2.245912000708678,1.9289724310776943,0,0.55
1757395068.6632304,0.093,-0.257,9.781,0.20973903427831453,1.6005928246279741,1.934786967418546,0,0.55
1757395068.6904693,0.093,-0.257,9.781,0.20973903427831453,1.6005928246279741,1.934786967418546,0,0.55
1757395068.7173266,0.094,-0.185,9.633,0.20979168834822795,1.2340591136436052,1.9348370927318295,0,0.55
1757395068.7441065,0.094,-0.185,9.633,0.20979168834822795,1.2340591136436052,1.9348370927318295,0,0.55
1757395068.771525,-0.083,-0.234,9.752,0.2098327310025774,1.4584248570788871,1.9437092731829573,0,0.55
1757395068.7991116,-0.083,-0.234,9.752,0.2098327310025774,1.4584248570788871,1.9437092731829573,0,0.55
1757395068.8263674,-0.011,-0.238,9.86,0.20983345181357524,1.3842085709068277,1.9473182957393484,0,0.55
1757395068.854306,-0.011,-0.238,9.86,0.20983345181357524,1.3842085709068277,1.9473182957393484,0,0.55
1757395068.8814864,0.15,-0.146,9.799,0.20996744390500163,1.2237457392506672,1.955388471177945,0,0.55
1757395068.9086573,0.15,-0.146,9.799,0.20996744390500163,1.2237457392506672,1.955388471177945,0,0.55
1757395068.935303,0.023,-0.113,9.78,0.2099705931791402,0.675548939399147,1.961754385964912,0,0.55
1757395068.9617968,0.023,-0.113,9.78,0.2099705931791402,0.675548939399147,1.961754385964912,0,0.55
1757395068.9901748,0.248,-0.124,9.807,0.21033642100216499,1.6194869980755042,1.973032581453634,0,0.55
1757395069.0176425,0.248,-0.124,9.807,0.21033642100216499,1.6194869980755042,1.973032581453634,0,0.55
1757395069.045085,0.051,-0.23,9.728,0.2103518778142948,1.3872814985941984,1.9829072681704258,0,0.55
1757395069.0732124,0.051,-0.23,9.728,0.2103518778142948,1.3872814985941984,1.9829072681704258,0,0.55
1757395069.1015503,0.088,-0.097,9.659,0.21039789091148228,0.776844144397754,1.984761904761905,0,0.55
1757395069.1299453,0.088,-0.097,9.659,0.21039789091148228,0.776844144397754,1.984761904761905,0,0.55
1757395069.1568077,0.196,-0.253,9.671,0.2106260014812986,1.8953777373988472,1.9901754385964912,0,0.55
1757395069.1849818,0.196,-0.253,9.671,0.2106260014812986,1.8953777373988472,1.9901754385964912,0,0.55
1757395069.2127366,0.084,-0.332,9.667,0.21066787249127475,2.028903132521617,1.9957894736842103,0,0.55
1757395069.241131,0.084,-0.332,9.667,0.21066787249127475,2.028903132521617,1.9957894736842103,0,0.55
1757395069.267857,0.044,-0.32,9.658,0.21067935945412403,1.9155375635306102,1.9977944862155388,0,0.55
1757395069.2953,0.044,-0.32,9.658,0.21067935945412403,1.9155375635306102,1.9977944862155388,0,0.55
1757395069.3216875,0.11,-0.17,9.802,0.2107511387869589,1.1834178028442173,1.9883709273182955,0,0.55
1757395069.3490186,0.11,-0.17,9.802,0.2107511387869589,1.1834178028442173,1.9883709273182955,0,0.55
1757395069.3763528,0.114,-0.224,9.735,0.21044534326042952,1.4789466920314092,1.988270676691729,0,0.55
1757395069.4044392,0.114,-0.224,9.735,0.21044534326042952,1.4789466920314092,1.988270676691729,0,0.55
1757395069.4312613,0.133,-0.292,9.576,0.21018493047790082,1.9190909043124753,1.988671679197995,0,0.55
1757395069.4589682,0.133,-0.292,9.576,0.21018493047790082,1.9190909043124753,1.988671679197995,0,0.55
1757395069.4871278,0.182,-0.362,9.676,0.20998288620742406,2.397824421970845,1.9904761904761905,0,0.55
1757395069.5153675,0.182,-0.362,9.676,0.20998288620742406,2.397824421970845,1.9904761904761905,0,0.55
1757395069.5424898,0.173,-0.37,9.817,0.20972046871967456,2.382479677572484,1.9902756892230578,0,0.55
1757395069.568793,0.173,-0.37,9.817,0.20972046871967456,2.382479677572484,1.9902756892230578,0,0.55
1757395069.5956004,0.23,-0.374,9.727,0.20963592845693219,2.5844938454604667,1.992882205513784,0,0.55
1757395069.623032,0.23,-0.374,9.727,0.20963592845693219,2.5844938454604667,1.992882205513784,0,0.55
1757395069.6504467,0.059,-0.294,9.848,0.2092716774912458,1.7440596451474277,2.000651629072682,0,0.55
1757395069.676939,0.059,-0.294,9.848,0.2092716774912458,1.7440596451474277,2.000651629072682,0,0.55
1757395069.7035089,0.33,-0.4,9.883,0.20958357521523485,3.003524430460886,2.0134335839598996,0,0.55
1757395069.7307107,0.33,-0.4,9.883,0.20958357521523485,3.003524430460886,2.0134335839598996,0,0.55
1757395069.757906,0.286,-0.425,9.759,0.20977739392031733,3.0048181572271875,2.015488721804511,0,0.55
1757395069.7855005,0.286,-0.425,9.759,0.20977739392031733,3.0048181572271875,2.015488721804511,0,0.55
1757395069.8128679,0.286,-0.425,9.759,0.20977739392031733,3.0048181572271875,2.015488721804511,0,0.55
1757395069.8402944,0.165,-0.386,9.832,0.2096537979622597,2.4448144451701137,2.0208521303258142,0,0.55
1757395069.867444,0.159,-0.42,9.978,0.20955394293594193,2.577024995130158,2.0209022556390974,0,0.55
1757395069.894035,0.159,-0.42,9.978,0.20955394293594193,2.577024995130158,2.0209022556390974,0,0.55
1757395069.9210873,0.209,-0.51,9.896,0.20955144356458155,3.1878273478739296,2.0228571428571427,0,0.55
1757395069.9479275,0.209,-0.51,9.896,0.20955144356458155,3.1878273478739296,2.0228571428571427,0,0.55
1757395069.9752882,0.174,-0.442,9.866,0.20949581141397552,2.756476680628119,2.0240601503759397,0,0.55
1757395070.00254,0.174,-0.442,9.866,0.20949581141397552,2.756476680628119,2.0240601503759397,0,0.55
1757395070.0302734,0.336,-0.427,9.989,0.20995803152058748,3.113503866132154,2.0321303258145362,0,0.55
1757395070.0578816,0.336,-0.427,9.989,0.20995803152058748,3.113503866132154,2.0321303258145362,0,0.55
1757395070.0846994,0.09,-0.492,9.84,0.20979352349393438,2.9098214154567628,2.043508771929824,0,0.55
1757395070.1122231,0.09,-0.492,9.84,0.20979352349393438,2.9098214154567628,2.043508771929824,0,0.55
1757395070.1395721,0.34,-0.577,9.794,0.21030946840311301,3.911850514754628,2.0543859649122806,0,0.55
1757395070.167189,0.34,-0.577,9.794,0.21030946840311301,3.911850514754628,2.0543859649122806,0,0.55
1757395070.193742,0.231,-0.63,9.893,0.2105149697764983,3.8802715314136242,2.0585463659147867,0,0.55
1757395070.2212453,0.231,-0.63,9.893,0.2105149697764983,3.8802715314136242,2.0585463659147867,0,0.55
1757395070.2478426,0.271,-0.572,9.881,0.21087757704412294,3.6652009675220425,2.0601503759398496,0,0.55
1757395070.2751071,0.271,-0.572,9.881,0.21087757704412294,3.6652009675220425,2.0601503759398496,0,0.55
1757395070.3024092,-0.101,-0.524,9.856,0.21087515856544128,3.0992066814423245,2.0782456140350876,0,0.55
1757395070.329894,-0.101,-0.524,9.856,0.21087515856544128,3.0992066814423245,2.0782456140350876,0,0.55
1757395070.3563547,0.381,-0.412,9.915,0.21168390349764435,3.2393405908800013,2.101704260651629,0,0.55
1757395070.3827643,0.381,-0.412,9.915,0.21168390349764435,3.2393405908800013,2.101704260651629,0,0.55
1757395070.4092531,-0.058,-0.323,9.83,0.21166784120409032,1.9120603228073643,2.1230075187969923,0,0.55
1757395070.4355855,-0.058,-0.323,9.83,0.21166784120409032,1.9120603228073643,2.1230075187969923,0,0.55
1757395070.4622767,0.168,-0.223,9.564,0.21181028067589167,1.6721535501613525,2.1343358395989975,0,0.55
1757395070.4897435,0.168,-0.223,9.564,0.21181028067589167,1.6721535501613525,2.1343358395989975,0,0.55
1757395070.5152566,0.273,-0.223,9.707,0.21222553451458193,2.079739720193207,2.139298245614035,0,0.55
1757395070.5417082,0.273,-0.223,9.707,0.21222553451458193,2.079739720193207,2.139298245614035,0,0.55
1757395070.568804,0.071,-0.33,9.707,0.21222636499737726,1.9916024570914004,2.1491228070175437,0,0.55
1757395070.595691,0.071,-0.33,9.707,0.21222636499737726,1.9916024570914004,2.1491228070175437,0,0.55
1757395070.6232088,-0.04,-0.358,9.8,0.21221166320445253,2.1051264352510186,2.1544360902255635,0,0.55
1757395070.6506736,-0.04,-0.358,9.8,0.21221166320445253,2.1051264352510186,2.1544360902255635,0,0.55
1757395070.6772907,0.05,-0.354,9.946,0.21219834471550433,2.0586373406924303,2.158847117794486,0,0.55
1757395070.7047017,0.05,-0.354,9.946,0.21219834471550433,2.0586373406924303,2.158847117794486,0,0.55
1757395070.7320032,0.209,-0.26,9.918,0.2124290881682638,1.9263950248120647,2.1655137844611527,0,0.55
1757395070.7599604,0.209,-0.26,9.918,0.2124290881682638,1.9263950248120647,2.1655137844611527,0,0.55
1757395070.7881095,-0.108,-0.285,9.892,0.2124468286418981,1.7647504530304983,2.1806015037593984,0,0.55
1757395070.8155596,-0.108,-0.285,9.892,0.2124468286418981,1.7647504530304983,2.1806015037593984,0,0.55
1757395070.8431852,-0.008,-0.268,9.944,0.2123772880983275,1.5444878869028271,2.1850626566416036,0,0.55
1757395070.8712955,-0.008,-0.268,9.944,0.2123772880983275,1.5444878869028271,2.1850626566416036,0,0.55
1757395070.898783,-0.092,-0.335,10.053,0.21237057823531016,1.9791923598675052,2.1884711779448622,0,0.55
1757395070.926146,-0.092,-0.335,10.053,0.21237057823531016,1.9791923598675052,2.1884711779448622,0,0.55
1757395070.953099,0.018,-0.404,10.033,0.21229597852997595,2.308175297011284,2.1934335839598997,0,0.55
1757395070.9806826,0.018,-0.404,10.033,0.21229597852997595,2.308175297011284,2.1934335839598997,0,0.55
1757395071.007772,0.222,-0.152,9.761,0.21249407050550848,1.5788892135075552,2.203558897243108,0,0.55
1757395071.0346699,0.222,-0.152,9.761,0.21249407050550848,1.5788892135075552,2.203558897243108,0,0.55
1757395071.0610747,0.031,-0.027,9.867,0.212404825745556,0.238714249287547,2.2119799498746864,0,0.55
1757395071.0886114,0.031,-0.027,9.867,0.212404825745556,0.238714249287547,2.2119799498746864,0,0.55
1757395071.1161108,0.083,-0.182,9.93,0.21231293531012188,1.1540249729588314,2.2142857142857144,0,0.55
1757395071.1434536,0.083,-0.182,9.93,0.21231293531012188,1.1540249729588314,2.2142857142857144,0,0.55
1757395071.1707878,0.088,-0.164,9.767,0.21221522683351446,1.0916862164812464,2.2136340852130325,0,0.55
1757395071.1973581,0.088,-0.164,9.767,0.21221522683351446,1.0916862164812464,2.2136340852130325,0,0.55
1757395071.2247362,0.125,-0.256,9.72,0.21212891127802455,1.6788262425532512,2.215187969924812,0,0.55
1757395071.251981,0.125,-0.256,9.72,0.21212891127802455,1.6788262425532512,2.215187969924812,0,0.55
1757395071.279376,0.271,-0.371,9.664,0.21237061355093367,2.72185158770061,2.2223558897243105,0,0.55
1757395071.3062139,0.271,-0.371,9.664,0.21237061355093367,2.72185158770061,2.2223558897243105,0,0.55
1757395071.3335762,0.169,-0.42,9.574,0.2123416056734996,2.7073314892355325,2.2267167919799498,0,0.55
1757395071.3612664,0.152,-0.381,9.493,0.2122468079854206,2.4742635797431443,2.2269172932330825,0,0.55
1757395071.389374,0.152,-0.381,9.493,0.2122468079854206,2.4742635797431443,2.2269172932330825,0,0.55
1757395071.416734,0.152,-0.381,9.493,0.2122468079854206,2.4742635797431443,2.2269172932330825,0,0.55
1757395071.4440963,0.084,-0.441,9.658,0.21202604792807886,2.6613398399880737,2.2300250626566416,0,0.55
1757395071.4719973,0.084,-0.441,9.658,0.21202604792807886,2.6613398399880737,2.2300250626566416,0,0.55
1757395071.4996665,0.068,-0.48,9.535,0.21177554745531885,2.9106114560810066,2.230426065162907,0,0.55
1757395071.5270777,0.177,-0.48,9.476,0.21170262752266447,3.0903102444058788,2.2354385964912282,0,0.55
1757395071.554267,0.177,-0.48,9.476,0.21170262752266447,3.0903102444058788,2.2354385964912282,0,0.55
1757395071.5809183,0.106,-0.445,9.644,0.211532722055005,2.7157149408470898,2.2389473684210524,0,0.55
1757395071.6077995,0.106,-0.445,9.644,0.211532722055005,2.7157149408470898,2.2389473684210524,0,0.55
1757395071.6351073,-0.071,-0.474,9.705,0.21132839965324113,2.8272939233822805,2.2474185463659144,0,0.55
1757395071.6625826,-0.071,-0.474,9.705,0.21132839965324113,2.8272939233822805,2.2474185463659144,0,0.55
1757395071.6898072,0.235,-0.395,9.567,0.21140159058058194,2.7504985892626097,2.262706766917293,0,0.55
1757395071.7168384,0.235,-0.395,9.567,0.21140159058058194,2.7504985892626097,2.262706766917293,0,0.55
1757395071.744108,0.006,-0.252,9.654,0.2111507340740259,1.4956854786889404,2.2739849624060153,0,0.55
1757395071.7714326,0.006,-0.252,9.654,0.2111507340740259,1.4956854786889404,2.2739849624060153,0,0.55
1757395071.7989483,0.092,-0.413,9.71,0.21095919629160517,2.495142098461914,2.277644110275689,0,0.55
1757395071.826425,0.092,-0.413,9.71,0.21095919629160517,2.495142098461914,2.277644110275689,0,0.55
1757395071.8538756,0.175,-0.344,9.495,0.21092899871757795,2.3276888835594836,2.2813032581453636,0,0.55
1757395071.8806498,0.175,-0.344,9.495,0.21092899871757795,2.3276888835594836,2.2813032581453636,0,0.55
1757395071.9074302,-0.021,-0.321,9.63,0.21074164870760598,1.9132304840575853,2.290927318295739,0,0.55
1757395071.934869,-0.021,-0.321,9.63,0.21074164870760598,1.9132304840575853,2.290927318295739,0,0.55
1757395071.9627538,0.079,-0.247,9.764,0.21059696697720984,1.5213842634645613,2.294887218045113,0,0.55
1757395071.9904964,0.079,-0.247,9.764,0.21059696697720984,1.5213842634645613,2.294887218045113,0,0.55
1757395072.0179074,0.218,-0.368,9.731,0.2107382321744206,2.516804823066795,2.3017543859649123,0,0.55
1757395072.0448306,0.218,-0.368,9.731,0.2107382321744206,2.516804823066795,2.3017543859649123,0,0.55
1757395072.0724044,0.104,-0.315,9.715,0.2106580226338413,1.9556376630132057,2.306065162907268,0,0.55
1757395072.099963,0.104,-0.315,9.715,0.2106580226338413,1.9556376630132057,2.306065162907268,0,0.55
1757395072.126582,0.243,-0.373,9.826,0.2109110357473027,2.5940402744038975,2.3128822055137843,0,0.55
1757395072.153005,0.243,-0.373,9.826,0.2109110357473027,2.5940402744038975,2.3128822055137843,0,0.55
1757395072.1790974,-0.012,-0.429,9.815,0.21081926501152592,2.5037035519198207,2.3247117794486214,0,0.55
1757395072.205755,-0.012,-0.429,9.815,0.21081926501152592,2.5037035519198207,2.3247117794486214,0,0.55
1757395072.23274,0.107,-0.336,9.725,0.2108205279378647,2.076619663089233,2.329423558897243,0,0.55
1757395072.260423,0.107,-0.336,9.725,0.2108205279378647,2.076619663089233,2.329423558897243,0,0.55
1757395072.2871172,-0.026,-0.574,9.809,0.21078563162606698,3.352423397255625,2.335488721804511,0,0.55
1757395072.315758,-0.026,-0.574,9.809,0.21078563162606698,3.352423397255625,2.335488721804511,0,0.55
1757395072.3429081,0.015,-0.446,9.869,0.21075873054277017,2.5890121998126308,2.337142857142857,0,0.55
1757395072.3708668,0.015,-0.446,9.869,0.21075873054277017,2.5890121998126308,2.337142857142857,0,0.55
1757395072.3983383,-0.001,-0.29,9.631,0.21073666624486587,1.7247280410788421,2.3374937343358395,0,0.55
1757395072.4253986,-0.001,-0.29,9.631,0.21073666624486587,1.7247280410788421,2.3374937343358395,0,0.55
1757395072.4518168,0.305,-0.383,9.694,0.21127173260992582,2.8913285762710164,2.3526817042606516,0,0.55
1757395072.479118,0.305,-0.383,9.694,0.21127173260992582,2.8913285762710164,2.3526817042606516,0,0.55
1757395072.5063446,0.12,-0.486,9.781,0.2113427133827897,2.929865396140962,2.3615037593984964,0,0.55
1757395072.5339072,0.12,-0.486,9.781,0.2113427133827897,2.929865396140962,2.3615037593984964,0,0.55
1757395072.56218,0.167,-0.44,9.674,0.21148771831952795,2.7851614091395462,2.363609022556391,0,0.55
1757395072.5895588,0.167,-0.44,9.674,0.21148771831952795,2.7851614091395462,2.363609022556391,0,0.55
1757395072.6167703,0.077,-0.444,9.727,0.211499302599323,2.6524722163719385,2.3676190476190473,0,0.55
1757395072.6434605,0.077,-0.444,9.727,0.211499302599323,2.6524722163719385,2.3676190476190473,0,0.55
1757395072.6696827,0.081,-0.496,9.73,0.2115065838218754,2.956793000067865,2.3674185463659145,0,0.55
1757395072.6963325,0.081,-0.496,9.73,0.2115065838218754,2.956793000067865,2.3674185463659145,0,0.55
1757395072.723457,-0.124,-0.439,9.899,0.21155867389450142,2.6384998290237025,2.3771428571428572,0,0.55
1757395072.751166,-0.124,-0.439,9.899,0.21155867389450142,2.6384998290237025,2.3771428571428572,0,0.55
1757395072.778651,-0.091,-0.271,9.865,0.21155759263141563,1.659867859184821,2.3784962406015038,0,0.55
1757395072.8057487,-0.091,-0.271,9.865,0.21155759263141563,1.659867859184821,2.3784962406015038,0,0.55
1757395072.8333406,0.048,-0.312,9.757,0.21151445577075817,1.8530586249130738,2.3850125313283206,0,0.55
1757395072.8610606,0.048,-0.312,9.757,0.21151445577075817,1.8530586249130738,2.3850125313283206,0,0.55
1757395072.8890004,0.05,-0.282,9.775,0.2114615627011207,1.6782324471321413,2.384561403508772,0,0.55
1757395072.916114,0.05,-0.282,9.775,0.2114615627011207,1.6782324471321413,2.384561403508772,0,0.55
1757395072.9423401,-0.257,-0.147,9.726,0.21176946191554624,1.7436128107674655,2.3999498746867167,0,0.55
1757395072.969555,-0.257,-0.147,9.726,0.21176946191554624,1.7436128107674655,2.3999498746867167,0,0.55
1757395072.9969,-0.149,-0.404,9.792,0.2118183124755742,2.5179453149147326,2.404110275689223,0,0.55
1757395073.0242724,-0.149,-0.404,9.792,0.2118183124755742,2.5179453149147326,2.404110275689223,0,0.55
1757395073.051456,-0.227,-0.478,9.924,0.21200164504078736,3.0522063217458704,2.3795989974937344,0,0.55
1757395073.0784101,-0.227,-0.478,9.924,0.21200164504078736,3.0522063217458704,2.3795989974937344,0,0.55
1757395073.1060805,-0.047,-0.287,9.787,0.20902145822857518,1.7020564981651571,2.3812531328320805,0,0.55
1757395073.1334596,-0.047,-0.287,9.787,0.20902145822857518,1.7020564981651571,2.3812531328320805,0,0.55
1757395073.160543,-0.031,-0.329,9.679,0.20712303107090724,1.9554142611854082,2.3710275689223055,0,0.55
1757395073.1871107,-0.031,-0.329,9.679,0.20712303107090724,1.9554142611854082,2.3710275689223055,0,0.55
1757395073.214041,0.037,-0.438,9.725,0.2033977630162141,2.587948972362874,2.355187969924812,0,0.55
1757395073.241316,0.037,-0.438,9.725,0.2033977630162141,2.587948972362874,2.355187969924812,0,0.55
1757395073.2679212,0.165,-0.431,9.671,0.20258506855146063,2.7321053314088712,2.3498245614035085,0,0.55
1757395073.2951899,0.165,-0.431,9.671,0.20258506855146063,2.7321053314088712,2.3498245614035085,0,0.55
1757395073.3217626,0.044,-0.399,9.753,0.20243100059032457,2.3568773906078793,2.3454135338345865,0,0.55
1757395073.3489115,0.044,-0.399,9.753,0.20243100059032457,2.3568773906078793,2.3454135338345865,0,0.55
1757395073.376376,0.063,-0.454,9.737,0.2015946675882078,2.6950976922047736,2.346165413533835,0,0.55
1757395073.4042203,0.063,-0.454,9.737,0.2015946675882078,2.6950976922047736,2.346165413533835,0,0.55
1757395073.431681,-0.241,-0.403,9.749,0.20110994505493754,2.757538015542056,2.352431077694236,0,0.55
1757395073.458239,-0.241,-0.403,9.749,0.20110994505493754,2.757538015542056,2.352431077694236,0,0.55
1757395073.4857461,0.047,-0.295,9.853,0.20089918491621614,1.7365461136130595,2.3522807017543856,0,0.55
1757395073.512138,0.047,-0.295,9.853,0.20089918491621614,1.7365461136130595,2.3522807017543856,0,0.55
1757395073.5395305,-0.074,-0.308,9.897,0.19948877161384296,1.833191690821904,2.34531328320802,0,0.55
1757395073.5662029,-0.074,-0.308,9.897,0.19948877161384296,1.833191690821904,2.34531328320802,0,0.55
1757395073.5937314,-0.143,-0.421,9.858,0.19931078746520473,2.5824501020177615,2.3391979949874684,0,0.55
1757395073.621339,-0.143,-0.421,9.858,0.19931078746520473,2.5824501020177615,2.3391979949874684,0,0.55
1757395073.6487765,0.069,-0.444,9.882,0.19827337819283758,2.603416697543978,2.346466165413534,0,0.55
1757395073.6764371,0.069,-0.444,9.882,0.19827337819283758,2.603416697543978,2.346466165413534,0,0.55
1757395073.7044969,0.023,-0.415,9.875,0.19752491614983667,2.4101458368250164,2.3454636591478693,0,0.55
1757395073.7314637,0.023,-0.415,9.875,0.19752491614983667,2.4101458368250164,2.3454636591478693,0,0.55
1757395073.7587688,-0.052,-0.417,9.817,0.19647022675204504,2.451125395859526,2.3333333333333335,0,0.55
1757395073.7855303,-0.052,-0.417,9.817,0.19647022675204504,2.451125395859526,2.3333333333333335,0,0.55
1757395073.8129075,0.031,-0.346,9.834,0.19642011735054027,2.0231315982181877,2.3297744360902257,0,0.55
1757395073.8399997,0.031,-0.346,9.834,0.19642011735054027,2.0231315982181877,2.3297744360902257,0,0.55
1757395073.866896,0.326,-0.622,9.817,0.1967048359852904,4.091651289733513,2.341152882205514,0,0.55
1757395073.8950288,0.326,-0.622,9.817,0.1967048359852904,4.091651289733513,2.341152882205514,0,0.55
1757395073.922792,0.118,-0.6,9.869,0.19615800391521115,3.545571925643293,2.3454636591478697,0,0.55
1757395073.950707,0.118,-0.6,9.869,0.19615800391521115,3.545571925643293,2.3454636591478697,0,0.55
1757395073.9784567,0.184,-0.429,9.956,0.19613391471135225,2.6843889361089475,2.34280701754386,0,0.55
1757395074.0056267,0.184,-0.429,9.956,0.19613391471135225,2.6843889361089475,2.34280701754386,0,0.55
1757395074.032576,0.049,-0.461,10.049,0.19552389240192616,2.6413892256146063,2.3475187969924813,0,0.55
1757395074.0595448,0.049,-0.461,10.049,0.19552389240192616,2.6413892256146063,2.3475187969924813,0,0.55
1757395074.0864625,0.076,-0.525,9.993,0.19508734582232645,3.038660076535384,2.34250626566416,0,0.55
1757395074.113274,0.076,-0.525,9.993,0.19508734582232645,3.038660076535384,2.34250626566416,0,0.55
1757395074.1409223,0.06,-0.395,10.001,0.19497566514824358,2.287698488515513,2.34265664160401,0,0.55
1757395074.1685107,0.06,-0.395,10.001,0.19497566514824358,2.287698488515513,2.34265664160401,0,0.55
1757395074.1955712,-0.056,-0.189,9.992,0.194884042445758,1.1301823192316385,2.3463659147869675,0,0.55
1757395074.223593,-0.056,-0.189,9.992,0.194884042445758,1.1301823192316385,2.3463659147869675,0,0.55
1757395074.2509923,0.014,-0.259,9.944,0.19469101160556948,1.4941574375237923,2.3454636591478693,0,0.55
1757395074.2783265,0.014,-0.259,9.944,0.19469101160556948,1.4941574375237923,2.3454636591478693,0,0.55
1757395074.3050482,-0.15,-0.223,10.09,0.19478796164034365,1.5257542685384364,2.3486215538847115,0,0.55
1757395074.3321857,0.128,-0.234,10.008,0.1948916301435236,1.5266148290445456,2.3622055137844606,0,0.55
1757395074.3594356,0.128,-0.234,10.008,0.1948916301435236,1.5266148290445456,2.3622055137844606,0,0.55
1757395074.3868642,0.128,-0.234,10.008,0.1948916301435236,1.5266148290445456,2.3622055137844606,0,0.55
1757395074.4137552,0.018,-0.359,9.905,0.19489329772980907,2.0783432386497798,2.3625563909774434,0,0.55
1757395074.4403815,0.018,-0.359,9.905,0.19489329772980907,2.0783432386497798,2.3625563909774434,0,0.55
1757395074.467175,0.024,-0.231,9.882,0.19483910028533802,1.3462981154967824,2.358095238095238,0,0.55
1757395074.4946861,0.024,-0.231,9.882,0.19483910028533802,1.3462981154967824,2.358095238095238,0,0.55
1757395074.5224237,0.168,-0.022,9.758,0.1950200887088302,0.9947630543218006,2.3638095238095236,0,0.55
1757395074.5498168,0.168,-0.022,9.758,0.1950200887088302,0.9947630543218006,2.3638095238095236,0,0.55
1757395074.5770457,0.159,-0.176,9.813,0.19517629850983445,1.3846007598489412,2.35062656641604,0,0.55
1757395074.6040256,0.093,-0.178,9.609,0.19485635735074183,1.1973234207015218,2.353032581453634,0,0.55
1757395074.6316206,0.093,-0.178,9.609,0.19485635735074183,1.1973234207015218,2.353032581453634,0,0.55
1757395074.6594946,0.261,0.03,9.65,0.1949714402162532,1.559475943091822,2.351177944862155,0,0.55
1757395074.6868808,0.261,0.03,9.65,0.1949714402162532,1.559475943091822,2.351177944862155,0,0.55
1757395074.713847,0.152,0.003,9.615,0.19511719555180163,0.9058688267093414,2.3505764411027568,0,0.55
1757395074.7403812,0.152,0.003,9.615,0.19511719555180163,0.9058688267093414,2.3505764411027568,0,0.55
1757395074.7686286,0.086,-0.118,9.606,0.19509792413042226,0.8708436833138327,2.3454636591478697,0,0.55
1757395074.79524,0.086,-0.118,9.606,0.19509792413042226,0.8708436833138327,2.3454636591478697,0,0.55
1757395074.8228235,0.161,-0.25,9.598,0.19523604303509123,1.7745192143067638,2.3392982456140348,0,0.55
1757395074.8503263,0.161,-0.25,9.598,0.19523604303509123,1.7745192143067638,2.3392982456140348,0,0.55
1757395074.8775704,-0.158,0.009,9.812,0.19528431196591292,0.9240340099004092,2.3515288220551374,0,0.55
1757395074.9050205,-0.158,0.009,9.812,0.19528431196591292,0.9240340099004092,2.3515288220551374,0,0.55
1757395074.9325237,-0.028,-0.056,9.91,0.195268533051283,0.36198138152108555,2.353233082706767,0,0.55
1757395074.9600694,-0.028,-0.056,9.91,0.195268533051283,0.36198138152108555,2.353233082706767,0,0.55
1757395074.9881039,-0.018,-0.197,9.79,0.19526087037601772,1.1575837331197805,2.3421052631578947,0,0.55
1757395075.0161257,-0.018,-0.197,9.79,0.19526087037601772,1.1575837331197805,2.3421052631578947,0,0.55
1757395075.0438275,-0.04,-0.199,9.925,0.1950325229288695,1.1716164401173166,2.3406516290726818,0,0.55
1757395075.0714645,-0.04,-0.199,9.925,0.1950325229288695,1.1716164401173166,2.3406516290726818,0,0.55
1757395075.0989099,0.204,-0.024,9.833,0.19516996439001572,1.1967088146095113,2.348521303258145,0,0.55
1757395075.1262498,0.204,-0.024,9.833,0.19516996439001572,1.1967088146095113,2.348521303258145,0,0.55
1757395075.1534543,0.204,-0.024,9.833,0.19516996439001572,1.1967088146095113,2.348521303258145,0,0.55
1757395075.1797125,-0.092,-0.164,9.906,0.19488810251013272,1.0874975322900802,2.3580451127819546,0,0.55
1757395075.2075317,0.169,-0.217,9.852,0.19435074607523378,1.599152582939232,2.366365914786967,0,0.55
1757395075.2348828,0.169,-0.217,9.852,0.19435074607523378,1.599152582939232,2.366365914786967,0,0.55
1757395075.2619922,-0.115,-0.274,9.903,0.19406513081952667,1.7187328193480285,2.372380952380952,0,0.55
1757395075.288488,-0.115,-0.274,9.903,0.19406513081952667,1.7187328193480285,2.372380952380952,0,0.55
1757395075.316137,-0.057,-0.305,10.081,0.19303201159393227,1.7629355757915572,2.3623057644110275,0,0.55
1757395075.3434846,-0.057,-0.305,10.081,0.19303201159393227,1.7629355757915572,2.3623057644110275,0,0.55
1757395075.3717263,0.008,-0.259,10.029,0.1928962285789953,1.4800460462910665,2.36250626566416,0,0.55
1757395075.3992007,0.008,-0.259,10.029,0.1928962285789953,1.4800460462910665,2.36250626566416,0,0.55
1757395075.4256425,-0.097,-0.179,9.965,0.19268208920395272,1.1704346773334746,2.356441102756892,0,0.55
1757395075.4531145,-0.097,-0.179,9.965,0.19268208920395272,1.1704346773334746,2.356441102756892,0,0.55
1757395075.480247,-0.005,-0.095,10.011,0.19146772573987503,0.5444479773321615,2.3520802005012533,0,0.55
1757395075.5074847,-0.005,-0.095,10.011,0.19146772573987503,0.5444479773321615,2.3520802005012533,0,0.55
1757395075.5350049,-0.096,-0.095,9.881,0.1911096740094546,0.7831032214890212,2.356290726817043,0,0.55
1757395075.562441,-0.096,-0.095,9.881,0.1911096740094546,0.7831032214890212,2.356290726817043,0,0.55
1757395075.5894914,0.018,0.076,9.911,0.19071556701014208,0.45150346132083774,2.352982456140351,0,0.55
1757395075.61705,0.018,0.076,9.911,0.19071556701014208,0.45150346132083774,2.352982456140351,0,0.55
1757395075.6452014,0.057,-0.153,9.934,0.18954382079086618,0.9416145425245138,2.3329824561403507,0,0.55
1757395075.6726475,0.057,-0.153,9.934,0.18954382079086618,0.9416145425245138,2.3329824561403507,0,0.55
1757395075.7002943,0.057,-0.153,9.934,0.18954382079086618,0.9416145425245138,2.3329824561403507,0,0.55
1757395075.7272987,0.057,-0.153,9.934,0.18954382079086618,0.9416145425245138,2.3329824561403507,0,0.55
1757395075.7545943,0.057,-0.153,9.934,0.18954382079086618,0.9416145425245138,2.3329824561403507,0,0.55
1757395075.780852,0.105,-0.254,9.918,0.1896155650256592,1.5873721545491553,2.3235087719298244,0,0.55
1757395075.8069353,0.22,-0.32,9.819,0.1896008966223525,2.2647995423635034,2.3148872180451123,0,0.55
1757395075.8346567,0.272,-0.336,9.863,0.19006275279496507,2.50967300275024,2.304561403508772,0,0.55
1757395075.8614876,0.033,-0.359,9.853,0.1898171027594721,2.0954727355147247,2.3060150375939847,0,0.55
1757395075.889106,0.033,-0.359,9.853,0.1898171027594721,2.0954727355147247,2.3060150375939847,0,0.55
1757395075.9169874,0.264,-0.176,9.825,0.1902742297317217,1.849666854922045,2.303709273182957,0,0.55
1757395075.9444523,0.264,-0.176,9.825,0.1902742297317217,1.849666854922045,2.303709273182957,0,0.55
1757395075.9717135,0.439,-0.389,9.724,0.19108417647727927,3.451894523283732,2.3069674185463658,0,0.55
1757395075.9989212,0.439,-0.389,9.724,0.19108417647727927,3.451894523283732,2.3069674185463658,0,0.55
1757395076.026496,0.319,-0.401,9.64,0.191596039886006,3.042657146354596,2.307919799498747,0,0.55
1757395076.052876,0.319,-0.401,9.64,0.191596039886006,3.042657146354596,2.307919799498747,0,0.55
1757395076.079988,0.142,-0.137,9.59,0.19130646225363115,1.1786956692085542,2.3147368421052628,0,0.55
1757395076.1070662,0.142,-0.137,9.59,0.19130646225363115,1.1786956692085542,2.3147368421052628,0,0.55
1757395076.1344886,0.286,-0.239,9.774,0.1912722928183797,2.1838239152470327,2.313784461152882,0,0.55
1757395076.1618044,0.286,-0.239,9.774,0.1912722928183797,2.1838239152470327,2.313784461152882,0,0.55
1757395076.1894255,0.187,-0.345,9.726,0.19138691830948112,2.3104935819102477,2.3086716791979947,0,0.55
1757395076.2169473,0.187,-0.345,9.726,0.19138691830948112,2.3104935819102477,2.3086716791979947,0,0.55
1757395076.2440321,0.136,-0.205,9.792,0.19078252016366698,1.439172744068355,2.298095238095238,0,0.55
1757395076.271538,0.136,-0.205,9.792,0.19078252016366698,1.439172744068355,2.298095238095238,0,0.55
1757395076.2983456,0.067,-0.147,9.926,0.19077890344584747,0.9324244073719898,2.296942355889724,0,0.55
1757395076.3252974,0.067,-0.147,9.926,0.19077890344584747,0.9324244073719898,2.296942355889724,0,0.55
1757395076.3527834,0.136,-0.169,9.955,0.1907260011115422,1.2483166441741769,2.2943358395989972,0,0.55
1757395076.3801432,0.136,-0.169,9.955,0.1907260011115422,1.2483166441741769,2.2943358395989972,0,0.55
1757395076.4076183,0.055,-0.273,9.935,0.19073426540608795,1.6056214302092362,2.2928822055137843,0,0.55
1757395076.4349627,0.055,-0.273,9.935,0.19073426540608795,1.6056214302092362,2.2928822055137843,0,0.55
1757395076.4622006,0.205,-0.257,9.938,0.19097922007380802,1.8946365736708042,2.2961403508771925,0,0.55
1757395076.4896603,0.205,-0.257,9.938,0.19097922007380802,1.8946365736708042,2.2961403508771925,0,0.55
1757395076.517411,-0.151,-0.374,10.065,0.19112650915035306,2.2947724378519383,2.309423558897243,0,0.55
1757395076.544704,-0.151,-0.374,10.065,0.19112650915035306,2.2947724378519383,2.309423558897243,0,0.55
1757395076.571129,-0.083,-0.415,10.005,0.19113575018818432,2.4222082079532807,2.3087719298245615,0,0.55
1757395076.5984185,-0.083,-0.415,10.005,0.19113575018818432,2.4222082079532807,2.3087719298245615,0,0.55
1757395076.6254497,0.175,-0.281,10.026,0.19133560829077267,1.8911009983513947,2.3198997493734335,0,0.55
1757395076.6529477,0.175,-0.281,10.026,0.19133560829077267,1.8911009983513947,2.3198997493734335,0,0.55
1757395076.6803951,-0.021,-0.262,9.936,0.1913329950635802,1.5153105884306042,2.3292731829573934,0,0.55
1757395076.7076714,-0.021,-0.262,9.936,0.1913329950635802,1.5153105884306042,2.3292731829573934,0,0.55
1757395076.7352674,-0.088,-0.138,9.912,0.19137414924696594,0.9460019194613452,2.3284210526315787,0,0.55
1757395076.762656,0.119,-0.077,9.916,0.19136942676404714,0.818929483782822,2.3280200501253128,0,0.55
1757395076.7900145,0.119,-0.077,9.916,0.19136942676404714,0.818929483782822,2.3280200501253128,0,0.55
1757395076.8174787,0.119,-0.077,9.916,0.19136942676404714,0.818929483782822,2.3280200501253128,0,0.55
1757395076.8446243,-0.132,-0.24,9.918,0.1914267353323459,1.5819336380432176,2.3394486215538843,0,0.55
1757395076.8718886,-0.032,-0.258,9.908,0.19134553822861927,1.5030443409492265,2.3375438596491227,0,0.55
1757395076.8985682,-0.032,-0.258,9.908,0.19134553822861927,1.5030443409492265,2.3375438596491227,0,0.55
1757395076.9258773,-0.048,-0.186,9.842,0.19135742734474664,1.1181429163166325,2.3332330827067667,0,0.55
1757395076.9534478,-0.048,-0.186,9.842,0.19135742734474664,1.1181429163166325,2.3332330827067667,0,0.55
1757395076.9808517,0.059,-0.218,9.701,0.19133835867384252,1.333626028873946,2.3273684210526313,0,0.55
1757395077.0079167,0.059,-0.218,9.701,0.19133835867384252,1.333626028873946,2.3273684210526313,0,0.55
1757395077.034996,0.012,-0.236,9.568,0.19073459964044281,1.4147701652030304,2.3209022556390977,0,0.55
1757395077.0619211,0.012,-0.236,9.568,0.19073459964044281,1.4147701652030304,2.3209022556390977,0,0.55
1757395077.0888276,0.108,-0.276,9.461,0.19070366409694386,1.7942780766701019,2.3228070175438593,0,0.55
1757395077.1162343,0.108,-0.276,9.461,0.19070366409694386,1.7942780766701019,2.3228070175438593,0,0.55
1757395077.143685,0.059,-0.303,9.594,0.19049960629880577,1.8428788262299156,2.323759398496241,0,0.55
1757395077.1707873,0.059,-0.303,9.594,0.19049960629880577,1.8428788262299156,2.323759398496241,0,0.55
1757395077.1975772,-0.086,-0.307,9.636,0.19024181979785623,1.895005405932723,2.3272180451127817,0,0.55
1757395077.2249904,-0.086,-0.307,9.636,0.19024181979785623,1.895005405932723,2.3272180451127817,0,0.55
1757395077.2523806,0.084,-0.234,9.674,0.18972725160081774,1.4721679552549258,2.3287218045112783,0,0.55
1757395077.279853,0.084,-0.234,9.674,0.18972725160081774,1.4721679552549258,2.3287218045112783,0,0.55
1757395077.3073826,-0.009,-0.135,9.722,0.18957550606552526,0.7973256014576876,2.3331829573934835,0,0.55
1757395077.334471,-0.009,-0.135,9.722,0.18957550606552526,0.7973256014576876,2.3331829573934835,0,0.55
1757395077.3611894,-0.027,-0.285,9.784,0.18943583346347123,1.6759743791612864,2.330325814536341,0,0.55
1757395077.387588,-0.027,-0.285,9.784,0.18943583346347123,1.6759743791612864,2.330325814536341,0,0.55
1757395077.4142463,-0.014,-0.261,9.801,0.18910870551087805,1.5276142908416714,2.32922305764411,0,0.55
1757395077.4416814,-0.014,-0.261,9.801,0.18910870551087805,1.5276142908416714,2.32922305764411,0,0.55
1757395077.4690733,-0.017,-0.27,9.779,0.18887685141382468,1.584675467829976,2.32671679197995,0,0.55
1757395077.4967346,-0.017,-0.27,9.779,0.18887685141382468,1.584675467829976,2.32671679197995,0,0.55
1757395077.5242329,0.073,-0.344,9.937,0.18852741179998203,2.02679367912367,2.3259147869674184,0,0.55
1757395077.5518699,0.073,-0.344,9.937,0.18852741179998203,2.02679367912367,2.3259147869674184,0,0.55
1757395077.579393,0.138,-0.317,9.81,0.18785412558684994,2.018449191729856,2.3228070175438593,0,0.55
1757395077.6068017,0.138,-0.317,9.81,0.18785412558684994,2.018449191729856,2.3228070175438593,0,0.55
1757395077.6343017,0.116,-0.292,9.817,0.1876214606594885,1.8331507927483202,2.322205513784461,0,0.55
1757395077.6615465,0.116,-0.292,9.817,0.1876214606594885,1.8331507927483202,2.322205513784461,0,0.55
1757395077.6877744,0.363,-0.249,9.851,0.18806899000101,2.5585668704840536,2.3343358395989973,0,0.55
1757395077.714945,0.363,-0.249,9.851,0.18806899000101,2.5585668704840536,2.3343358395989973,0,0.55
1757395077.7423005,0.011,-0.298,9.954,0.187623412718136,1.7159596000287447,2.3444611528822055,0,0.55
1757395077.769817,0.011,-0.298,9.954,0.187623412718136,1.7159596000287447,2.3444611528822055,0,0.55
1757395077.7976243,0.21,-0.45,9.917,0.18783794212032884,2.866660474417563,2.3480200501253132,0,0.55
1757395077.8249366,0.21,-0.45,9.917,0.18783794212032884,2.866660474417563,2.3480200501253132,0,0.55
1757395077.8525784,0.26,-0.256,9.79,0.18791399628553482,2.1344536212983902,2.34015037593985,0,0.55
1757395077.8800523,0.26,-0.256,9.79,0.18791399628553482,2.1344536212983902,2.34015037593985,0,0.55
1757395077.907048,0.374,-0.305,9.706,0.18753271714556904,2.8464955641952603,2.3211528822055136,0,0.55
1757395077.934719,0.374,-0.305,9.706,0.18753271714556904,2.8464955641952603,2.3211528822055136,0,0.55
1757395077.9613838,0.397,-0.3,9.601,0.18856441870087792,2.9668867209709404,2.309874686716792,0,0.55
1757395077.9889758,0.397,-0.3,9.601,0.18856441870087792,2.9668867209709404,2.309874686716792,0,0.55
1757395078.0159173,0.338,-0.174,9.624,0.18905858219081198,2.2620659684330855,2.3049624060150373,0,0.55
1757395078.0426216,0.338,-0.174,9.624,0.18905858219081198,2.2620659684330855,2.3049624060150373,0,0.55
1757395078.0702775,0.331,0.005,9.544,0.18976996601148455,1.986532462784026,2.305263157894737,0,0.55
1757395078.0987964,0.331,0.005,9.544,0.18976996601148455,1.986532462784026,2.305263157894737,0,0.55
1757395078.126368,0.388,-0.136,9.575,0.1907468938148142,2.458735934976535,2.3044110275689222,0,0.55
1757395078.1539323,0.388,-0.136,9.575,0.1907468938148142,2.458735934976535,2.3044110275689222,0,0.55
1757395078.1826656,0.259,-0.038,9.43,0.19109646124405338,1.5900981931826557,2.3098746867167916,0,0.55
1757395078.2107306,0.259,-0.038,9.43,0.19109646124405338,1.5900981931826557,2.3098746867167916,0,0.55
1757395078.2385824,0.307,-0.172,9.538,0.19165061309581036,2.1129371247277504,2.308070175438596,0,0.55
1757395078.265398,0.307,-0.172,9.538,0.19165061309581036,2.1129371247277504,2.308070175438596,0,0.55
1757395078.2931764,0.259,-0.277,9.539,0.1918743273603845,2.2765945316684433,2.3084210526315787,0,0.55
1757395078.3199022,0.259,-0.277,9.539,0.1918743273603845,2.2765945316684433,2.3084210526315787,0,0.55
1757395078.346676,0.227,-0.161,9.483,0.19188895226145772,1.6809816031559357,2.308822055137844,0,0.55
1757395078.3739488,0.227,-0.161,9.483,0.19188895226145772,1.6809816031559357,2.308822055137844,0,0.55
1757395078.4003887,0.265,-0.177,9.53,0.19209092248203713,1.9152102360996415,2.3105764411027563,0,0.55
1757395078.4280012,0.265,-0.177,9.53,0.19209092248203713,1.9152102360996415,2.3105764411027563,0,0.55
1757395078.456055,0.334,-0.291,9.639,0.19256881886743762,2.6313318350717827,2.305263157894737,0,0.55
1757395078.483389,0.334,-0.291,9.639,0.19256881886743762,2.6313318350717827,2.305263157894737,0,0.55
1757395078.5115876,0.166,-0.38,9.63,0.1927450129056521,2.46568049569243,2.3029072681704257,0,0.55
1757395078.5383148,0.166,-0.38,9.63,0.1927450129056521,2.46568049569243,2.3029072681704257,0,0.55
1757395078.5650225,-0.062,-0.278,10.005,0.19241150563310916,1.6306983734980067,2.3123809523809524,0,0.55
1757395078.592168,-0.062,-0.278,10.005,0.19241150563310916,1.6306983734980067,2.3123809523809524,0,0.55
1757395078.6188855,0.083,-0.182,9.933,0.19220658157305645,1.153676524445213,2.31593984962406,0,0.55
1757395078.6459706,0.083,-0.182,9.933,0.19220658157305645,1.153676524445213,2.31593984962406,0,0.55
1757395078.6733384,-0.057,-0.45,9.733,0.1921308993889322,2.6682754053393,2.3188972431077692,0,0.55
1757395078.7008421,-0.057,-0.45,9.733,0.1921308993889322,2.6682754053393,2.3188972431077692,0,0.55
1757395078.7286294,0.106,-0.38,9.697,0.19193579655707793,2.3297044667878786,2.3228571428571425,0,0.55
1757395078.7563398,0.106,-0.38,9.697,0.19193579655707793,2.3297044667878786,2.3228571428571425,0,0.55
1757395078.7844486,0.149,-0.359,9.703,0.1919881506760248,2.293986286278656,2.3134335839598994,0,0.55
1757395078.811988,0.149,-0.359,9.703,0.1919881506760248,2.293986286278656,2.3134335839598994,0,0.55
1757395078.8394766,0.088,-0.386,9.672,0.19195689620328832,2.3439799185173547,2.306616541353384,0,0.55
1757395078.866807,0.088,-0.386,9.672,0.19195689620328832,2.3439799185173547,2.306616541353384,0,0.55
1757395078.8929365,0.202,-0.277,9.602,0.19217543417409003,2.0448261931958216,2.3049624060150373,0,0.55
1757395078.9190505,0.202,-0.277,9.602,0.19217543417409003,2.0448261931958216,2.3049624060150373,0,0.55
1757395078.945985,0.055,-0.408,9.657,0.19217010693653683,2.4411151559129163,2.3080701754385964,0,0.55
1757395078.973282,0.055,-0.408,9.657,0.19217010693653683,2.4411151559129163,2.3080701754385964,0,0.55
1757395079.000994,0.091,-0.416,9.515,0.1922205243984107,2.56252050095316,2.3049122807017546,0,0.55
1757395079.0290964,0.091,-0.416,9.515,0.1922205243984107,2.56252050095316,2.3049122807017546,0,0.55
1757395079.0567899,0.111,-0.221,9.426,0.19226308147951857,1.5029219005481669,2.2980451127819546,0,0.55
1757395079.0849867,0.111,-0.221,9.426,0.19226308147951857,1.5029219005481669,2.2980451127819546,0,0.55
1757395079.1126258,0.065,-0.415,9.488,0.1922478933564683,2.5349843282269187,2.3002506265664158,0,0.55
1757395079.139867,0.153,-0.473,9.527,0.19235948767866898,2.9870501859489584,2.3045112781954886,0,0.55
1757395079.1672304,0.153,-0.473,9.527,0.19235948767866898,2.9870501859489584,2.3045112781954886,0,0.55
1757395079.19415,-0.247,-0.405,9.648,0.19271192230892203,2.8148794401626525,2.3242105263157895,0,0.55
1757395079.2222872,-0.247,-0.405,9.648,0.19271192230892203,2.8148794401626525,2.3242105263157895,0,0.55
1757395079.249123,0.093,-0.352,9.639,0.19273153608063212,2.163112105380549,2.3326315789473684,0,0.55
1757395079.2765975,0.093,-0.352,9.639,0.19273153608063212,2.163112105380549,2.3326315789473684,0,0.55
1757395079.303716,0.093,-0.352,9.639,0.19273153608063212,2.163112105380549,2.3326315789473684,0,0.55
1757395079.3317854,0.079,-0.414,9.652,0.19237599902274713,2.5003236480548283,2.325664160401002,0,0.55
1757395079.3599997,0.042,-0.207,9.503,0.19134506787476913,1.2732717885021994,2.3150877192982455,0,0.55
1757395079.3873823,0.042,-0.207,9.503,0.19134506787476913,1.2732717885021994,2.3150877192982455,0,0.55
1757395079.4147074,0.026,-0.175,9.443,0.19119849633299943,1.073348961986068,2.3044611528822054,0,0.55
1757395079.4410014,0.026,-0.175,9.443,0.19119849633299943,1.073348961986068,2.3044611528822054,0,0.55
1757395079.4685495,0.163,-0.238,9.494,0.19042659346845442,1.7403452100214118,2.3032080200501253,0,0.55
1757395079.495908,0.163,-0.238,9.494,0.19042659346845442,1.7403452100214118,2.3032080200501253,0,0.55
1757395079.5228019,0.001,-0.212,9.355,0.19011438662026606,1.298210757719248,2.3078696741854636,0,0.55
1757395079.5496964,0.001,-0.212,9.355,0.19011438662026606,1.298210757719248,2.3078696741854636,0,0.55
