timestamp,ax,ay,az,rms,tilt_now,jerk,tilt_crosses,freq
1757394628.5193222,0.237,-0.388,9.77,0.01185,2.6643958861488515,0.011879699248120299,0,2.0
1757394628.5492415,0.233,-0.391,9.778,0.016617611139992414,2.6651560597012067,0.012080200501253129,0,0.05
1757394628.576006,0.219,-0.394,9.775,0.019900942188750763,2.640322277844234,0.012781954887218042,0,0.05
1757394628.60269,0.214,-0.388,9.754,0.02259507689741285,2.6010325816434867,0.013032581453634083,0,0.05
1757394628.6297312,0.205,-0.386,9.755,0.024811287753762398,2.565343776633632,0.013483709273182955,0,0.05
1757394628.6583533,0.194,-0.382,9.751,0.02664000750750645,2.5158413979100156,0.014035087719298242,0,0.05
1757394628.6865895,0.19,-0.378,9.735,0.028283210567401997,2.488402337062735,0.014235588972431075,0,0.05
1757394628.7119067,0.179,-0.38,9.734,0.029665510277087765,2.470937086954938,0.014786967418546362,0,0.05
1757394628.7371376,0.164,-0.373,9.735,0.030777954772856497,2.3967349245606533,0.015538847117794482,0,0.05
1757394628.762552,0.128,-0.37,9.739,0.031436324530708104,2.3020931276411236,0.01734335839598997,0,0.05
1757394628.7879462,0.125,-0.372,9.755,0.03205159902407367,2.303744348550476,0.017493734335839596,0,0.05
1757394628.813405,0.111,-0.366,9.757,0.03252856437041143,2.244771092786869,0.018195488721804508,0,0.05
1757394628.8390505,0.11,-0.354,9.746,0.032990263715223615,2.1782392214296857,0.018245614035087718,0,0.05
1757394628.8646476,0.123,-0.352,9.736,0.03355860545374316,2.1932534179787595,0.018897243107769423,0,0.05
1757394628.8897822,0.128,-0.353,9.735,0.03416343074107166,2.208870317495945,0.019147869674185462,0,0.05
1757394628.9148958,0.133,-0.359,9.725,0.03480463331224738,2.2544020225125116,0.019398496240601498,0,0.05
1757394628.9400208,0.133,-0.359,9.725,0.03480463331224738,2.2544020225125116,0.019398496240601498,0,0.05
1757394628.9650688,0.133,-0.359,9.725,0.03480463331224738,2.2544020225125116,0.019398496240601498,0,0.05
1757394628.9899647,0.141,-0.369,9.743,0.035511477018000816,2.321736264379628,0.01979949874686716,0,0.05
1757394629.0149548,0.134,-0.38,9.753,0.036137999391222524,2.365765381178234,0.020150375939849616,0,0.05
1757394629.0398037,0.134,-0.38,9.753,0.036137999391222524,2.365765381178234,0.020150375939849616,0,0.05
1757394629.06488,0.139,-0.384,9.748,0.036800237770970995,2.39895060042951,0.020401002506265656,0,0.05
1757394629.0901883,0.139,-0.384,9.748,0.036800237770970995,2.39895060042951,0.020401002506265656,0,0.05
1757394629.1152897,0.143,-0.391,9.749,0.03748839820531147,2.4453196130590773,0.02060150375939849,0,0.05
1757394629.1403658,0.143,-0.391,9.749,0.03748839820531147,2.4453196130590773,0.02060150375939849,0,0.05
1757394629.1653922,0.143,-0.391,9.749,0.03748839820531147,2.4453196130590773,0.02060150375939849,0,0.05
1757394629.1907532,0.146,-0.385,9.755,0.03819253853830615,2.416990864161487,0.020751879699248115,0,0.05
1757394629.2163088,0.146,-0.385,9.755,0.03819253853830615,2.416990864161487,0.020751879699248115,0,0.05
1757394629.241889,0.149,-0.391,9.76,0.03891236949865685,2.4548654882599297,0.020902255639097745,0,0.05
1757394629.2671235,0.149,-0.391,9.76,0.03891236949865685,2.4548654882599297,0.020902255639097745,0,0.05
1757394629.2923071,0.164,-0.39,9.757,0.039766977506468855,2.482881662083036,0.021654135338345867,0,0.05
1757394629.317447,0.164,-0.39,9.757,0.039766977506468855,2.482881662083036,0.021654135338345867,0,0.05
1757394629.3424325,0.175,-0.402,9.74,0.04071823915642719,2.577389476816956,0.02220551378446115,0,0.05
1757394629.367495,0.175,-0.402,9.74,0.04071823915642719,2.577389476816956,0.02220551378446115,0,0.05
1757394629.3926027,0.198,-0.406,9.745,0.04190447470139675,2.6539192019169193,0.02335839598997494,0,0.05
1757394629.4177835,0.198,-0.406,9.745,0.04190447470139675,2.6539192019169193,0.02335839598997494,0,0.05
1757394629.443098,0.219,-0.408,9.744,0.04331151694411084,2.720798936184674,0.024411027568922307,0,0.05
1757394629.4683492,0.219,-0.408,9.744,0.04331151694411084,2.720798936184674,0.024411027568922307,0,0.05
1757394629.4937973,0.227,-0.405,9.74,0.044773987984096306,2.7290601875964797,0.024812030075187966,0,0.05
1757394629.5192256,0.227,-0.405,9.74,0.044773987984096306,2.7290601875964797,0.024812030075187966,0,0.05
1757394629.5444632,0.227,-0.405,9.74,0.044773987984096306,2.7290601875964797,0.024812030075187966,0,0.05
1757394629.5696201,0.235,-0.4,9.754,0.046290090732250676,2.7230716945689366,0.02521303258145363,0,0.05
1757394629.5952034,0.235,-0.4,9.754,0.046290090732250676,2.7230716945689366,0.02521303258145363,0,0.05
1757394629.62077,0.242,-0.41,9.752,0.04784540207794266,2.7949596265962273,0.025563909774436087,0,0.05
1757394629.6465845,0.242,-0.41,9.752,0.04784540207794266,2.7949596265962273,0.025563909774436087,0,0.05
1757394629.671779,0.251,-0.414,9.767,0.04946397679119624,2.8378023242359958,0.02601503759398496,0,0.05
1757394629.6969125,0.251,-0.414,9.767,0.04946397679119624,2.8378023242359958,0.02601503759398496,0,0.05
1757394629.7220209,0.245,-0.409,9.776,0.050958291768857404,2.7920483332986414,0.02631578947368421,0,0.05
1757394629.7473948,0.245,-0.409,9.776,0.050958291768857404,2.7920483332986414,0.02631578947368421,0,0.05
1757394629.772616,0.247,-0.41,9.763,0.05243348166963548,2.8068086898022524,0.026416040100250626,0,0.05
1757394629.7977576,0.247,-0.41,9.763,0.05243348166963548,2.8068086898022524,0.026416040100250626,0,0.05
1757394629.8231962,0.243,-0.405,9.758,0.05382278792481861,2.771069963822675,0.02661654135338346,0,0.05
1757394629.8482742,0.243,-0.405,9.758,0.05382278792481861,2.771069963822675,0.02661654135338346,0,0.05
1757394629.8733263,0.244,-0.396,9.761,0.05518815543212149,2.7282261844978657,0.026666666666666665,0,0.05
1757394629.8986619,0.244,-0.396,9.761,0.05518815543212149,2.7282261844978657,0.026666666666666665,0,0.05
1757394629.923915,0.244,-0.396,9.761,0.05518815543212149,2.7282261844978657,0.026666666666666665,0,0.05
1757394629.9494448,0.229,-0.382,9.749,0.056363418987850626,2.615731837294751,0.02741854636591478,0,0.05
1757394629.9750156,0.229,-0.382,9.749,0.056363418987850626,2.615731837294751,0.02741854636591478,0,0.05
1757394630.0002944,0.208,-0.364,9.753,0.05731487590495159,2.46137142634514,0.02847117794486214,0,0.05
1757394630.0254939,0.208,-0.364,9.753,0.05731487590495159,2.46137142634514,0.02847117794486214,0,0.05
1757394630.0507348,0.2,-0.36,9.75,0.05818070986160275,2.4186491092988276,0.028872180451127813,0,0.05
1757394630.0758102,0.2,-0.36,9.75,0.05818070986160275,2.4186491092988276,0.028872180451127813,0,0.05
1757394630.1009505,0.199,-0.36,9.754,0.059025397076173915,2.414816238264294,0.02892230576441102,0,0.05
1757394630.126223,0.199,-0.36,9.754,0.059025397076173915,2.414816238264294,0.02892230576441102,0,0.05
1757394630.1519902,0.175,-0.371,9.751,0.05967042818683305,2.4088827867025087,0.030125313283208013,0,0.05
1757394630.177646,0.175,-0.371,9.751,0.05967042818683305,2.4088827867025087,0.030125313283208013,0,0.05
1757394630.202874,0.149,-0.362,9.758,0.060133705191015796,2.2973234877582622,0.03142857142857142,0,0.05
1757394630.2278767,0.149,-0.362,9.758,0.060133705191015796,2.2973234877582622,0.03142857142857142,0,0.05
1757394630.252956,0.132,-0.366,9.757,0.06049481382730258,2.283550076081471,0.03228070175438595,0,0.05
1757394630.278233,0.132,-0.366,9.757,0.06049481382730258,2.283550076081471,0.03228070175438595,0,0.05
1757394630.3031206,0.118,-0.349,9.753,0.06078184350609975,2.163255919834401,0.03298245614035087,0,0.05
1757394630.3281078,0.118,-0.349,9.753,0.06078184350609975,2.163255919834401,0.03298245614035087,0,0.05
1757394630.353291,0.118,-0.349,9.753,0.06078184350609975,2.163255919834401,0.03298245614035087,0,0.05
1757394630.3786566,0.11,-0.348,9.775,0.0610301769618932,2.1382713129541857,0.033383458646616536,0,0.05
1757394630.403865,0.11,-0.348,9.775,0.0610301769618932,2.1382713129541857,0.033383458646616536,0,0.05
1757394630.4292834,0.106,-0.349,9.774,0.061259876754691564,2.137150175015742,0.03358395989974937,0,0.05
1757394630.4543426,0.106,-0.349,9.774,0.061259876754691564,2.137150175015742,0.03358395989974937,0,0.05
1757394630.4795182,0.1,-0.349,9.767,0.06146358678111781,2.1287315822492183,0.033884711779448615,0,0.05
1757394630.5047946,0.1,-0.349,9.767,0.06146358678111781,2.1287315822492183,0.033884711779448615,0,0.05
1757394630.5299184,0.1,-0.369,9.746,0.061666623873859024,2.24641176150231,0.033884711779448615,0,0.05
1757394630.555088,0.1,-0.369,9.746,0.061666623873859024,2.24641176150231,0.033884711779448615,0,0.05
1757394630.5803938,0.108,-0.384,9.768,0.06190260495326509,2.338504010188815,0.034285714285714274,0,0.05
1757394630.605555,0.108,-0.384,9.768,0.06190260495326509,2.338504010188815,0.034285714285714274,0,0.05
1757394630.6307714,0.117,-0.377,9.774,0.06217841265262406,2.3127205293474584,0.03473684210526315,0,0.05
1757394630.6562238,0.117,-0.377,9.774,0.06217841265262406,2.3127205293474584,0.03473684210526315,0,0.05
1757394630.6813643,0.117,-0.377,9.774,0.06217841265262406,2.3127205293474584,0.03473684210526315,0,0.05
1757394630.7063937,0.12,-0.389,9.779,0.06246723140975595,2.383780569078705,0.03488721804511278,0,0.05
1757394630.731555,0.12,-0.389,9.779,0.06246723140975595,2.383780569078705,0.03488721804511278,0,0.05
1757394630.7566721,0.124,-0.382,9.774,0.06277415869607493,2.3530070643952565,0.035087719298245605,0,0.05
1757394630.7819798,0.124,-0.382,9.774,0.06277415869607493,2.3530070643952565,0.035087719298245605,0,0.05
1757394630.8074749,0.142,-0.39,9.776,0.06317440146135142,2.431072832548907,0.03598997493734335,0,0.05
1757394630.832994,0.142,-0.39,9.776,0.06317440146135142,2.431072832548907,0.03598997493734335,0,0.05
1757394630.858348,0.156,-0.388,9.768,0.06365410434528161,2.4514437407911505,0.03669172932330826,0,0.05
1757394630.8835168,0.156,-0.388,9.768,0.06365410434528161,2.4514437407911505,0.03669172932330826,0,0.05
1757394630.9086154,0.162,-0.394,9.766,0.0641673982642276,2.4977275533053738,0.036992481203007514,0,0.05
1757394630.9336693,0.162,-0.394,9.766,0.0641673982642276,2.4977275533053738,0.036992481203007514,0,0.05
1757394630.9588625,0.167,-0.395,9.767,0.06470840362734967,2.5141429970050573,0.03724310776942355,0,0.05
1757394630.9840195,0.167,-0.395,9.767,0.06470840362734967,2.5141429970050573,0.03724310776942355,0,0.05
1757394631.009107,0.181,-0.41,9.781,0.06533819709786917,2.6235147903999905,0.037944862155388476,0,0.05
1757394631.0343242,0.181,-0.41,9.781,0.06533819709786917,2.6235147903999905,0.037944862155388476,0,0.05
1757394631.0593808,0.195,-0.403,9.767,0.06606165680635023,2.6244799006305386,0.03864661654135338,0,0.05
1757394631.0845225,0.195,-0.403,9.767,0.06606165680635023,2.6244799006305386,0.03864661654135338,0,0.05
1757394631.109586,0.195,-0.403,9.767,0.06606165680635023,2.6244799006305386,0.03864661654135338,0,0.05
1757394631.1345897,0.222,-0.403,9.768,0.0669877040956025,2.696803799641414,0.039999999999999994,0,0.05
1757394631.15968,0.222,-0.403,9.768,0.0669877040956025,2.696803799641414,0.039999999999999994,0,0.05
1757394631.1845937,0.23,-0.412,9.758,0.06796765774984452,2.7684020612725084,0.04040100250626567,0,0.05
1757394631.2094805,0.23,-0.412,9.758,0.06796765774984452,2.7684020612725084,0.04040100250626567,0,0.05
1757394631.2344942,0.23,-0.411,9.752,0.06893368189789371,2.764986091235134,0.04040100250626566,0,0.05
1757394631.2595124,0.23,-0.411,9.752,0.06893368189789371,2.764986091235134,0.04040100250626566,0,0.05
1757394631.2846417,0.233,-0.407,9.767,0.06991119366739493,2.74902157495914,0.040551378446115276,0,0.05
1757394631.3096664,0.233,-0.407,9.767,0.06991119366739493,2.74902157495914,0.040551378446115276,0,0.05
1757394631.3346872,0.223,-0.405,9.754,0.07079475616173841,2.7137639986386954,0.041052631578947354,0,0.05
1757394631.3597267,0.223,-0.405,9.754,0.07079475616173841,2.7137639986386954,0.041052631578947354,0,0.05
1757394631.384737,0.215,-0.405,9.762,0.07160628464038614,2.689259714779685,0.04145363408521302,0,0.05
1757394631.4103112,0.215,-0.405,9.762,0.07160628464038614,2.689259714779685,0.04145363408521302,0,0.05
1757394631.435143,0.215,-0.405,9.762,0.07160628464038614,2.689259714779685,0.04145363408521302,0,0.05
1757394631.4599905,0.205,-0.39,9.763,0.07233617697943402,2.583958314074876,0.0419548872180451,0,0.05
1757394631.4848382,0.205,-0.39,9.763,0.07233617697943402,2.583958314074876,0.0419548872180451,0,0.05
1757394631.5098422,0.201,-0.383,9.766,0.07303098657419328,2.5359895872316325,0.042155388471177925,0,0.05
1757394631.5348036,0.201,-0.383,9.766,0.07303098657419328,2.5359895872316325,0.042155388471177925,0,0.05
1757394631.559941,0.186,-0.375,9.781,0.07362075115074554,2.450572278995968,0.04290726817042605,0,0.05
1757394631.584702,0.186,-0.375,9.781,0.07362075115074554,2.450572278995968,0.04290726817042605,0,0.05
1757394631.6098447,0.181,-0.369,9.772,0.07417491152674198,2.4083876616514255,0.043157894736842096,0,0.05
1757394631.6356106,0.181,-0.369,9.772,0.07417491152674198,2.4083876616514255,0.043157894736842096,0,0.05
1757394631.6610446,0.158,-0.365,9.747,0.07459442003260029,2.336678355908543,0.04431077694235589,0,0.05
1757394631.6879644,0.158,-0.365,9.747,0.07459442003260029,2.336678355908543,0.04431077694235589,0,0.05
1757394631.714898,0.136,-0.363,9.746,0.07490372153638296,2.2776987469343584,0.04541353383458646,0,0.05
1757394631.741654,0.136,-0.363,9.746,0.07490372153638296,2.2776987469343584,0.04541353383458646,0,0.05
1757394631.7682834,0.12,-0.353,9.745,0.0751436457726134,2.191040863196882,0.0462155388471178,0,0.05
1757394631.795605,0.12,-0.353,9.745,0.0751436457726134,2.191040863196882,0.0462155388471178,0,0.05
1757394631.8230326,0.478,-0.402,9.815,0.0788528851723258,3.641065158441026,0.06416040100250626,0,0.05
1757394631.8504379,0.478,-0.402,9.815,0.0788528851723258,3.641065158441026,0.06416040100250626,0,0.05
1757394631.8775675,0.269,-0.421,9.875,0.07999174957456551,2.8962725446751167,0.07463659147869675,0,0.05
1757394631.905373,0.269,-0.421,9.875,0.07999174957456551,2.8962725446751167,0.07463659147869675,0,0.05
1757394631.9322982,0.479,-0.355,9.837,0.08350019461055165,3.468391031688042,0.08516290726817044,0,0.05
1757394631.9600117,0.479,-0.355,9.837,0.08350019461055165,3.468391031688042,0.08516290726817044,0,0.05
1757394631.9862027,0.275,-0.396,9.836,0.08462473042793105,2.8061639053527374,0.09538847117794487,0,0.05
1757394632.0134442,0.275,-0.396,9.836,0.08462473042793105,2.8061639053527374,0.09538847117794487,0,0.05
1757394632.0398836,0.184,-0.308,9.803,0.08512335167273431,2.096007594238924,0.09994987468671677,0,0.05
1757394632.06627,0.184,-0.308,9.803,0.08512335167273431,2.096007594238924,0.09994987468671677,0,0.05
1757394632.0931263,0.06,-0.304,9.819,0.08517619972738864,1.8075198284147174,0.10616541353383457,0,0.05
1757394632.1211436,0.06,-0.304,9.819,0.08517619972738864,1.8075198284147174,0.10616541353383457,0,0.05
1757394632.1473103,0.161,-0.4,9.924,0.08555575667364529,2.487866298517644,0.11122807017543858,0,0.05
1757394632.1739037,0.161,-0.4,9.924,0.08555575667364529,2.487866298517644,0.11122807017543858,0,0.05
1757394632.2008297,0.327,-0.538,9.831,0.08710401827700029,3.664243399659018,0.11954887218045114,0,0.05
1757394632.2278087,0.327,-0.538,9.831,0.08710401827700029,3.664243399659018,0.11954887218045114,0,0.05
1757394632.2536905,0.083,-0.316,9.843,0.08720282392216436,1.9011198482895957,0.13177944862155386,0,0.05
1757394632.28003,0.083,-0.316,9.843,0.08720282392216436,1.9011198482895957,0.13177944862155386,0,0.05
1757394632.3067174,0.214,-0.491,9.854,0.08785682955809411,3.1112205007561045,0.13834586466165413,0,0.05
1757394632.3347812,0.214,-0.491,9.854,0.08785682955809411,3.1112205007561045,0.13834586466165413,0,0.05
1757394632.362043,0.132,-0.476,9.888,0.08810438411339132,2.859882594149428,0.1424561403508772,0,0.05
1757394632.3891363,0.132,-0.476,9.888,0.08810438411339132,2.859882594149428,0.1424561403508772,0,0.05
1757394632.4163625,0.131,-0.33,9.805,0.08834752401737131,2.073842131587065,0.1425062656641604,0,0.05
1757394632.4438732,0.131,-0.33,9.805,0.08834752401737131,2.073842131587065,0.1425062656641604,0,0.05
1757394632.4701881,0.165,-0.259,9.842,0.08873188547529011,1.787179001221389,0.14421052631578948,0,0.05
1757394632.4973035,0.165,-0.259,9.842,0.08873188547529011,1.787179001221389,0.14421052631578948,0,0.05
1757394632.5239003,0.308,-0.37,9.782,0.09005835608093232,2.817524469693935,0.15137844611528822,0,0.05
1757394632.550504,0.308,-0.37,9.782,0.09005835608093232,2.817524469693935,0.15137844611528822,0,0.05
1757394632.5763755,0.141,-0.626,9.74,0.09033388068714861,3.769268040134972,0.15974937343358397,0,0.05
1757394632.6035936,0.141,-0.626,9.74,0.09033388068714861,3.769268040134972,0.15974937343358397,0,0.05
1757394632.6299026,0.18,-0.463,9.855,0.09078111036994424,2.8856515282329425,0.16170426065162907,0,0.05
1757394632.6566975,0.18,-0.463,9.855,0.09078111036994424,2.8856515282329425,0.16170426065162907,0,0.05
1757394632.6835608,0.28,-0.335,9.763,0.09185428678074856,2.5605897550048193,0.16671679197994987,0,0.05
1757394632.7105126,0.28,-0.335,9.763,0.09185428678074856,2.5605897550048193,0.16671679197994987,0,0.05
1757394632.7376518,0.143,-0.31,9.742,0.09213214694122784,2.007017228708779,0.17358395989974934,0,0.05
1757394632.7650902,0.143,-0.31,9.742,0.09213214694122784,2.007017228708779,0.17358395989974934,0,0.05
1757394632.7923074,0.143,-0.31,9.742,0.09213214694122784,2.007017228708779,0.17358395989974934,0,0.05
1757394632.8201115,0.251,-0.188,9.864,0.09298298231396969,1.8209560056007985,0.17899749373433582,0,0.05
1757394632.847275,0.114,-0.381,9.801,0.09315752787617326,2.3235834514794966,0.1858646616541353,0,0.05
1757394632.8744571,0.114,-0.381,9.801,0.09315752787617326,2.3235834514794966,0.1858646616541353,0,0.05
1757394632.90123,0.114,-0.381,9.801,0.09315752787617326,2.3235834514794966,0.1858646616541353,0,0.05
1757394632.9284565,0.166,-0.5,9.795,0.09352654703344927,3.0787556935068454,0.18847117794486212,0,0.05
1757394632.955004,0.173,-0.398,9.768,0.09392570202026705,2.543868707947041,0.18882205513784459,0,0.05
1757394632.981458,0.173,-0.398,9.768,0.09392570202026705,2.543868707947041,0.18882205513784459,0,0.05
1757394633.0080283,0.21,-0.297,9.68,0.09451077980844301,2.1519772894976743,0.19067669172932322,0,0.05
1757394633.0351248,0.21,-0.297,9.68,0.09451077980844301,2.1519772894976743,0.19067669172932322,0,0.05
1757394633.062329,0.393,-0.174,9.73,0.09653191182194622,2.529242112634238,0.19984962406015033,0,0.05
1757394633.0898373,0.393,-0.174,9.73,0.09653191182194622,2.529242112634238,0.19984962406015033,0,0.05
1757394633.1173317,0.124,-0.29,9.811,0.0967308120507628,1.841276339481507,0.21333333333333326,0,0.05
1757394633.1436536,0.124,-0.29,9.811,0.0967308120507628,1.841276339481507,0.21333333333333326,0,0.05
1757394633.1705687,0.286,-0.264,9.872,0.09778210470224089,2.2578103299418637,0.22145363408521296,0,0.05
1757394633.1979535,0.286,-0.264,9.872,0.09778210470224089,2.2578103299418637,0.22145363408521296,0,0.05
1757394633.2248292,0.286,-0.264,9.872,0.09778210470224089,2.2578103299418637,0.22145363408521296,0,0.05
1757394633.2517526,0.056,-0.402,9.988,0.09782218562268989,2.327044784569696,0.23298245614035082,0,0.05
1757394633.2787442,0.056,-0.402,9.988,0.09782218562268989,2.327044784569696,0.23298245614035082,0,0.05
1757394633.305517,0.058,-0.469,9.905,0.09786516234084527,2.7315403555344084,0.23308270676691722,0,0.05
1757394633.3323343,0.123,-0.215,9.932,0.0980582097531869,1.4286220449398717,0.23634085213032577,0,0.05
1757394633.3600583,0.123,-0.215,9.932,0.0980582097531869,1.4286220449398717,0.23634085213032577,0,0.05
1757394633.3867552,0.123,-0.215,9.932,0.0980582097531869,1.4286220449398717,0.23634085213032577,0,0.05
1757394633.4124298,-0.062,-0.255,10.018,0.09810719902229398,1.5005628246161555,0.24561403508771926,0,0.05
1757394633.4389443,-0.324,-0.173,10.017,0.09943572044290723,2.0999282805231827,0.2587468671679197,0,0.05
1757394633.4655519,-0.324,-0.173,10.017,0.09943572044290723,2.0999282805231827,0.2587468671679197,0,0.05
1757394633.491429,0.119,-0.163,10.121,0.0996135783917032,1.1423491455998145,0.28095238095238095,0,0.05
1757394633.5177262,0.119,-0.163,10.121,0.0996135783917032,1.1423491455998145,0.28095238095238095,0,0.05
1757394633.544406,0.119,-0.163,10.121,0.0996135783917032,1.1423491455998145,0.28095238095238095,0,0.05
1757394633.5719028,-0.032,-0.191,10.034,0.09962642721687856,1.1057048195381758,0.28852130325814535,0,0.05
1757394633.5988941,-0.303,-0.246,9.908,0.10077175943685811,2.2557852450493434,0.3021052631578947,0,0.05
1757394633.6250243,-0.303,-0.246,9.908,0.10077175943685811,2.2557852450493434,0.3021052631578947,0,0.05
1757394633.6519103,-0.303,-0.246,9.908,0.10077175943685811,2.2557852450493434,0.3021052631578947,0,0.05
1757394633.6788228,0.147,-0.154,9.992,0.10103944774195868,1.2206001151300494,0.3246616541353383,0,0.05
1757394633.7058516,-0.089,-0.422,9.913,0.101137394172482,2.4911853604214818,0.3364912280701754,0,0.05
1757394633.7317493,-0.089,-0.422,9.913,0.101137394172482,2.4911853604214818,0.3364912280701754,0,0.05
1757394633.7587965,-0.089,-0.422,9.913,0.101137394172482,2.4911853604214818,0.3364912280701754,0,0.05
1757394633.7859783,-0.027,-0.133,9.87,0.10114640379173152,0.7877698342400067,0.33959899749373434,0,0.05
1757394633.813664,-0.027,-0.133,9.87,0.10114640379173152,0.7877698342400067,0.33959899749373434,0,0.05
1757394633.8410885,0.064,-0.077,9.876,0.10119701082541914,0.5808565126070694,0.3441604010025062,0,0.05
1757394633.8681824,0.052,-0.133,9.728,0.10123040551138772,0.8410240926907492,0.34476190476190477,0,0.05
1757394633.8948493,0.052,-0.133,9.728,0.10123040551138772,0.8410240926907492,0.34476190476190477,0,0.05
1757394633.9217353,0.052,-0.133,9.728,0.10123040551138772,0.8410240926907492,0.34476190476190477,0,0.05
1757394633.9485352,0.052,-0.133,9.728,0.10123040551138772,0.8410240926907492,0.34476190476190477,0,0.05
1757394633.9753137,0.186,-0.227,9.566,0.10165670169742869,1.7571979196305287,0.35147869674185467,0,0.05
1757394634.0020125,0.142,-0.333,9.713,0.10190434240011562,2.134478340736614,0.3536842105263158,0,0.05
1757394634.029445,0.142,-0.333,9.713,0.10190434240011562,2.134478340736614,0.3536842105263158,0,0.05
1757394634.056658,0.31,-0.48,9.586,0.10307640370133214,3.411247464014535,0.36210526315789476,0,0.05
1757394634.0840077,0.31,-0.48,9.586,0.10307640370133214,3.411247464014535,0.36210526315789476,0,0.05
1757394634.1111207,0.31,-0.48,9.586,0.10307640370133214,3.411247464014535,0.36210526315789476,0,0.05
1757394634.1380813,0.31,-0.48,9.586,0.10307640370133214,3.411247464014535,0.36210526315789476,0,0.05
1757394634.16496,0.31,-0.48,9.586,0.10307640370133214,3.411247464014535,0.36210526315789476,0,0.05
1757394634.1919115,0.258,-0.602,9.559,0.10388048421142441,3.919623766295499,0.3647117794486216,0,0.05
1757394634.219062,0.284,-0.678,9.779,0.10484653070082958,4.298785388580188,0.366015037593985,0,0.05
1757394634.246267,0.369,-0.58,9.613,0.10645749151656729,4.090288789466825,0.3702756892230576,0,0.05
1757394634.2734585,0.32,-0.653,9.492,0.10765313511458922,4.380935030535767,0.37273182957393475,0,0.05
1757394634.3005075,0.234,-0.503,9.512,0.10828706063052963,3.3378645284626627,0.37704260651629073,0,0.05
1757394634.327887,0.234,-0.503,9.512,0.10828706063052963,3.3378645284626627,0.37704260651629073,0,0.05
1757394634.354804,0.234,-0.503,9.512,0.10828706063052963,3.3378645284626627,0.37704260651629073,0,0.05
1757394634.3817937,0.592,-0.451,9.617,0.11225973231751445,4.425071388532155,0.3949874686716791,0,0.05
1757394634.408919,0.592,-0.451,9.617,0.11225973231751445,4.425071388532155,0.3949874686716791,0,0.05
1757394634.435957,0.087,-0.52,9.57,0.11234398070212752,3.1533347629153536,0.42030075187969923,0,0.05
1757394634.4633784,0.087,-0.52,9.57,0.11234398070212752,3.1533347629153536,0.42030075187969923,0,0.05
1757394634.4902425,0.381,-0.288,9.634,0.11394767439487301,2.838101928336853,0.4350375939849623,0,0.05
1757394634.517214,0.258,-0.152,9.772,0.11467555319247427,1.7551815102511632,0.4412030075187968,0,0.05
1757394634.5439312,0.258,-0.152,9.772,0.11467555319247427,1.7551815102511632,0.4412030075187968,0,0.05
1757394634.5709958,0.258,-0.152,9.772,0.11467555319247427,1.7551815102511632,0.4412030075187968,0,0.05
1757394634.5978458,0.258,-0.152,9.772,0.11467555319247427,1.7551815102511632,0.4412030075187968,0,0.05
1757394634.6247704,0.258,-0.152,9.772,0.11467555319247427,1.7551815102511632,0.4412030075187968,0,0.05
1757394634.6516974,0.258,-0.152,9.772,0.11467555319247427,1.7551815102511632,0.4412030075187968,0,0.05
1757394634.6786134,0.244,-0.407,9.699,0.1153226885742784,2.8010394455700958,0.4419047619047618,0,0.05
1757394634.705575,0.097,-0.327,9.736,0.1154246290875565,2.006435875420623,0.44927318295739344,0,0.05
1757394634.731723,0.209,-0.243,9.785,0.11589671047963354,1.876096592253494,0.45488721804511273,0,0.05
1757394634.7583158,0.159,-0.371,9.751,0.11616905784243926,2.370366350690101,0.4573934837092732,0,0.05
1757394634.7854397,0.159,-0.371,9.751,0.11616905784243926,2.370366350690101,0.4573934837092732,0,0.05
1757394634.8124242,0.304,-0.375,9.763,0.11715925059507679,2.830752801635173,0.4646616541353383,0,0.05
1757394634.8393283,0.325,-0.323,9.794,0.11828082050780675,2.6786011424232488,0.4657142857142857,0,0.05
1757394634.8664842,0.325,-0.323,9.794,0.11828082050780675,2.6786011424232488,0.4657142857142857,0,0.05
1757394634.8934495,0.325,-0.323,9.794,0.11828082050780675,2.6786011424232488,0.4657142857142857,0,0.05
1757394634.920397,0.357,-0.575,9.781,0.11962012790496422,3.9583616529675134,0.4673182957393483,0,0.05
1757394634.947767,0.357,-0.575,9.781,0.11962012790496422,3.9583616529675134,0.4673182957393483,0,0.05
1757394634.9744205,0.252,-0.577,9.665,0.12028189805619131,3.72728354201569,0.4725814536340852,0,0.05
1757394635.001507,0.252,-0.577,9.665,0.12028189805619131,3.72728354201569,0.4725814536340852,0,0.05
1757394635.028078,0.337,-0.462,9.786,0.12145640164272939,3.344308472328877,0.4768421052631578,0,0.05
1757394635.0549278,0.337,-0.462,9.786,0.12145640164272939,3.344308472328877,0.4768421052631578,0,0.05
1757394635.081385,0.589,-0.518,9.788,0.12497583766472621,4.5816893234452545,0.4894736842105261,0,0.05
1757394635.107724,0.589,-0.518,9.788,0.12497583766472621,4.5816893234452545,0.4894736842105261,0,0.05
1757394635.1334848,0.079,-0.495,9.671,0.1250382441495401,2.9670826893459945,0.5150375939849622,0,0.05
1757394635.160557,0.079,-0.495,9.671,0.1250382441495401,2.9670826893459945,0.5150375939849622,0,0.05
1757394635.1877334,0.379,-0.213,9.595,0.12646606264132682,2.5943173629372187,0.5300751879699247,0,0.05
1757394635.2147093,0.379,-0.213,9.595,0.12646606264132682,2.5943173629372187,0.5300751879699247,0,0.05
1757394635.2415824,0.217,-0.179,9.654,0.12693064050890154,1.6690258199728245,0.5381954887218044,0,0.05
1757394635.2690775,0.217,-0.179,9.654,0.12693064050890154,1.6690258199728245,0.5381954887218044,0,0.05
1757394635.2964604,0.201,-0.378,9.666,0.12732788382754187,2.5360368453955124,0.5389974937343357,0,0.05
1757394635.3235388,0.201,-0.378,9.666,0.12732788382754187,2.5360368453955124,0.5389974937343357,0,0.05
1757394635.350586,0.234,-0.446,9.605,0.12786430307165483,3.0016769497616536,0.5406516290726816,0,0.05
1757394635.3774252,0.234,-0.446,9.605,0.12786430307165483,3.0016769497616536,0.5406516290726816,0,0.05
1757394635.404039,0.245,-0.416,9.7,0.12844976644587563,2.8493520103586256,0.5412030075187969,0,0.05
1757394635.4297712,0.245,-0.416,9.7,0.12844976644587563,2.8493520103586256,0.5412030075187969,0,0.05
1757394635.4558313,0.132,-0.549,9.676,0.1286192151274451,3.3397250125363542,0.5468671679197995,0,0.05
1757394635.4829047,0.132,-0.549,9.676,0.1286192151274451,3.3397250125363542,0.5468671679197995,0,0.05
1757394635.5101337,0.238,-0.54,9.689,0.1291685429971245,3.4853736308619205,0.5521804511278195,0,0.05
1757394635.537319,0.238,-0.54,9.689,0.1291685429971245,3.4853736308619205,0.5521804511278195,0,0.05
1757394635.5649014,0.014,-0.429,9.841,0.12917043972983913,2.4974491565974795,0.5634085213032581,0,0.05
1757394635.5929186,0.014,-0.429,9.841,0.12917043972983913,2.4974491565974795,0.5634085213032581,0,0.05
1757394635.6203718,0.291,-0.521,9.776,0.1299873263052979,3.4931905370194727,0.5772932330827066,0,0.05
1757394635.6478484,0.291,-0.521,9.776,0.1299873263052979,3.4931905370194727,0.5772932330827066,0,0.05
1757394635.6750286,0.316,-0.605,9.513,0.13094405293865008,4.103921458631124,0.5785463659147869,0,0.05
1757394635.702171,0.316,-0.605,9.513,0.13094405293865008,4.103921458631124,0.5785463659147869,0,0.05
1757394635.729197,0.173,-0.444,9.717,0.13122944600965136,2.8074870031012806,0.5857142857142856,0,0.05
1757394635.756403,0.173,-0.444,9.717,0.13122944600965136,2.8074870031012806,0.5857142857142856,0,0.05
1757394635.7824092,0.221,-0.457,9.58,0.13169384951469829,3.0331921877927255,0.5881203007518796,0,0.05
1757394635.8093998,0.221,-0.457,9.58,0.13169384951469829,3.0331921877927255,0.5881203007518796,0,0.05
1757394635.8363128,0.177,-0.407,9.522,0.13199088036678897,2.668634584403783,0.5903258145363408,0,0.05
1757394635.8634748,0.177,-0.407,9.522,0.13199088036678897,2.668634584403783,0.5903258145363408,0,0.05
1757394635.8904727,0.254,-0.34,9.658,0.13260046191473088,2.5161253525687814,0.5941854636591478,0,0.05
1757394635.9175718,0.254,-0.34,9.658,0.13260046191473088,2.5161253525687814,0.5941854636591478,0,0.05
1757394635.9447403,0.207,-0.368,9.79,0.13300377814182573,2.469526419957508,0.5965413533834586,0,0.05
1757394635.9720492,0.207,-0.368,9.79,0.13300377814182573,2.469526419957508,0.5965413533834586,0,0.05
1757394635.998604,0.08,-0.456,9.858,0.1330639132146654,2.688824134224384,0.602907268170426,0,0.05
1757394636.025268,0.08,-0.456,9.858,0.1330639132146654,2.688824134224384,0.602907268170426,0,0.05
1757394636.051408,0.265,-0.428,9.899,0.13372197837304084,2.9111754043026945,0.6121804511278195,0,0.05
1757394636.0784047,0.265,-0.428,9.899,0.13372197837304084,2.9111754043026945,0.6121804511278195,0,0.05
1757394636.105341,0.131,-0.282,9.944,0.13388229905405719,1.7910164747149768,0.6188972431077694,0,0.05
1757394636.1322114,0.131,-0.282,9.944,0.13388229905405719,1.7910164747149768,0.6188972431077694,0,0.05
1757394636.1589239,0.219,-0.39,9.885,0.13432934340642033,2.59078302685514,0.6233082706766916,0,0.05
1757394636.1862128,0.219,-0.39,9.885,0.13432934340642033,2.59078302685514,0.6233082706766916,0,0.05
1757394636.213325,0.227,-0.469,9.852,0.13480799308646355,3.027406360361981,0.6237092731829573,0,0.05
1757394636.2392395,0.227,-0.469,9.852,0.13480799308646355,3.027406360361981,0.6237092731829573,0,0.05
1757394636.2659469,0.322,-0.216,9.752,0.13576599353299043,2.27686625075787,0.6284711779448621,0,0.05
1757394636.2940326,0.322,-0.216,9.752,0.13576599353299043,2.27686625075787,0.6284711779448621,0,0.05
1757394636.321892,0.093,-0.234,9.879,0.13584560169545423,1.4600824354332405,0.6399498746867167,0,0.05
1757394636.3483791,0.093,-0.234,9.879,0.13584560169545423,1.4600824354332405,0.6399498746867167,0,0.05
1757394636.374339,0.116,-0.328,9.742,0.13596936235784884,2.0452878546141178,0.6411027568922306,0,0.05
1757394636.4000878,0.116,-0.328,9.742,0.13596936235784884,2.0452878546141178,0.6411027568922306,0,0.05
1757394636.4264205,0.133,-0.453,9.836,0.13613188458256206,2.7480460292024036,0.6419548872180451,0,0.05
1757394636.4536448,0.133,-0.453,9.836,0.13613188458256206,2.7480460292024036,0.6419548872180451,0,0.05
1757394636.480345,0.38,-0.349,9.784,0.13745140959626426,3.0186234770413916,0.6543358395989974,0,0.05
1757394636.5077195,0.38,-0.349,9.784,0.13745140959626426,3.0186234770413916,0.6543358395989974,0,0.05
1757394636.5347688,-0.023,-0.356,9.68,0.13745622030304774,2.1105967474226106,0.6745363408521303,0,0.05
1757394636.5619726,-0.023,-0.356,9.68,0.13745622030304774,2.1105967474226106,0.6745363408521303,0,0.05
1757394636.589001,-0.081,-0.281,9.659,0.1375158718112204,1.7341902556856168,0.6774436090225565,0,0.05
1757394636.6164567,-0.081,-0.281,9.659,0.1375158718112204,1.7341902556856168,0.6774436090225565,0,0.05
1757394636.6435661,0.197,-0.202,9.814,0.13786818886168048,1.6468307008530614,0.6913784461152882,0,0.05
1757394636.6705613,0.197,-0.202,9.814,0.13786818886168048,1.6468307008530614,0.6913784461152882,0,0.05
1757394636.6974573,0.046,-0.4,9.78,0.13788737251829844,2.3574990869349213,0.6989473684210527,0,0.05
1757394636.7246034,0.046,-0.4,9.78,0.13788737251829844,2.3574990869349213,0.6989473684210527,0,0.05
1757394636.7510617,-0.076,-0.221,9.802,0.1379397241551541,1.3658077809179472,0.705062656641604,0,0.05
1757394636.778164,-0.076,-0.221,9.802,0.1379397241551541,1.3658077809179472,0.705062656641604,0,0.05
1757394636.8051398,0.171,-0.254,9.984,0.13820445000071452,1.7566441925501168,0.7174436090225563,0,0.05
1757394636.8322787,0.171,-0.254,9.984,0.13820445000071452,1.7566441925501168,0.7174436090225563,0,0.05
1757394636.8592486,-0.06,-0.365,10.005,0.13823700662268407,2.1173395430788986,0.7290225563909772,0,0.05
1757394636.8864424,-0.06,-0.365,10.005,0.13823700662268407,2.1173395430788986,0.7290225563909772,0,0.05
1757394636.9128768,-0.003,-0.32,9.953,0.13823708800463066,1.8415694524235784,0.7318796992481201,0,0.05
1757394636.9397678,-0.003,-0.32,9.953,0.13823708800463066,1.8415694524235784,0.7318796992481201,0,0.05
1757394636.9665978,0.044,-0.263,10.233,0.1382545930520936,1.4926963014159538,0.734235588972431,0,0.05
1757394636.9927847,0.044,-0.263,10.233,0.1382545930520936,1.4926963014159538,0.734235588972431,0,0.05
1757394637.0192912,0.005,-0.373,10.115,0.13825481908418238,2.112067613328522,0.7361904761904761,0,0.05
1757394637.0465431,0.005,-0.373,10.115,0.13825481908418238,2.112067613328522,0.7361904761904761,0,0.05
1757394637.0736277,-0.017,-0.443,9.967,0.13825743198830215,2.54680257611904,0.7372932330827067,0,0.05
1757394637.1011405,-0.017,-0.443,9.967,0.13825743198830215,2.54680257611904,0.7372932330827067,0,0.05
1757394637.128129,0.397,-0.261,9.923,0.13967512305346289,2.7412127447080517,0.7580451127819547,0,0.05
1757394637.1551797,0.397,-0.261,9.923,0.13967512305346289,2.7412127447080517,0.7580451127819547,0,0.05
1757394637.1819823,0.295,-0.316,9.865,0.1404517799816008,2.5091715543721715,0.7631578947368419,0,0.05
1757394637.2088015,0.295,-0.316,9.865,0.1404517799816008,2.5091715543721715,0.7631578947368419,0,0.05
1757394637.2352753,0.348,-0.425,9.667,0.14152548357098094,3.252165846347772,0.765814536340852,0,0.05
1757394637.2622128,0.348,-0.425,9.667,0.14152548357098094,3.252165846347772,0.765814536340852,0,0.05
1757394637.2892816,0.297,-0.431,9.963,0.14230244200293962,3.0073565482893714,0.7683709273182957,0,0.05
1757394637.3163579,0.297,-0.431,9.963,0.14230244200293962,3.0073565482893714,0.7683709273182957,0,0.05
1757394637.3434916,0.515,-0.467,10.007,0.14461344162974618,3.974076172293872,0.779298245614035,0,0.05
1757394637.3704553,0.515,-0.467,10.007,0.14461344162974618,3.974076172293872,0.779298245614035,0,0.05
1757394637.397434,0.426,-0.492,9.853,0.14617365528712759,3.7789486273714954,0.7837593984962405,0,0.05
1757394637.4248173,0.426,-0.492,9.853,0.14617365528712759,3.7789486273714954,0.7837593984962405,0,0.05
1757394637.451683,0.197,-0.372,9.99,0.14650515349297444,2.4128126177873668,0.795238095238095,0,0.05
1757394637.47797,0.197,-0.372,9.99,0.14650515349297444,2.4128126177873668,0.795238095238095,0,0.05
1757394637.5038426,0.542,-0.416,10.022,0.14899050305304698,3.900061764444544,0.8125313283208019,0,0.05
1757394637.531133,0.542,-0.416,10.022,0.14899050305304698,3.900061764444544,0.8125313283208019,0,0.05
1757394637.5581763,0.11,-0.47,9.781,0.14909198502937707,2.825303645179766,0.8341854636591477,0,0.05
1757394637.585476,0.11,-0.47,9.781,0.14909198502937707,2.825303645179766,0.8341854636591477,0,0.05
1757394637.6128478,0.394,-0.112,9.859,0.15038786520195038,2.3790861245336523,0.8484210526315786,0,0.05
1757394637.6401296,0.394,-0.112,9.859,0.15038786520195038,2.3790861245336523,0.8484210526315786,0,0.05
1757394637.6672423,0.347,0.125,9.889,0.15138537743124333,2.135958133461911,0.8507769423558895,0,0.05
1757394637.694134,0.347,0.125,9.889,0.15138537743124333,2.135958133461911,0.8507769423558895,0,0.05
1757394637.7209868,0.342,-0.099,9.698,0.1523480964764575,2.102544171836898,0.8510275689223055,0,0.05
1757394637.7480903,0.342,-0.099,9.698,0.1523480964764575,2.102544171836898,0.8510275689223055,0,0.05
1757394637.7744734,0.186,-0.101,9.74,0.15263168904261004,1.2448579471296106,0.8588471177944861,0,0.05
1757394637.8015723,0.186,-0.101,9.74,0.15263168904261004,1.2448579471296106,0.8588471177944861,0,0.05
1757394637.8285384,0.291,0.013,9.847,0.1533236283160557,1.6944079722027328,0.8641102756892229,0,0.05
1757394637.856435,0.291,0.013,9.847,0.1533236283160557,1.6944079722027328,0.8641102756892229,0,0.05
1757394637.8835437,0.175,-0.133,9.729,0.15357310148590475,1.2942466527569256,0.8699248120300751,0,0.05
1757394637.9111972,0.175,-0.133,9.729,0.15357310148590475,1.2942466527569256,0.8699248120300751,0,0.05
1757394637.9380982,0.176,-0.324,9.615,0.15382502234682105,2.1961064747477788,0.8699749373433585,0,0.05
1757394637.9643412,0.176,-0.324,9.615,0.15382502234682105,2.1961064747477788,0.8699749373433585,0,0.05
1757394637.991252,0.324,-0.223,9.656,0.15467571722801224,2.332585238849303,0.8773934837092733,0,0.05
1757394638.018548,0.324,-0.223,9.656,0.15467571722801224,2.332585238849303,0.8773934837092733,0,0.05
1757394638.0453465,0.325,-0.412,9.575,0.15552697515222239,3.136946611279862,0.8774436090225565,0,0.05
1757394638.072578,0.325,-0.412,9.575,0.15552697515222239,3.136946611279862,0.8774436090225565,0,0.05
1757394638.0995667,-0.064,-0.534,9.638,0.15555989200304812,3.1939177048477765,0.8969423558897242,0,0.05
1757394638.126599,-0.064,-0.534,9.638,0.15555989200304812,3.1939177048477765,0.8969423558897242,0,0.05
1757394638.1541889,0.246,-0.378,9.729,0.1560454100574573,2.65411116333281,0.9124812030075186,0,0.05
1757394638.1813407,0.246,-0.378,9.729,0.1560454100574573,2.65411116333281,0.9124812030075186,0,0.05
1757394638.207814,0.057,-0.55,9.669,0.15607143396534806,3.2730363185294253,0.9219548872180449,0,0.05
1757394638.234971,0.057,-0.55,9.669,0.15607143396534806,3.2730363185294253,0.9219548872180449,0,0.05
1757394638.2607813,-0.039,-0.551,9.769,0.15608361541174012,3.2362873687114306,0.9267669172932329,0,0.05
1757394638.28759,-0.039,-0.551,9.769,0.15608361541174012,3.2362873687114306,0.9267669172932329,0,0.05
1757394638.3146126,0.196,-0.415,9.745,0.15639096840930425,2.6964442756834726,0.9385463659147867,0,0.05
1757394638.3418646,0.196,-0.415,9.745,0.15639096840930425,2.6964442756834726,0.9385463659147867,0,0.05
1757394638.3688917,0.28,-0.396,9.787,0.15701635265156302,2.836947893797659,0.9427568922305762,0,0.05
1757394638.3959055,0.28,-0.396,9.787,0.15701635265156302,2.836947893797659,0.9427568922305762,0,0.05
1757394638.4227026,0.122,-0.455,9.811,0.15713479881935763,2.748928255983499,0.9506766917293233,0,0.05
1757394638.450033,0.122,-0.455,9.811,0.15713479881935763,2.748928255983499,0.9506766917293233,0,0.05
1757394638.4767094,0.189,-0.433,9.829,0.15741870123971927,2.7519211422571024,0.9540350877192983,0,0.05
1757394638.5030675,0.189,-0.433,9.829,0.15741870123971927,2.7519211422571024,0.9540350877192983,0,0.05
1757394638.5295475,0.075,-0.441,9.875,0.15746336081768356,2.5936942786858497,0.9597493734335838,0,0.05
1757394638.5568728,0.075,-0.441,9.875,0.15746336081768356,2.5936942786858497,0.9597493734335838,0,0.05
1757394638.5838375,0.348,-0.503,9.675,0.1584218103671335,3.617391198027128,0.9734335839598997,0,0.05
1757394638.611068,0.348,-0.503,9.675,0.1584218103671335,3.617391198027128,0.9734335839598997,0,0.05
1757394638.6380768,0.342,-0.58,9.64,0.15934202207829545,3.995437640849401,0.9737343358395988,0,0.05
1757394638.6650345,0.342,-0.58,9.64,0.15934202207829545,3.995437640849401,0.9737343358395988,0,0.05
1757394638.6919262,0.237,-0.45,9.764,0.15978204686384512,2.981774061420598,0.9789974937343358,0,0.05
1757394638.7193563,0.237,-0.45,9.764,0.15978204686384512,2.981774061420598,0.9789974937343358,0,0.05
1757394638.7464454,0.463,-0.428,9.711,0.1614503793739736,3.714899133413731,0.9903258145363407,0,0.05
1757394638.7739034,0.463,-0.428,9.711,0.1614503793739736,3.714899133413731,0.9903258145363407,0,0.05
1757394638.8014178,0.358,-0.423,9.577,0.16243963494172228,3.311647508021268,0.9955889724310775,0,0.05
1757394638.8298223,0.358,-0.423,9.577,0.16243963494172228,3.311647508021268,0.9955889724310775,0,0.05
1757394638.857819,0.264,-0.437,9.674,0.16297507478139103,3.021031014109331,1.0003007518796994,0,0.05
1757394638.8854904,0.264,-0.437,9.674,0.16297507478139103,3.021031014109331,1.0003007518796994,0,0.05
1757394638.914248,0.433,-0.417,9.436,0.1644068049078261,3.64526436859918,1.0087719298245614,0,0.05
1757394638.9420004,0.433,-0.417,9.436,0.1644068049078261,3.64526436859918,1.0087719298245614,0,0.05
1757394638.9684975,0.453,-0.395,9.453,0.1659596939018628,3.638003364405336,1.0097744360902259,0,0.05
1757394638.99573,0.453,-0.395,9.453,0.1659596939018628,3.638003364405336,1.0097744360902259,0,0.05
1757394639.0220246,0.386,-0.318,9.568,0.16707815536448803,2.9921311305610456,1.0131328320802004,0,0.05
1757394639.048583,0.386,-0.318,9.568,0.16707815536448803,2.9921311305610456,1.0131328320802004,0,0.05
1757394639.0755944,0.355,-0.372,9.743,0.1680183695314295,3.021101396160725,1.0146867167919797,0,0.05
1757394639.1024635,0.355,-0.372,9.743,0.1680183695314295,3.021101396160725,1.0146867167919797,0,0.05
1757394639.1300874,0.074,-0.519,9.779,0.16805910418659264,3.068670437520708,1.0287719298245612,0,0.05
1757394639.157547,0.074,-0.519,9.779,0.16805910418659264,3.068670437520708,1.0287719298245612,0,0.05
1757394639.186361,0.428,-0.493,9.774,0.1694161223142591,3.8214587695141224,1.0465162907268168,0,0.05
1757394639.2142215,0.079,-0.4,9.816,0.16946216391867536,2.378524204403728,1.0640100250626565,0,0.05
1757394639.2413645,0.079,-0.4,9.816,0.16946216391867536,2.378524204403728,1.0640100250626565,0,0.05
1757394639.268642,0.079,-0.4,9.816,0.16946216391867536,2.378524204403728,1.0640100250626565,0,0.05
1757394639.2954898,0.328,-0.493,9.842,0.17025388394982358,3.4430431386147182,1.0764912280701755,0,0.05
1757394639.3229601,0.328,-0.493,9.842,0.17025388394982358,3.4430431386147182,1.0764912280701755,0,0.05
1757394639.3491104,0.204,-0.354,9.82,0.1705591539613163,2.3824869557981923,1.0827067669172934,0,0.05
1757394639.375623,0.204,-0.354,9.82,0.1705591539613163,2.3824869557981923,1.0827067669172934,0,0.05
1757394639.4023945,0.143,-0.364,9.893,0.17070895553543755,2.2637902879500325,1.085764411027569,0,0.05
1757394639.429026,0.143,-0.364,9.893,0.17070895553543755,2.2637902879500325,1.085764411027569,0,0.05
1757394639.4565408,0.03,-0.363,9.975,0.1707155455721593,2.091228771352857,1.0914285714285716,0,0.05
1757394639.4830742,0.03,-0.363,9.975,0.1707155455721593,2.091228771352857,1.0914285714285716,0,0.05
1757394639.509318,0.106,-0.361,9.902,0.17079779711694176,2.1759880952003092,1.0952380952380953,0,0.05
1757394639.5356648,0.106,-0.361,9.902,0.17079779711694176,2.1759880952003092,1.0952380952380953,0,0.05
1757394639.5627933,0.198,-0.202,9.815,0.17108447474858726,1.6507406574759758,1.0998496240601505,0,0.05
1757394639.59001,0.198,-0.202,9.815,0.17108447474858726,1.6507406574759758,1.0998496240601505,0,0.05
1757394639.6170783,0.056,-0.209,9.799,0.17110738587214755,1.2649463220900805,1.1069674185463658,0,0.05
1757394639.6444066,0.056,-0.209,9.799,0.17110738587214755,1.2649463220900805,1.1069674185463658,0,0.05
1757394639.6715822,0.243,-0.289,9.723,0.1715382173161421,2.223915314126393,1.1163408521303257,0,0.05
1757394639.6988635,0.243,-0.289,9.723,0.1715382173161421,2.223915314126393,1.1163408521303257,0,0.05
1757394639.7259688,0.007,-0.117,9.674,0.17153857437905914,0.6941559585970012,1.1281704260651628,0,0.05
1757394639.753481,0.007,-0.117,9.674,0.17153857437905914,0.6941559585970012,1.1281704260651628,0,0.05
1757394639.7803073,0.324,-0.062,9.603,0.1723018354516283,1.9674301572068724,1.1440601503759396,0,0.05
1757394639.8076563,0.324,-0.062,9.603,0.1723018354516283,1.9674301572068724,1.1440601503759396,0,0.05
1757394639.8342178,0.192,-0.144,9.485,0.17256906588377885,1.4494521383382564,1.150676691729323,0,0.05
1757394639.8605602,0.192,-0.144,9.485,0.17256906588377885,1.4494521383382564,1.150676691729323,0,0.05
1757394639.8875341,-0.009,-0.08,9.662,0.17256965260439044,0.47738257219613683,1.160751879699248,0,0.05
1757394639.915055,-0.009,-0.08,9.662,0.17256965260439044,0.47738257219613683,1.160751879699248,0,0.05
1757394639.9421847,0.189,-0.137,9.718,0.17282820227034706,1.3760069760008244,1.170676691729323,0,0.05
1757394639.969885,0.189,-0.137,9.718,0.17282820227034706,1.3760069760008244,1.170676691729323,0,0.05
1757394639.9967632,0.006,-0.27,9.688,0.17282846264432256,1.5967870989328936,1.1798496240601504,0,0.05
1757394640.023905,0.006,-0.27,9.688,0.17282846264432256,1.5967870989328936,1.1798496240601504,0,0.05
1757394640.0506458,0.11,-0.291,9.624,0.17291595501861592,1.8514452460318653,1.1850626566416038,0,0.05
1757394640.076114,0.11,-0.291,9.624,0.17291595501861592,1.8514452460318653,1.1850626566416038,0,0.05
1757394640.1029549,0.005,-0.303,9.752,0.1729161357421568,1.7798809624682528,1.1903258145363407,0,0.05
1757394640.129338,0.005,-0.303,9.752,0.1729161357421568,1.7798809624682528,1.1903258145363407,0,0.05
1757394640.1563835,-0.144,-0.251,9.826,0.17306597008077584,1.6868600992804577,1.1977944862155387,0,0.05
1757394640.1837337,-0.144,-0.251,9.826,0.17306597008077584,1.6868600992804577,1.1977944862155387,0,0.05
1757394640.2105403,0.085,-0.381,9.828,0.17311814607371465,2.2745829786559506,1.2092731829573935,0,0.05
1757394640.2372723,0.085,-0.381,9.828,0.17311814607371465,2.2745829786559506,1.2092731829573935,0,0.05
1757394640.2638006,-0.085,-0.142,9.819,0.17317030634609387,0.965611302541967,1.2177944862155385,0,0.05
1757394640.2911055,-0.085,-0.142,9.819,0.17317030634609387,0.965611302541967,1.2177944862155385,0,0.05
1757394640.3182263,0.104,-0.233,9.814,0.17324836218562067,1.48931280489698,1.2272681704260648,0,0.05
1757394640.3451195,0.104,-0.233,9.814,0.17324836218562067,1.48931280489698,1.2272681704260648,0,0.05
1757394640.3718393,-0.09,-0.202,9.881,0.17330679444268768,1.2820986088367259,1.2369924812030073,0,0.05
1757394640.399034,-0.09,-0.202,9.881,0.17330679444268768,1.2820986088367259,1.2369924812030073,0,0.05
1757394640.426202,-0.043,-0.112,9.862,0.17332013010611316,0.6969664535190239,1.239348370927318,0,0.05
1757394640.453635,-0.043,-0.112,9.862,0.17332013010611316,0.6969664535190239,1.239348370927318,0,0.05
1757394640.4810083,0.109,-0.389,9.713,0.1734057957508918,2.381670855092141,1.2469674185463657,0,0.05
1757394640.5088582,0.109,-0.389,9.713,0.1734057957508918,2.381670855092141,1.2469674185463657,0,0.05
1757394640.5343914,0.051,-0.676,9.656,0.17342454411068808,4.015988715161187,1.249874686716792,0,0.05
1757394640.5615551,0.051,-0.676,9.656,0.17342454411068808,4.015988715161187,1.249874686716792,0,0.05
1757394640.5878506,0.14,-0.29,9.606,0.17356575843178285,1.9200247148779699,1.2543358395989972,0,0.05
1757394640.615114,0.14,-0.29,9.606,0.17356575843178285,1.9200247148779699,1.2543358395989972,0,0.05
1757394640.641749,-0.017,-0.449,9.712,0.17356783976301599,2.648877005377202,1.262205513784461,0,0.05
1757394640.6688564,-0.017,-0.449,9.712,0.17356783976301599,2.648877005377202,1.262205513784461,0,0.05
1757394640.6961417,0.225,-0.492,9.596,0.17393204851320532,3.2268300089439665,1.2743358395989972,0,0.05
1757394640.7236197,0.225,-0.492,9.596,0.17393204851320532,3.2268300089439665,1.2743358395989972,0,0.05
1757394640.7508879,0.273,-0.325,9.655,0.1744668449878085,2.5171713042559425,1.2767418546365912,0,0.05
1757394640.7785785,0.273,-0.325,9.655,0.1744668449878085,2.5171713042559425,1.2767418546365912,0,0.05
1757394640.8057837,0.238,-0.166,9.722,0.17487221048525692,1.7095985804244058,1.2784962406015035,0,0.05
1757394640.8328037,0.238,-0.166,9.722,0.17487221048525692,1.7095985804244058,1.2784962406015035,0,0.05
1757394640.85913,0.404,-0.259,9.652,0.176035024924019,2.8463741021381224,1.2868170426065162,0,0.05
1757394640.8860557,0.404,-0.259,9.652,0.176035024924019,2.8463741021381224,1.2868170426065162,0,0.05
1757394640.913278,0.248,-0.289,9.707,0.1764712157831979,2.24665495414323,1.2946365914786966,0,0.05
1757394640.940356,0.248,-0.289,9.707,0.1764712157831979,2.24665495414323,1.2946365914786966,0,0.05
1757394640.9669504,0.144,-0.251,9.769,0.1766180341867727,1.6966968263542352,1.29984962406015,0,0.05
1757394640.994266,0.144,-0.251,9.769,0.1766180341867727,1.6966968263542352,1.29984962406015,0,0.05
1757394641.0214279,0.332,-0.316,9.658,0.17739642048248888,2.7170777222144675,1.3092731829573931,0,0.05
1757394641.0488799,0.332,-0.316,9.658,0.17739642048248888,2.7170777222144675,1.3092731829573931,0,0.05
1757394641.0759375,0.273,-0.441,9.7,0.17792080401122293,3.060706806539439,1.3122305764411026,0,0.05
1757394641.102757,0.273,-0.441,9.7,0.17792080401122293,3.060706806539439,1.3122305764411026,0,0.05
1757394641.1299431,0.434,-0.258,9.464,0.17923923259152838,3.0537841996262225,1.3203007518796992,0,0.05
1757394641.1572337,0.434,-0.258,9.464,0.17923923259152838,3.0537841996262225,1.3203007518796992,0,0.05
1757394641.1844413,0.28,-0.194,9.564,0.1797851565063145,2.0398390266742377,1.3280200501253132,0,0.05
1757394641.211428,0.28,-0.194,9.564,0.1797851565063145,2.0398390266742377,1.3280200501253132,0,0.05
1757394641.2380533,0.28,-0.194,9.564,0.1797851565063145,2.0398390266742377,1.3280200501253132,0,0.05
1757394641.265342,-0.073,-0.34,9.595,0.17982220385703207,2.0756438599898455,1.3457142857142856,0,0.05
1757394641.292701,0.407,-0.315,9.64,0.18097001823506567,3.05599862257196,1.3697744360902255,0,0.05
1757394641.31899,0.407,-0.315,9.64,0.18097001823506567,3.05599862257196,1.3697744360902255,0,0.05
1757394641.345323,0.059,-0.489,9.665,0.18099406067603435,2.9173760576811967,1.387218045112782,0,0.05
1757394641.3717918,0.059,-0.489,9.665,0.18099406067603435,2.9173760576811967,1.387218045112782,0,0.05
1757394641.3978164,0.22,-0.4,9.703,0.18132801769169596,2.6936757952528674,1.3952882205513786,0,0.05
1757394641.4252899,0.22,-0.4,9.703,0.18132801769169596,2.6936757952528674,1.3952882205513786,0,0.05
1757394641.45239,0.234,-0.364,9.623,0.18170509073771157,2.5747371800712786,1.3959899749373434,0,0.05
1757394641.4796422,0.234,-0.364,9.623,0.18170509073771157,2.5747371800712786,1.3959899749373434,0,0.05
1757394641.5064616,0.337,-0.381,9.637,0.18248469113873636,3.021352211082108,1.4011528822055137,0,0.05
1757394641.5334558,0.337,-0.381,9.637,0.18248469113873636,3.021352211082108,1.4011528822055137,0,0.05
1757394641.5605404,0.15,-0.307,9.666,0.1826387486269001,2.024517945715515,1.4105263157894739,0,0.05
1757394641.5876682,0.15,-0.307,9.666,0.1826387486269001,2.024517945715515,1.4105263157894739,0,0.05
1757394641.6144655,0.11,-0.33,9.673,0.1827215436121313,2.0595247999024293,1.412531328320802,0,0.05
1757394641.6413333,0.11,-0.33,9.673,0.1827215436121313,2.0595247999024293,1.412531328320802,0,0.05
1757394641.6686664,0.272,-0.206,9.639,0.1832269699034506,2.027323956840168,1.4206516290726816,0,0.05
1757394641.6962383,0.272,-0.206,9.639,0.1832269699034506,2.027323956840168,1.4206516290726816,0,0.05
1757394641.7232766,0.192,-0.427,9.716,0.18347828890634443,2.7587520480987853,1.4246616541353385,0,0.05
1757394641.750635,0.192,-0.427,9.716,0.18347828890634443,2.7587520480987853,1.4246616541353385,0,0.05
1757394641.7772815,0.179,-0.256,9.628,0.18369644797872386,1.8582663705089428,1.42531328320802,0,0.05
1757394641.8046482,0.179,-0.256,9.628,0.18369644797872386,1.8582663705089428,1.42531328320802,0,0.05
1757394641.8317633,0.261,-0.133,9.526,0.18415940785091595,1.7613439408851093,1.4294235588972433,0,0.05
1757394641.8578932,0.261,-0.133,9.526,0.18415940785091595,1.7613439408851093,1.4294235588972433,0,0.05
1757394641.8845131,0.258,-0.246,9.566,0.184610664643189,2.1341745723940644,1.4295739348370926,0,0.05
1757394641.9110956,0.258,-0.246,9.566,0.184610664643189,2.1341745723940644,1.4295739348370926,0,0.05
1757394641.9378495,0.195,-0.216,9.589,0.1848679528744774,1.7382371749727576,1.4327318295739349,0,0.05
1757394641.9640644,0.195,-0.216,9.589,0.1848679528744774,1.7382371749727576,1.4327318295739349,0,0.05
1757394641.9912112,-0.028,-0.13,9.618,0.1848732538795161,0.7921372584253527,1.4439097744360903,0,0.05
1757394642.018561,-0.028,-0.13,9.618,0.1848732538795161,0.7921372584253527,1.4439097744360903,0,0.05
1757394642.0463998,0.336,-0.081,9.553,0.1856350182481743,2.0720454155282284,1.4621553884711775,0,0.05
1757394642.0741045,0.336,-0.081,9.553,0.1856350182481743,2.0720454155282284,1.4621553884711775,0,0.05
1757394642.1003413,0.05,-0.18,9.559,0.1856518515932443,1.119612146130905,1.4764912280701752,0,0.05
1757394642.1270132,0.05,-0.18,9.559,0.1856518515932443,1.119612146130905,1.4764912280701752,0,0.05
1757394642.1540825,0.197,-0.217,9.718,0.18591297023069694,1.727450628835152,1.4838596491228069,0,0.05
1757394642.1810787,0.197,-0.217,9.718,0.18591297023069694,1.727450628835152,1.4838596491228069,0,0.05
1757394642.2082055,0.174,-0.215,9.706,0.18611642189769284,1.632294004953677,1.4850125313283207,0,0.05
1757394642.2351997,0.174,-0.215,9.706,0.18611642189769284,1.632294004953677,1.4850125313283207,0,0.05
1757394642.2622476,0.104,-0.229,9.613,0.18618905042993267,1.4987145366074885,1.488521303258145,0,0.05
1757394642.2897,0.104,-0.229,9.613,0.18618905042993267,1.4987145366074885,1.488521303258145,0,0.05
1757394642.3171093,0.185,-0.252,9.714,0.18641868200370904,1.8432591454890976,1.4925814536340851,0,0.05
1757394642.3442352,0.185,-0.252,9.714,0.18641868200370904,1.8432591454890976,1.4925814536340851,0,0.05
1757394642.371316,0.169,-0.147,9.659,0.18661009485019828,1.3284178048032065,1.4933834586466166,0,0.05
1757394642.3985581,0.169,-0.147,9.659,0.18661009485019828,1.3284178048032065,1.4933834586466166,0,0.05
1757394642.425798,0.121,-0.188,9.666,0.186708141225818,1.3250072663753514,1.4957894736842103,0,0.05
1757394642.4532652,0.121,-0.188,9.666,0.186708141225818,1.3250072663753514,1.4957894736842103,0,0.05
1757394642.4797578,0.348,-0.337,9.66,0.18751717254694303,2.8708691975012477,1.5071679197994985,0,0.05
1757394642.506726,0.348,-0.337,9.66,0.18751717254694303,2.8708691975012477,1.5071679197994985,0,0.05
1757394642.5336342,0.148,-0.199,9.713,0.18766312903711269,1.4626152746869057,1.5171929824561403,0,0.05
1757394642.561236,0.148,-0.199,9.713,0.18766312903711269,1.4626152746869057,1.5171929824561403,0,0.05
1757394642.5881248,0.116,-0.283,9.63,0.1877527363315912,1.8191171675424096,1.518796992481203,0,0.05
1757394642.6150935,0.245,-0.458,9.678,0.18815193993153514,3.072081072437974,1.5252631578947367,0,0.05
1757394642.6425035,0.245,-0.458,9.678,0.18815193993153514,3.072081072437974,1.5252631578947367,0,0.05
1757394642.669833,0.214,-0.408,9.725,0.18845594312729966,2.712329929112719,1.5268170426065162,0,0.05
1757394642.6967535,0.214,-0.408,9.725,0.18845594312729966,2.712329929112719,1.5268170426065162,0,0.05
1757394642.7239227,0.214,-0.408,9.725,0.18845594312729966,2.712329929112719,1.5268170426065162,0,0.05
1757394642.7511003,0.385,-0.47,9.723,0.18943654610449379,3.5755658998625024,1.5353884711779449,0,0.05
1757394642.7784417,0.568,-0.583,9.579,0.19155355647964356,4.856883369891464,1.5445614035087718,0,0.05
1757394642.8055515,0.568,-0.583,9.579,0.19155355647964356,4.856883369891464,1.5445614035087718,0,0.05
1757394642.8324883,0.568,-0.583,9.579,0.19155355647964356,4.856883369891464,1.5445614035087718,0,0.05
1757394642.859517,0.559,-0.638,9.721,0.19358194001507475,4.986961159281036,1.5450125313283205,0,0.05
1757394642.8869247,0.467,-0.491,9.681,0.19498510199499858,4.003883399848944,1.549624060150376,0,0.05
1757394642.914049,0.467,-0.491,9.681,0.19498510199499858,4.003883399848944,1.549624060150376,0,0.05
1757394642.9406202,0.609,-0.685,9.605,0.1973484038445713,5.451038073961991,1.5567418546365916,0,0.05
1757394642.96861,0.609,-0.685,9.605,0.1973484038445713,5.451038073961991,1.5567418546365916,0,0.05
1757394642.9959357,0.561,-0.58,9.681,0.1993318715108048,4.764644929769812,1.5591478696741856,0,0.05
1757394643.0233512,0.561,-0.58,9.681,0.1993318715108048,4.764644929769812,1.5591478696741856,0,0.05
1757394643.050223,0.454,-0.595,9.714,0.20062025072260278,4.405711741198403,1.5645112781954884,0,0.05
1757394643.0772812,0.454,-0.595,9.714,0.20062025072260278,4.405711741198403,1.5645112781954884,0,0.05
1757394643.1045697,0.387,-0.55,9.633,0.20155125278697725,3.9935157693491545,1.5678696741854634,0,0.05
1757394643.1317956,0.387,-0.55,9.633,0.20155125278697725,3.9935157693491545,1.5678696741854634,0,0.05
1757394643.1587565,0.381,-0.387,9.678,0.20244952457341062,3.2117465965530534,1.5681704260651625,0,0.05
1757394643.1857536,0.381,-0.387,9.678,0.20244952457341062,3.2117465965530534,1.5681704260651625,0,0.05
1757394643.2123282,0.333,-0.244,9.737,0.20313304137928914,2.4277507279201074,1.5705764411027565,0,0.05
1757394643.2388866,0.333,-0.244,9.737,0.20313304137928914,2.4277507279201074,1.5705764411027565,0,0.05
1757394643.2659593,0.121,-0.419,9.703,0.20322311630323947,2.5735460079971606,1.5812030075187968,0,0.05
1757394643.2936351,0.121,-0.419,9.703,0.20322311630323947,2.5735460079971606,1.5812030075187968,0,0.05
1757394643.3207967,0.121,-0.419,9.703,0.20322311630323947,2.5735460079971606,1.5812030075187968,0,0.05
1757394643.347976,0.202,-0.345,9.849,0.20347394182056827,2.3244485131894517,1.5852631578947365,0,0.05
1757394643.37536,0.017,-0.182,9.953,0.20347571722443933,1.052149716849986,1.5945363408521305,0,0.05
1757394643.402493,0.017,-0.182,9.953,0.20347571722443933,1.052149716849986,1.5945363408521305,0,0.05
1757394643.4294403,0.11,-0.319,9.886,0.20355003684598044,1.9548838292977682,1.5991979949874688,0,0.05
1757394643.4563053,0.11,-0.319,9.886,0.20355003684598044,1.9548838292977682,1.5991979949874688,0,0.05
1757394643.4832096,-0.081,-0.236,9.938,0.20359032393510257,1.4382239127396,1.6087719298245617,0,0.05
1757394643.5095525,-0.081,-0.236,9.938,0.20359032393510257,1.4382239127396,1.6087719298245617,0,0.05
1757394643.5357676,-0.011,0.019,9.882,0.20359106684724654,0.1272918468000915,1.612280701754386,0,0.05
1757394643.5627835,-0.011,0.019,9.882,0.20359106684724654,0.1272918468000915,1.612280701754386,0,0.05
1757394643.5894845,0.122,-0.113,9.761,0.203682430513778,0.9760171199947367,1.6189473684210525,0,0.05
1757394643.6173022,0.122,-0.113,9.761,0.203682430513778,0.9760171199947367,1.6189473684210525,0,0.05
1757394643.6443784,0.031,-0.252,9.899,0.2036883280897558,1.469258094690971,1.6235087719298245,0,0.05
1757394643.6716263,0.031,-0.252,9.899,0.2036883280897558,1.469258094690971,1.6235087719298245,0,0.05
1757394643.6987426,0.095,-0.061,9.896,0.20374370542424128,0.6536286233521424,1.6267167919799501,0,0.05
1757394643.7249644,0.095,-0.061,9.896,0.20374370542424128,0.6536286233521424,1.6267167919799501,0,0.05
1757394643.7519748,-0.087,-0.143,9.808,0.2037901371509426,0.9777291924386685,1.6358395989974936,0,0.05
1757394643.7791815,-0.087,-0.143,9.808,0.2037901371509426,0.9777291924386685,1.6358395989974936,0,0.05
1757394643.8062646,0.223,-0.328,9.769,0.20409493501799597,2.324964726865105,1.6513784461152878,0,0.05
1757394643.8339763,0.223,-0.328,9.769,0.20409493501799597,2.324964726865105,1.6513784461152878,0,0.05
1757394643.8623533,0.102,-0.319,9.972,0.20415864542066298,1.923560427994501,1.6574436090225562,0,0.05
1757394643.8897896,0.102,-0.319,9.972,0.20415864542066298,1.923560427994501,1.6574436090225562,0,0.05
1757394643.9175184,0.134,-0.139,9.667,0.2042685548487579,1.1441781628773307,1.659047619047619,0,0.05
1757394643.9448252,0.134,-0.139,9.667,0.2042685548487579,1.1441781628773307,1.659047619047619,0,0.05
1757394643.9723706,0.284,-0.317,9.607,0.20476152592711358,2.5366709228071342,1.6665664160401001,0,0.05
1757394643.9996538,0.284,-0.317,9.607,0.20476152592711358,2.5366709228071342,1.6665664160401001,0,0.05
1757394644.0262856,0.248,-0.309,9.742,0.20513664348428828,2.3289721847102114,1.6683709273182956,0,0.05
1757394644.0540287,0.248,-0.309,9.742,0.20513664348428828,2.3289721847102114,1.6683709273182956,0,0.05
1757394644.0806932,0.253,-0.086,9.644,0.2055263121841094,1.5871524273611552,1.6686215538847118,0,0.05
1757394644.1078596,0.253,-0.086,9.644,0.2055263121841094,1.5871524273611552,1.6686215538847118,0,0.05
1757394644.1349092,0.292,-0.366,9.51,0.20604423068846164,2.8185884708058717,1.670576441102757,0,0.05
1757394644.1623642,0.292,-0.366,9.51,0.20604423068846164,2.8185884708058717,1.670576441102757,0,0.05
1757394644.1896348,0.374,-0.357,9.607,0.20689107037279306,3.0806038417822963,1.6746867167919797,0,0.05
1757394644.2160685,0.374,-0.357,9.607,0.20689107037279306,3.0806038417822963,1.6746867167919797,0,0.05
1757394644.2432742,0.272,-0.266,9.607,0.207337587041038,2.267786960115271,1.6797994987468672,0,0.05
1757394644.2707407,0.272,-0.266,9.607,0.207337587041038,2.267786960115271,1.6797994987468672,0,0.05
1757394644.2971113,0.272,-0.266,9.607,0.207337587041038,2.267786960115271,1.6797994987468672,0,0.05
1757394644.3242865,0.32,-0.407,9.583,0.2079540213604921,3.0924752118357475,1.6822055137844614,0,0.05
1757394644.351411,0.32,-0.407,9.583,0.2079540213604921,3.0924752118357475,1.6822055137844614,0,0.05
1757394644.3788378,0.209,-0.455,9.767,0.208216419861643,2.934700488337898,1.6877694235588971,0,0.05
1757394644.4061866,0.414,-0.411,9.743,0.20924284336626667,3.426522308683967,1.6980451127819551,0,0.05
1757394644.4334989,0.414,-0.411,9.743,0.20924284336626667,3.426522308683967,1.6980451127819551,0,0.05
1757394644.4605453,0.082,-0.266,9.78,0.2092830081492523,1.6302768365844322,1.71468671679198,0,0.05
1757394644.4872675,0.082,-0.266,9.78,0.2092830081492523,1.6302768365844322,1.71468671679198,0,0.05
1757394644.5144083,0.271,-0.224,9.841,0.20972119587681165,2.046151654990917,1.7241604010025062,0,0.05
1757394644.5418875,0.271,-0.224,9.841,0.20972119587681165,2.046151654990917,1.7241604010025062,0,0.05
1757394644.5691946,0.182,-0.179,9.785,0.2099185318165121,1.4944125432991895,1.7286215538847118,0,0.05
1757394644.595705,0.182,-0.179,9.785,0.2099185318165121,1.4944125432991895,1.7286215538847118,0,0.05
1757394644.6228347,0.225,-0.015,9.956,0.21021977190549893,1.2975048043051687,1.7307769423558896,0,0.05
1757394644.6499226,0.225,-0.015,9.956,0.21021977190549893,1.2975048043051687,1.7307769423558896,0,0.05
1757394644.6773005,0.105,-0.245,10.086,0.21028531807998388,1.5138562265325577,1.7367919799498746,0,0.05
1757394644.705495,0.105,-0.245,10.086,0.21028531807998388,1.5138562265325577,1.7367919799498746,0,0.05
1757394644.7326376,0.24,-0.007,10.076,0.21062743173670423,1.365048813026971,1.7435588972431078,0,0.05
1757394644.759841,0.24,-0.007,10.076,0.21062743173670423,1.365048813026971,1.7435588972431078,0,0.05
1757394644.7869942,0.176,-0.038,9.934,0.2108111832896917,1.0383826674240046,1.746766917293233,0,0.05
1757394644.813076,0.176,-0.038,9.934,0.2108111832896917,1.0383826674240046,1.746766917293233,0,0.05
1757394644.8398128,0.325,-0.244,10.04,0.21143655667835684,2.3179584455030224,1.754235588972431,0,0.05
1757394644.8668768,0.325,-0.244,10.04,0.21143655667835684,2.3179584455030224,1.754235588972431,0,0.05
1757394644.8941996,0.115,-0.256,9.928,0.21151472761961518,1.619201273578374,1.7647619047619045,0,0.05
1757394644.9218676,0.115,-0.256,9.928,0.21151472761961518,1.619201273578374,1.7647619047619045,0,0.05
1757394644.949669,0.191,-0.222,9.881,0.21173021159012712,1.6976558774664487,1.7685714285714282,0,0.05
1757394644.9773228,0.191,-0.222,9.881,0.21173021159012712,1.6976558774664487,1.7685714285714282,0,0.05
1757394645.0051732,0.245,-0.308,9.83,0.21208428748966765,2.2927015056961557,1.7712781954887216,0,0.05
1757394645.0326,0.245,-0.308,9.83,0.21208428748966765,2.2927015056961557,1.7712781954887216,0,0.05
1757394645.0599663,-0.019,-0.31,10.078,0.21208641517079777,1.7651707669471155,1.7845112781954884,0,0.05
1757394645.0863872,-0.019,-0.31,10.078,0.21208641517079777,1.7651707669471155,1.7845112781954884,0,0.05
1757394645.1123238,0.158,-0.098,9.93,0.21223349759168558,1.0726542749882533,1.7933834586466164,0,0.05
1757394645.1397476,0.158,-0.098,9.93,0.21223349759168558,1.0726542749882533,1.7933834586466164,0,0.05
1757394645.1667218,0.091,-0.161,9.841,0.21228226492102442,1.0766090704257938,1.7967418546365914,0,0.05
1757394645.1935787,0.091,-0.161,9.841,0.21228226492102442,1.0766090704257938,1.7967418546365914,0,0.05
1757394645.2206712,0.108,-0.215,9.987,0.21235093595272897,1.3800715598822113,1.797593984962406,0,0.05
1757394645.2478917,0.108,-0.215,9.987,0.21235093595272897,1.3800715598822113,1.797593984962406,0,0.05
1757394645.2756922,0.099,-0.252,9.903,0.2124086215293532,1.566081929844055,1.7980451127819546,0,0.05
1757394645.302995,0.099,-0.252,9.903,0.2124086215293532,1.566081929844055,1.7980451127819546,0,0.05
1757394645.3294692,0.1,-0.396,9.738,0.21246746221480595,2.401691646129319,1.798095238095238,0,0.05
1757394645.3557053,0.1,-0.396,9.738,0.21246746221480595,2.401691646129319,1.798095238095238,0,0.05
1757394645.382421,0.208,-0.363,9.688,0.21272184302511107,2.4727415071875654,1.8035087719298246,0,0.05
1757394645.4093332,0.208,-0.363,9.688,0.21272184302511107,2.4727415071875654,1.8035087719298246,0,0.05
1757394645.4366553,0.146,-0.311,9.752,0.21284706363960015,2.017708577935279,1.8066165413533832,0,0.05
1757394645.4640324,0.146,-0.311,9.752,0.21284706363960015,2.017708577935279,1.8066165413533832,0,0.05
1757394645.491292,0.151,-0.242,9.726,0.21298092637604898,1.6798972143874111,1.8068671679197996,0,0.05
1757394645.5184658,0.151,-0.242,9.726,0.21298092637604898,1.6798972143874111,1.8068671679197996,0,0.05
1757394645.5462668,0.078,-0.164,9.657,0.21301663080614153,1.0773443522431672,1.8105263157894735,0,0.05
1757394645.5736444,0.078,-0.164,9.657,0.21301663080614153,1.0773443522431672,1.8105263157894735,0,0.05
1757394645.6003957,0.112,-0.344,9.723,0.21309022736859615,2.130878524022426,1.812230576441103,0,0.05
1757394645.6277282,0.112,-0.344,9.723,0.21309022736859615,2.130878524022426,1.812230576441103,0,0.05
1757394645.6545146,0.114,-0.224,9.725,0.21316644904862492,1.48046678337711,1.8123308270676688,0,0.05
1757394645.6808634,0.114,-0.224,9.725,0.21316644904862492,1.48046678337711,1.8123308270676688,0,0.05
1757394645.7067463,0.083,-0.214,9.72,0.21320684205719104,1.3527550142944813,1.8138847117794485,0,0.05
1757394645.7339933,0.083,-0.214,9.72,0.21320684205719104,1.3527550142944813,1.8138847117794485,0,0.05
1757394645.7613847,0.442,-0.205,9.825,0.2143491719134926,2.838995738813021,1.8318796992481206,0,0.05
1757394645.7892594,0.442,-0.205,9.825,0.2143491719134926,2.838995738813021,1.8318796992481206,0,0.05
1757394645.81594,0.095,-0.088,9.827,0.2144017957014353,0.7549707443753527,1.8492731829573938,0,0.05
1757394645.8423042,0.095,-0.088,9.827,0.2144017957014353,0.7549707443753527,1.8492731829573938,0,0.05
1757394645.8689272,0.277,-0.339,9.866,0.21484867348903974,2.5406868896987267,1.8583959899749374,0,0.05
1757394645.8956273,0.277,-0.339,9.866,0.21484867348903974,2.5406868896987267,1.8583959899749374,0,0.05
1757394645.922612,0.482,-0.349,9.851,0.21619612045547904,3.4569505473869504,1.8686716791979952,0,0.05
1757394645.9491928,0.482,-0.349,9.851,0.21619612045547904,3.4569505473869504,1.8686716791979952,0,0.05
1757394645.9762747,0.406,-0.32,10.009,0.21714707573439712,2.9566076876041474,1.8724812030075184,0,0.05
1757394646.0034573,0.406,-0.32,10.009,0.21714707573439712,2.9566076876041474,1.8724812030075184,0,0.05
1757394646.0306468,0.405,-0.261,9.872,0.21808923632311614,2.7941750251653192,1.8725313283208016,0,0.05
1757394646.0572762,0.405,-0.261,9.872,0.21808923632311614,2.7941750251653192,1.8725313283208016,0,0.05
1757394646.0844934,0.359,-0.435,9.784,0.2188266837019654,3.2992235753544277,1.8748370927318296,0,0.05
1757394646.1113915,0.359,-0.435,9.784,0.2188266837019654,3.2992235753544277,1.8748370927318296,0,0.05
1757394646.1383483,0.573,-0.236,9.85,0.2206942228514376,3.599930672571735,1.8855639097744359,0,0.05
1757394646.1651456,0.573,-0.236,9.85,0.2206942228514376,3.599930672571735,1.8855639097744359,0,0.05
1757394646.192408,0.269,-0.297,9.95,0.22110369173760985,2.3062008574658996,1.9008020050125312,0,0.05
1757394646.2195878,0.269,-0.297,9.95,0.22110369173760985,2.3062008574658996,1.9008020050125312,0,0.05
1757394646.2467215,0.442,-0.376,9.834,0.2222054286015533,3.377042013265177,1.909473684210526,0,0.65
1757394646.2744427,0.442,-0.376,9.834,0.2222054286015533,3.377042013265177,1.909473684210526,0,0.65
1757394646.3013678,0.341,-0.37,9.894,0.22285859866740615,2.911335715812326,1.91453634085213,0,0.65
1757394646.3285627,0.341,-0.37,9.894,0.22285859866740615,2.911335715812326,1.91453634085213,0,0.65
1757394646.3551977,0.341,-0.37,9.894,0.22285859866740615,2.911335715812326,1.91453634085213,0,0.65
1757394646.382742,0.502,-0.395,9.757,0.22426761915176252,3.745695948985265,1.9226065162907267,0,0.65
1757394646.4102912,0.171,-0.388,9.673,0.22443054047967714,2.509922105523035,1.9391979949874687,0,0.65
1757394646.4378545,0.171,-0.388,9.673,0.22443054047967714,2.509922105523035,1.9391979949874687,0,0.65
1757394646.4646764,0.171,-0.388,9.673,0.22443054047967714,2.509922105523035,1.9391979949874687,0,0.65
1757394646.4917006,0.171,-0.388,9.673,0.22443054047967714,2.509922105523035,1.9391979949874687,0,0.65
1757394646.5190587,0.171,-0.388,9.673,0.22443054047967714,2.509922105523035,1.9391979949874687,0,0.65
1757394646.5463777,0.171,-0.388,9.673,0.22443054047967714,2.509922105523035,1.9391979949874687,0,0.65
1757394646.5739768,0.171,-0.388,9.673,0.22443054047967714,2.509922105523035,1.9391979949874687,0,0.65
1757394646.6016269,0.171,-0.388,9.673,0.22443054047967714,2.509922105523035,1.9391979949874687,0,0.65
1757394646.6288877,0.102,-0.277,9.799,0.22448847965987032,1.7254441013288466,1.9426566416040099,0,0.65
1757394646.6563118,0.179,-0.388,9.687,0.2246668199801653,2.5257155729276572,1.9465162907268172,0,0.65
1757394646.6841815,0.134,-0.245,9.836,0.22476670127045065,1.6262296244768175,1.948771929824561,0,0.65
1757394646.7112634,0.122,-0.034,9.868,0.22484946075096557,0.7353122981171423,1.9493734335839599,0,0.65
1757394646.7386014,0.072,-0.227,9.728,0.22487827818622233,1.4023410522041995,1.9518796992481202,0,0.65
1757394646.7659755,0.072,-0.227,9.728,0.22487827818622233,1.4023410522041995,1.9518796992481202,0,0.65
1757394646.79359,-0.019,-0.351,9.722,0.22488028481838954,2.0707150360727526,1.956441102756892,0,0.65
1757394646.820251,-0.019,-0.351,9.722,0.22488028481838954,2.0707150360727526,1.956441102756892,0,0.65
1757394646.8468728,0.082,-0.045,9.782,0.22491765715479078,0.5478490922993557,1.9615037593984963,0,0.65
1757394646.8744013,0.082,-0.045,9.782,0.22491765715479078,0.5478490922993557,1.9615037593984963,0,0.65
1757394646.9012825,-0.142,-0.167,9.593,0.22502969248523627,1.3090398463396962,1.9727318295739347,0,0.65
1757394646.9289622,-0.142,-0.167,9.593,0.22502969248523627,1.3090398463396962,1.9727318295739347,0,0.65
1757394646.956258,0.157,-0.314,9.657,0.2251665716752822,2.081967043415329,1.987719298245614,0,0.65
1757394646.9839575,0.157,-0.314,9.657,0.2251665716752822,2.081967043415329,1.987719298245614,0,0.65
1757394647.0115685,0.035,-0.296,9.809,0.2251733720935937,1.7404878769553516,1.9938345864661653,0,0.65
1757394647.039107,0.035,-0.296,9.809,0.2251733720935937,1.7404878769553516,1.9938345864661653,0,0.65
1757394647.0666301,-0.036,-0.073,9.727,0.22518056643502787,0.479431452053898,1.9973934837092733,0,0.65
1757394647.0933812,-0.036,-0.073,9.727,0.22518056643502787,0.479431452053898,1.9973934837092733,0,0.65
1757394647.1208863,0.279,-0.336,9.765,0.22561225587276945,2.5608169710065547,2.0131829573934836,0,0.65
1757394647.148658,0.279,-0.336,9.765,0.22561225587276945,2.5608169710065547,2.0131829573934836,0,0.65
1757394647.1764252,0.168,-0.358,9.788,0.2257685762013837,2.31363179244096,2.01874686716792,0,0.65
1757394647.204139,0.168,-0.358,9.788,0.2257685762013837,2.31363179244096,2.01874686716792,0,0.65
1757394647.230914,0.097,-0.184,9.819,0.22582066446629723,1.2135530781176371,2.0223057644110276,0,0.65
1757394647.2574415,0.097,-0.184,9.819,0.22582066446629723,1.2135530781176371,2.0223057644110276,0,0.65
1757394647.2843719,0.138,-0.463,9.763,0.22592605538095867,2.833007567968024,2.0243609022556392,0,0.65
1757394647.3116853,0.138,-0.463,9.763,0.22592605538095867,2.833007567968024,2.0243609022556392,0,0.65
1757394647.3388798,0.265,-0.451,9.835,0.2263142615921498,3.044513705047712,2.0307268170426065,0,0.65
1757394647.3663545,0.265,-0.451,9.835,0.2263142615921498,3.044513705047712,2.0307268170426065,0,0.65
1757394647.3932805,0.203,-0.171,9.731,0.22654175663660772,1.562420720918521,2.0338345864661656,0,0.65
1757394647.420631,0.203,-0.171,9.731,0.22654175663660772,1.562420720918521,2.0338345864661656,0,0.65
1757394647.4474974,0.203,-0.2,9.754,0.22676902345779065,1.673471965749126,2.0338345864661656,0,0.65
1757394647.47445,0.203,-0.2,9.754,0.22676902345779065,1.673471965749126,2.0338345864661656,0,0.65
1757394647.501016,0.395,-0.295,9.783,0.22762744232627138,2.8849026488271825,2.043458646616541,0,0.65
1757394647.528382,0.395,-0.295,9.783,0.22762744232627138,2.8849026488271825,2.043458646616541,0,0.65
1757394647.5556931,0.246,-0.396,9.902,0.22795951943272735,2.695510189097545,2.0509273182957393,0,0.65
1757394647.583168,0.246,-0.396,9.902,0.22795951943272735,2.695510189097545,2.0509273182957393,0,0.65
1757394647.609393,0.31,-0.264,9.817,0.22848586936613827,2.3751005770501648,2.0541353383458643,0,0.65
1757394647.6365738,0.31,-0.264,9.817,0.22848586936613827,2.3751005770501648,2.0541353383458643,0,0.65
1757394647.6642485,0.42,-0.346,9.936,0.22944888864407254,3.134789172603309,2.0596491228070177,0,0.65
1757394647.6915724,0.42,-0.346,9.936,0.22944888864407254,3.134789172603309,2.0596491228070177,0,0.65
1757394647.7181914,0.226,-0.367,9.892,0.2297269738189227,2.494858218421476,2.0693734335839595,0,0.65
1757394647.7458198,0.226,-0.367,9.892,0.2297269738189227,2.494858218421476,2.0693734335839595,0,0.65
1757394647.7734416,0.4,-0.323,9.743,0.2305959290620717,3.0206451735247124,2.078095238095238,0,0.65
1757394647.801192,0.302,-0.341,9.852,0.23108979315408978,2.6471735246131045,2.0830075187969923,0,0.65
1757394647.8275955,0.302,-0.341,9.852,0.23108979315408978,2.6471735246131045,2.0830075187969923,0,0.65
1757394647.854586,0.244,-0.335,9.795,0.23141160839508462,2.4228219883201088,2.0859147869674186,0,0.65
1757394647.8820555,0.244,-0.335,9.795,0.23141160839508462,2.4228219883201088,2.0859147869674186,0,0.65
1757394647.9087336,0.243,-0.361,9.602,0.23173034976023318,2.5948929515937493,2.085964912280702,0,0.65
1757394647.9359334,0.243,-0.361,9.602,0.23173034976023318,2.5948929515937493,2.085964912280702,0,0.65
1757394647.963419,0.379,-0.473,9.66,0.23250388706428113,3.590280678595687,2.092781954887218,0,0.65
1757394647.991025,0.379,-0.473,9.66,0.23250388706428113,3.590280678595687,2.092781954887218,0,0.65
1757394648.0187154,0.075,-0.583,9.72,0.23253412652769917,3.4606733963781666,2.108020050125313,0,0.65
1757394648.046561,0.075,-0.583,9.72,0.23253412652769917,3.4606733963781666,2.108020050125313,0,0.65
1757394648.0728037,0.364,-0.447,9.65,0.23324527862316957,3.418597454512191,2.1225062656641605,0,0.65
1757394648.1005318,0.364,-0.447,9.65,0.23324527862316957,3.418597454512191,2.1225062656641605,0,0.65
1757394648.1280723,0.182,-0.507,9.746,0.23342272811360934,3.163610878289983,2.1316290726817044,0,0.65
1757394648.1563728,0.182,-0.507,9.746,0.23342272811360934,3.163610878289983,2.1316290726817044,0,0.65
1757394648.1836853,0.081,-0.58,9.998,0.2334578602232103,3.352246297268552,2.1366917293233083,0,0.65
1757394648.2098117,0.081,-0.58,9.998,0.2334578602232103,3.352246297268552,2.1366917293233083,0,0.65
1757394648.2373867,0.322,-0.302,9.943,0.23401235544304066,2.542216965125151,2.1487719298245613,0,0.65
1757394648.2651837,0.322,-0.302,9.943,0.23401235544304066,2.542216965125151,2.1487719298245613,0,0.65
1757394648.292525,-0.022,-0.293,9.974,0.2340149407623368,1.6873924429182625,2.1660150375939846,0,0.65
1757394648.3196876,-0.022,-0.293,9.974,0.2340149407623368,1.6873924429182625,2.1660150375939846,0,0.65
1757394648.3470347,0.242,-0.385,9.988,0.23432755386424362,2.6068017684933786,2.179248120300752,0,0.65
1757394648.3746083,0.242,-0.385,9.988,0.23432755386424362,2.6068017684933786,2.179248120300752,0,0.65
1757394648.4017844,0.08,-0.324,9.925,0.2343616916221591,1.9258582842144263,2.1873684210526316,0,0.65
1757394648.4292362,0.08,-0.324,9.925,0.2343616916221591,1.9258582842144263,2.1873684210526316,0,0.65
1757394648.4568315,0.145,-0.284,9.784,0.23447380450702804,1.866690830053504,2.19062656641604,0,0.65
1757394648.4837897,0.145,-0.284,9.784,0.23447380450702804,1.866690830053504,2.19062656641604,0,0.65
1757394648.510301,0.154,-0.399,9.861,0.2346002024722059,2.483456818440531,2.191077694235589,0,0.65
1757394648.5378885,0.154,-0.399,9.861,0.2346002024722059,2.483456818440531,2.191077694235589,0,0.65
1757394648.5657222,0.171,-0.324,9.694,0.23475595306615762,2.1642964618124783,2.191929824561403,0,0.65
1757394648.5928824,0.171,-0.324,9.694,0.23475595306615762,2.1642964618124783,2.191929824561403,0,0.65
1757394648.6204066,0.171,-0.324,9.694,0.23475595306615762,2.1642964618124783,2.191929824561403,0,0.65
1757394648.6479135,0.197,-0.24,9.677,0.23496250764749682,1.8377723290586645,2.1932330827067665,0,0.65
1757394648.6751804,0.056,-0.277,9.656,0.23497919056801606,1.676407782663532,2.200300751879699,0,0.65
1757394648.7025728,0.056,-0.277,9.656,0.23497919056801606,1.676407782663532,2.200300751879699,0,0.65
1757394648.729402,0.06,-0.376,9.758,0.2349983404196719,2.234547584096645,2.200501253132832,0,0.65
1757394648.7563343,0.06,-0.376,9.758,0.2349983404196719,2.234547584096645,2.200501253132832,0,0.65
1757394648.783869,0.166,-0.234,9.654,0.23514487023960357,1.7022334119745859,2.205814536340852,0,0.65
1757394648.8111236,0.166,-0.234,9.654,0.23514487023960357,1.7022334119745859,2.205814536340852,0,0.65
1757394648.8384757,0.159,-0.514,9.714,0.23527922241456,3.170210163482658,2.206165413533834,0,0.65
1757394648.8660388,0.159,-0.514,9.714,0.23527922241456,3.170210163482658,2.206165413533834,0,0.65
1757394648.8937626,0.216,-0.674,9.781,0.23552696767037104,4.138781175614396,2.209022556390977,0,0.65
1757394648.9210172,0.216,-0.674,9.781,0.23552696767037104,4.138781175614396,2.209022556390977,0,0.65
1757394648.9484184,0.216,-0.674,9.781,0.23552696767037104,4.138781175614396,2.209022556390977,0,0.65
1757394648.9755304,0.248,-0.527,9.678,0.235853158766212,3.443995458471379,2.21062656641604,0,0.65
1757394649.0023468,-0.021,-0.555,9.587,0.23585549601397887,3.315571577946751,2.2241102756892226,0,0.65
1757394649.0299919,-0.021,-0.555,9.587,0.23585549601397887,3.315571577946751,2.2241102756892226,0,0.65
1757394649.0573518,0.265,-0.569,9.703,0.2362273851609927,3.701282962867716,2.23844611528822,0,0.65
1757394649.0849106,0.265,-0.569,9.703,0.2362273851609927,3.701282962867716,2.23844611528822,0,0.65
1757394649.1123683,0.153,-0.506,9.771,0.23635122170194087,3.096767531563392,2.2440601503759394,0,0.65
1757394649.139755,0.153,-0.506,9.771,0.23635122170194087,3.096767531563392,2.2440601503759394,0,0.65
1757394649.1674423,0.019,-0.335,9.858,0.23635313092912477,1.949433313391187,2.25077694235589,0,0.65
1757394649.1950324,0.019,-0.335,9.858,0.23635313092912477,1.949433313391187,2.25077694235589,0,0.65
1757394649.2227361,0.087,-0.458,9.96,0.23639315768439662,2.679842548484468,2.2541854636591476,0,0.65
1757394649.2501721,0.087,-0.458,9.96,0.23639315768439662,2.679842548484468,2.2541854636591476,0,0.65
1757394649.2774827,0.13,-0.42,9.967,0.23648250463829246,2.525763319618807,2.256340852130326,0,0.65
1757394649.3053482,0.13,-0.42,9.967,0.23648250463829246,2.525763319618807,2.256340852130326,0,0.65
1757394649.3328574,0.159,-0.43,9.86,0.23661609729686608,2.6621331121283247,2.2577944862155386,0,0.65
1757394649.3603015,0.159,-0.43,9.86,0.23661609729686608,2.6621331121283247,2.2577944862155386,0,0.65
1757394649.3877096,0.139,-0.667,10.049,0.23671814463618965,3.878759736938069,2.2587969924812032,0,0.65
1757394649.4159696,0.139,-0.667,10.049,0.23671814463618965,3.878759736938069,2.2587969924812032,0,0.65
1757394649.443349,0.19,-0.517,9.945,0.23690869549258847,3.170109601030916,2.2613533834586463,0,0.65
1757394649.4708843,0.19,-0.517,9.945,0.23690869549258847,3.170109601030916,2.2613533834586463,0,0.65
1757394649.4983642,0.069,-0.512,9.944,0.2369338145980856,2.9740589950586145,2.2674185463659144,0,0.65
1757394649.5262463,0.069,-0.512,9.944,0.2369338145980856,2.9740589950586145,2.2674185463659144,0,0.65
1757394649.554669,0.07,-0.626,9.896,0.2369596642890937,3.6420855428538332,2.267468671679198,0,0.65
1757394649.5821226,0.07,-0.626,9.896,0.2369596642890937,3.6420855428538332,2.267468671679198,0,0.65
1757394649.6102235,0.192,-0.37,9.964,0.23715404803629223,2.3956073564456832,2.2735839598997494,0,0.65
1757394649.6378796,0.201,-0.259,9.826,0.2373668995458297,1.9109646982256467,2.274035087719298,0,0.65
1757394649.6653523,0.201,-0.259,9.826,0.2373668995458297,1.9109646982256467,2.274035087719298,0,0.65
1757394649.6930456,0.201,-0.259,9.826,0.2373668995458297,1.9109646982256467,2.274035087719298,0,0.65
1757394649.720621,0.201,-0.259,9.826,0.2373668995458297,1.9109646982256467,2.274035087719298,0,0.65
1757394649.7476788,0.013,-0.331,9.921,0.23736778951660648,1.9123551949567463,2.271578947368421,0,0.65
1757394649.7745917,0.214,-0.34,9.934,0.23731315808441808,2.3158384931112312,2.281453634085213,0,0.65
1757394649.8024163,0.11,-0.217,9.706,0.23709083175019655,1.4358594048339441,2.2859649122807015,0,0.65
1757394649.829173,0.11,-0.217,9.706,0.23709083175019655,1.4358594048339441,2.2859649122807015,0,0.65
1757394649.8572168,0.075,-0.351,9.94,0.23686752099010958,2.067994420826446,2.2874686716791977,0,0.65
1757394649.8849304,0.075,-0.351,9.94,0.23686752099010958,2.067994420826446,2.2874686716791977,0,0.65
1757394649.9124694,0.083,-0.347,9.926,0.23666211145850954,2.058601172100238,2.287418546365915,0,0.65
1757394649.9395413,0.083,-0.347,9.926,0.23666211145850954,2.058601172100238,2.287418546365915,0,0.65
1757394649.966932,0.069,-0.221,9.858,0.2364652088574554,1.3453785103281324,2.2875689223057645,0,0.65
1757394649.9946537,0.069,-0.221,9.858,0.2364652088574554,1.3453785103281324,2.2875689223057645,0,0.65
1757394650.0225554,0.101,-0.25,9.792,0.2363201377369267,1.5772905152690662,2.288972431077694,0,0.65
1757394650.0504394,0.101,-0.25,9.792,0.2363201377369267,1.5772905152690662,2.288972431077694,0,0.65
1757394650.0781448,0.058,-0.324,9.784,0.2361469193108392,1.926800918447067,2.290576441102757,0,0.65
1757394650.105434,0.058,-0.324,9.784,0.2361469193108392,1.926800918447067,2.290576441102757,0,0.65
1757394650.1332707,0.108,-0.332,9.722,0.2360390327890707,2.056652458104351,2.292330827067669,0,0.65
1757394650.1605124,0.108,-0.332,9.722,0.2360390327890707,2.056652458104351,2.292330827067669,0,0.65
1757394650.187619,0.108,-0.332,9.722,0.2360390327890707,2.056652458104351,2.292330827067669,0,0.65
1757394650.214231,0.028,-0.327,9.64,0.23590071004556135,1.9498982496472168,2.2945363408521304,0,0.65
1757394650.2417037,-0.003,-0.468,9.738,0.23581392558540729,2.7515258529625504,2.29593984962406,0,0.65
1757394650.2696245,-0.003,-0.468,9.738,0.23581392558540729,2.7515258529625504,2.29593984962406,0,0.65
1757394650.2976446,0.109,-0.288,9.823,0.23579407859401388,1.7955508536702827,2.300852130325815,0,0.65
1757394650.324484,0.109,-0.288,9.823,0.23579407859401388,1.7955508536702827,2.300852130325815,0,0.65
1757394650.351178,0.066,-0.303,9.568,0.235751850469938,1.8563419751228198,2.3029573934837098,0,0.65
1757394650.3793526,0.066,-0.303,9.568,0.235751850469938,1.8563419751228198,2.3029573934837098,0,0.65
1757394650.407079,-0.15,-0.358,9.69,0.23580698674975684,2.293884127765813,2.3131328320802007,0,0.65
1757394650.434057,-0.15,-0.358,9.69,0.23580698674975684,2.293884127765813,2.3131328320802007,0,0.65
1757394650.4614098,0.111,-0.229,9.84,0.23579210122478655,1.4814631794994284,2.3259649122807016,0,0.65
1757394650.4893217,0.111,-0.229,9.84,0.23579210122478655,1.4814631794994284,2.3259649122807016,0,0.65
1757394650.515136,-0.047,-0.286,9.741,0.2357169435997336,1.7042901882882,2.3336340852130326,0,0.65
1757394650.5410252,-0.047,-0.286,9.741,0.2357169435997336,1.7042901882882,2.3336340852130326,0,0.65
1757394650.567402,-0.082,-0.252,9.815,0.23565878935443932,1.5466141454248146,2.3349874686716796,0,0.65
1757394650.594806,-0.082,-0.252,9.815,0.23565878935443932,1.5466141454248146,2.3349874686716796,0,0.65
1757394650.622851,0.231,-0.16,9.882,0.23583630975742476,1.628797484080943,2.350325814536341,0,0.65
1757394650.6514423,0.231,-0.16,9.882,0.23583630975742476,1.628797484080943,2.350325814536341,0,0.65
1757394650.6793346,0.125,-0.045,9.87,0.2358239544660381,0.771172631266111,2.3553884711779447,0,0.65
1757394650.706757,0.125,-0.045,9.87,0.2358239544660381,0.771172631266111,2.3553884711779447,0,0.65
1757394650.734377,-0.083,-0.125,9.758,0.2357580486430951,0.880955404097627,2.3656140350877193,0,0.65
1757394650.7622914,-0.083,-0.125,9.758,0.2357580486430951,0.880955404097627,2.3656140350877193,0,0.65
1757394650.7902448,0.261,-0.054,9.818,0.23601067242817644,1.5550174260869964,2.3827067669172934,0,0.65
1757394650.8169339,0.261,-0.054,9.818,0.23601067242817644,1.5550174260869964,2.3827067669172934,0,0.65
1757394650.8443797,0.09,-0.217,9.777,0.2359406652105567,1.376447718284286,2.3911278195488723,0,0.65
1757394650.8714514,0.09,-0.217,9.777,0.2359406652105567,1.376447718284286,2.3911278195488723,0,0.65
1757394650.899353,0.222,-0.25,9.678,0.2360841057758866,1.978582464245848,2.3969924812030077,0,0.65
1757394650.9268441,0.222,-0.25,9.678,0.2360841057758866,1.978582464245848,2.3969924812030077,0,0.65
1757394650.953813,0.216,-0.196,9.792,0.23618870633457478,1.7061458593704266,2.3967418546365913,0,0.65
1757394650.9818692,0.216,-0.196,9.792,0.23618870633457478,1.7061458593704266,2.3967418546365913,0,0.65
1757394651.0092583,0.057,-0.362,9.878,0.23604377771930357,2.1246195643854984,2.4035588972431077,0,0.65
1757394651.0368273,0.057,-0.362,9.878,0.23604377771930357,2.1246195643854984,2.4035588972431077,0,0.65
1757394651.0636208,0.018,-0.272,9.705,0.23583779383296477,1.6089061324435825,2.404461152882205,0,0.65
1757394651.0912423,0.018,-0.272,9.705,0.23583779383296477,1.6089061324435825,2.404461152882205,0,0.65
1757394651.1183136,0.145,-0.32,9.765,0.23569498297587924,2.060462327067296,2.4104260651629072,0,0.65
1757394651.146333,0.145,-0.32,9.765,0.23569498297587924,2.060462327067296,2.4104260651629072,0,0.65
1757394651.1738136,0.001,-0.433,9.791,0.23542154744203006,2.5322218113981867,2.4172431077694236,0,0.65
1757394651.2014446,0.001,-0.433,9.791,0.23542154744203006,2.5322218113981867,2.4172431077694236,0,0.65
1757394651.2288704,0.254,-0.33,9.655,0.23547087399506547,2.4697093528739584,2.4295739348370926,0,0.65
1757394651.256768,0.254,-0.33,9.655,0.23547087399506547,2.4697093528739584,2.4295739348370926,0,0.65
1757394651.2845535,-0.022,-0.267,9.554,0.23516235349222034,1.606216765661843,2.4429573934837094,0,0.65
1757394651.312487,0.214,-0.275,9.797,0.23507088292683123,2.037011086326562,2.4544862155388474,0,0.65
1757394651.3400953,0.214,-0.275,9.797,0.23507088292683123,2.037011086326562,2.4544862155388474,0,0.65
1757394651.3675597,0.361,-0.316,9.613,0.23544438833830802,2.857159312276823,2.4617543859649125,0,0.65
1757394651.3952596,0.361,-0.316,9.613,0.23544438833830802,2.857159312276823,2.4617543859649125,0,0.65
1757394651.4216464,-0.073,-0.36,9.663,0.23514859132046698,2.1769790161801894,2.4833082706766914,0,0.65
1757394651.448292,-0.073,-0.36,9.663,0.23514859132046698,2.1769790161801894,2.4833082706766914,0,0.65
1757394651.4757197,-0.073,-0.36,9.663,0.23514859132046698,2.1769790161801894,2.4833082706766914,0,0.65
1757394651.5027654,0.155,-0.379,9.769,0.23496233740750877,2.400163803788954,2.4946867167919797,0,0.65
1757394651.5301495,0.155,-0.379,9.769,0.23496233740750877,2.400163803788954,2.4946867167919797,0,0.65
1757394651.5577128,-0.075,-0.359,9.834,0.2346753555446332,2.1358071296553622,2.50546365914787,0,0.65
1757394651.5853846,-0.128,-0.381,9.914,0.2344832190157752,2.321574967055295,2.5070676691729323,0,0.65
1757394651.6128795,-0.128,-0.381,9.914,0.2344832190157752,2.321574967055295,2.5070676691729323,0,0.65
1757394651.640366,-0.109,-0.468,10.066,0.2343158605387181,2.7330828695945524,2.5076190476190474,0,0.65
1757394651.666775,-0.109,-0.468,10.066,0.2343158605387181,2.7330828695945524,2.5076190476190474,0,0.65
1757394651.6939535,-0.071,-0.457,10.088,0.2341292912046675,2.6248761501822844,2.5094736842105263,0,0.65
1757394651.7211058,-0.071,-0.457,10.088,0.2341292912046675,2.6248761501822844,2.5094736842105263,0,0.65
1757394651.7473252,-0.149,-0.352,10.057,0.2340363753778459,2.17659553757329,2.5121804511278194,0,0.65
1757394651.7740047,-0.149,-0.352,10.057,0.2340363753778459,2.17659553757329,2.5121804511278194,0,0.65
1757394651.800952,-0.057,-0.29,9.949,0.2338901130873214,1.7015490336717782,2.5154887218045108,0,0.65
1757394651.8281384,-0.057,-0.29,9.949,0.2338901130873214,1.7015490336717782,2.5154887218045108,0,0.65
1757394651.8556106,-0.274,-0.261,10.017,0.23417252721017465,2.163442964171342,2.5255137844611526,0,0.65
1757394651.8830736,-0.274,-0.261,10.017,0.23417252721017465,2.163442964171342,2.5255137844611526,0,0.65
1757394651.910381,0.015,-0.26,9.827,0.2340807018957351,1.5180809633135561,2.5392982456140345,0,0.65
1757394651.9367373,0.015,-0.26,9.827,0.2340807018957351,1.5180809633135561,2.5392982456140345,0,0.65
1757394651.963242,0.015,-0.26,9.827,0.2340807018957351,1.5180809633135561,2.5392982456140345,0,0.65
1757394651.9899764,-0.049,-0.327,9.878,0.23401916054032842,1.9171723563789285,2.5421052631578944,0,0.65
1757394652.0165148,-0.002,-0.384,9.938,0.23395454152463036,2.2128131947958485,2.5442606516290724,0,0.65
1757394652.0439181,-0.002,-0.384,9.938,0.23395454152463036,2.2128131947958485,2.5442606516290724,0,0.65
1757394652.070392,-0.014,-0.42,9.696,0.23389554826888007,2.481696949450502,2.544561403508772,0,0.65
1757394652.0978997,-0.014,-0.42,9.696,0.23389554826888007,2.481696949450502,2.544561403508772,0,0.65
1757394652.1252203,-0.007,-0.474,9.541,0.23384236143179876,2.8444443129403267,2.544912280701754,0,0.65
1757394652.152707,-0.007,-0.474,9.541,0.23384236143179876,2.8444443129403267,2.544912280701754,0,0.65
1757394652.180648,-0.061,-0.313,9.567,0.23380879474476576,1.9090848055417742,2.547218045112782,0,0.65
1757394652.2080674,-0.061,-0.313,9.567,0.23380879474476576,1.9090848055417742,2.547218045112782,0,0.65
1757394652.2351124,0.163,-0.445,9.57,0.23388846700938462,2.8350135500542235,2.557994987468671,0,0.65
1757394652.2622647,0.163,-0.445,9.57,0.23388846700938462,2.8350135500542235,2.557994987468671,0,0.65
1757394652.2902153,0.163,-0.445,9.57,0.23388846700938462,2.8350135500542235,2.557994987468671,0,0.65
1757394652.31676,-0.208,-0.455,9.618,0.234046475085612,2.977607956081374,2.5764411027568923,0,0.65
1757394652.344042,0.014,-0.283,9.611,0.23397060178577994,1.688672711273545,2.587368421052632,0,0.65
1757394652.3727741,0.014,-0.283,9.611,0.23397060178577994,1.688672711273545,2.587368421052632,0,0.65
1757394652.4012418,0.008,-0.351,9.711,0.23388878233040591,2.070567781294522,2.586766917293233,0,0.65
1757394652.4289114,0.008,-0.351,9.711,0.23388878233040591,2.070567781294522,2.586766917293233,0,0.65
1757394652.4567325,-0.006,-0.282,9.554,0.23378118508554105,1.6910585760147523,2.586766917293233,0,0.65
1757394652.484723,-0.006,-0.282,9.554,0.23378118508554105,1.6910585760147523,2.586766917293233,0,0.65
1757394652.5128207,-0.002,-0.424,9.735,0.2336510485745784,2.493922594427532,2.5866666666666664,0,0.65
1757394652.539773,-0.002,-0.424,9.735,0.2336510485745784,2.493922594427532,2.5866666666666664,0,0.65
1757394652.566279,0.047,-0.386,9.811,0.2335224293296042,2.2696828768257604,2.588872180451128,0,0.65
1757394652.5930402,0.047,-0.386,9.811,0.2335224293296042,2.2696828768257604,2.588872180451128,0,0.65
1757394652.6200726,0.141,-0.398,9.68,0.23347956013321594,2.4976378346171795,2.592882205513784,0,0.65
1757394652.6474009,0.141,-0.398,9.68,0.23347956013321594,2.4976378346171795,2.592882205513784,0,0.65
1757394652.6758268,0.091,-0.435,9.754,0.23334846260474915,2.6087338580752157,2.5946867167919794,0,0.65
1757394652.7036345,0.091,-0.435,9.754,0.23334846260474915,2.6087338580752157,2.5946867167919794,0,0.65
1757394652.7314258,0.241,-0.548,9.938,0.23345587377489563,3.4472602153650205,2.600852130325814,0,0.65
1757394652.7595901,0.241,-0.548,9.938,0.23345587377489563,3.4472602153650205,2.600852130325814,0,0.65
1757394652.7870471,0.148,-0.43,9.827,0.233309226135616,2.6495457190510505,2.605112781954887,0,0.65
1757394652.8151376,0.148,-0.43,9.827,0.233309226135616,2.6495457190510505,2.605112781954887,0,0.65
1757394652.842834,0.042,-0.418,9.771,0.23303509392364063,2.461919313663752,2.610426065162907,0,0.65
1757394652.8707037,0.042,-0.418,9.771,0.23303509392364063,2.461919313663752,2.610426065162907,0,0.65
1757394652.8984842,0.218,-0.378,9.851,0.23300625528084004,2.5363028220408332,2.6190977443609023,0,0.65
1757394652.9256568,0.218,-0.378,9.851,0.23300625528084004,2.5363028220408332,2.6190977443609023,0,0.65
1757394652.9518156,0.045,-0.369,9.837,0.23272570764743633,2.164140151037901,2.6272681704260643,0,0.65
1757394652.978995,0.045,-0.369,9.837,0.23272570764743633,2.164140151037901,2.6272681704260643,0,0.65
1757394653.006495,0.181,-0.362,9.748,0.23263455246373013,2.377504371989514,2.6336842105263156,0,0.65
1757394653.034042,0.181,-0.362,9.748,0.23263455246373013,2.377504371989514,2.6336842105263156,0,0.65
1757394653.0613987,0.286,-0.266,9.685,0.2328256053358393,2.3093868321759317,2.6384461152882204,0,0.65
1757394653.0891392,0.286,-0.266,9.685,0.2328256053358393,2.3093868321759317,2.6384461152882204,0,0.65
1757394653.1171875,0.131,-0.251,9.671,0.2326920765733118,1.6769167043903546,2.646015037593985,0,0.65
1757394653.1446805,0.131,-0.251,9.671,0.2326920765733118,1.6769167043903546,2.646015037593985,0,0.65
1757394653.1711962,0.083,-0.156,9.627,0.23251198356213815,1.051560145365983,2.647669172932331,0,0.65
1757394653.198617,0.083,-0.156,9.627,0.23251198356213815,1.051560145365983,2.647669172932331,0,0.65
1757394653.2256923,0.096,-0.331,9.731,0.23237549892361717,2.028382473117967,2.6480701754385962,0,0.65
1757394653.2523742,0.096,-0.331,9.731,0.23237549892361717,2.028382473117967,2.6480701754385962,0,0.65
1757394653.2793107,0.095,-0.303,9.749,0.23224778255130873,1.8655742771845998,2.6469674185463656,0,0.65
1757394653.3057168,0.095,-0.303,9.749,0.23224778255130873,1.8655742771845998,2.6469674185463656,0,0.65
1757394653.3332489,0.067,-0.237,9.572,0.2321375562032133,1.4739005250486936,2.647268170426065,0,0.65
1757394653.360738,0.067,-0.237,9.572,0.2321375562032133,1.4739005250486936,2.647268170426065,0,0.65
1757394653.3889778,0.06,-0.396,9.554,0.23205733127828562,2.400529331630457,2.646817042606516,0,0.65
1757394653.4162734,0.06,-0.396,9.554,0.23205733127828562,2.400529331630457,2.646817042606516,0,0.65
1757394653.4431047,0.137,-0.398,9.666,0.2320808641400665,2.493448030020171,2.632731829573934,0,0.65
1757394653.4708772,0.137,-0.398,9.666,0.2320808641400665,2.493448030020171,2.632731829573934,0,0.65
1757394653.4981987,0.413,-0.218,9.551,0.23176872092670314,2.7992965201364393,2.6360902255639096,0,0.65
1757394653.5247111,0.413,-0.218,9.551,0.23176872092670314,2.7992965201364393,2.6360902255639096,0,0.65
1757394653.551807,-0.005,-0.363,9.657,0.23137826172741466,2.1528995182188546,2.6465162907268165,0,0.65
1757394653.5783265,-0.005,-0.363,9.657,0.23137826172741466,2.1528995182188546,2.6465162907268165,0,0.65
1757394653.6050086,0.329,-0.257,9.753,0.23072256066540178,2.4510693613482193,2.6530325814536337,0,0.65
1757394653.6318038,0.329,-0.257,9.753,0.23072256066540178,2.4510693613482193,2.6530325814536337,0,0.65
1757394653.6596465,0.119,-0.163,9.861,0.23038932266925913,1.1724605880932455,2.658997493734336,0,0.65
1757394653.6872737,0.119,-0.163,9.861,0.23038932266925913,1.1724605880932455,2.658997493734336,0,0.65
1757394653.714585,0.077,-0.274,9.786,0.23023775211724076,1.6659076688203132,2.6548872180451126,0,0.65
1757394653.741723,0.151,-0.393,9.734,0.23034197402991927,2.476588320695354,2.653533834586466,0,0.65
1757394653.768297,0.151,-0.393,9.734,0.23034197402991927,2.476588320695354,2.653533834586466,0,0.65
1757394653.7953238,0.151,-0.393,9.734,0.23034197402991927,2.476588320695354,2.653533834586466,0,0.65
1757394653.8221436,0.178,-0.211,9.768,0.2303732460595197,1.6187997720938343,2.6465664160401,0,0.65
1757394653.8493638,0.178,-0.211,9.768,0.2303732460595197,1.6187997720938343,2.6465664160401,0,0.65
1757394653.8762794,0.019,-0.162,9.794,0.22979428300112253,0.954122235996171,2.6423057644110277,0,0.65
1757394653.903987,0.033,-0.376,9.842,0.22976273087687654,2.1962439813411248,2.6364411027568924,0,0.65
1757394653.93049,0.033,-0.376,9.842,0.22976273087687654,2.1962439813411248,2.6364411027568924,0,0.65
1757394653.9577017,0.092,-0.364,9.906,0.22955954020689273,2.170523198912201,2.635288220551378,0,0.65
1757394653.9850903,0.092,-0.364,9.906,0.22955954020689273,2.170523198912201,2.635288220551378,0,0.65
1757394654.0127368,0.23,-0.367,9.772,0.22975263328197132,2.537807737207367,2.6421553884711773,0,0.65
1757394654.0396285,0.23,-0.367,9.772,0.22975263328197132,2.537807737207367,2.6421553884711773,0,0.65
1757394654.0658426,0.23,-0.367,9.772,0.22975263328197132,2.537807737207367,2.6421553884711773,0,0.65
1757394654.093319,0.295,-0.393,9.852,0.23013242383462615,2.855444043927773,2.643709273182958,0,0.65
1757394654.1203642,0.206,-0.633,10.016,0.2302150299176837,3.802359908285074,2.6410025062656644,0,0.65
1757394654.1480381,0.206,-0.633,10.016,0.2302150299176837,3.802359908285074,2.6410025062656644,0,0.65
1757394654.175616,0.141,-0.639,9.86,0.2298075336014901,3.7969393736985735,2.635889724310777,0,0.65
1757394654.2033513,0.141,-0.639,9.86,0.2298075336014901,3.7969393736985735,2.635889724310777,0,0.65
1757394654.2303464,0.103,-0.615,9.833,0.2297570945585794,3.628587035705686,2.635839598997493,0,0.65
1757394654.2576754,0.103,-0.615,9.833,0.2297570945585794,3.628587035705686,2.635839598997493,0,0.65
1757394654.2851372,0.149,-0.571,9.95,0.22970159990735806,3.3941551389840576,2.6331328320802,0,0.65
1757394654.312331,0.149,-0.571,9.95,0.22970159990735806,3.3941551389840576,2.6331328320802,0,0.65
1757394654.339782,0.188,-0.63,9.857,0.22946717630197136,3.8159227666156963,2.628220551378446,0,0.65
1757394654.3670864,0.188,-0.63,9.857,0.22946717630197136,3.8159227666156963,2.628220551378446,0,0.65
1757394654.3955772,0.193,-0.367,9.691,0.22955867441680353,2.4500511571910395,2.6230576441102755,0,0.65
1757394654.4215045,0.193,-0.367,9.691,0.22955867441680353,2.4500511571910395,2.6230576441102755,0,0.65
1757394654.448944,0.426,-0.399,9.609,0.23020289420422152,3.476022389304178,2.6278696741854635,0,0.65
1757394654.4769137,0.426,-0.399,9.609,0.23020289420422152,3.476022389304178,2.6278696741854635,0,0.65
1757394654.5052266,0.42,-0.402,9.573,0.23108847331703936,3.4753808950757397,2.625563909774436,0,0.65
1757394654.5328126,0.42,-0.402,9.573,0.23108847331703936,3.4753808950757397,2.625563909774436,0,0.65
1757394654.5593128,0.178,-0.378,9.51,0.2311108013486172,2.515621171848737,2.6373433583959898,0,0.65
1757394654.586643,0.178,-0.378,9.51,0.2311108013486172,2.515621171848737,2.6373433583959898,0,0.65
1757394654.6143682,0.386,-0.377,9.62,0.23175389964356585,3.2102032595527854,2.6459147869674187,0,0.65
1757394654.6418169,0.386,-0.377,9.62,0.23175389964356585,3.2102032595527854,2.6459147869674187,0,0.65
1757394654.6692603,0.266,-0.299,9.577,0.23189762827592697,2.392839197866756,2.6427568922305764,0,0.65
1757394654.6967475,0.266,-0.299,9.577,0.23189762827592697,2.392839197866756,2.6427568922305764,0,0.65
1757394654.7242813,0.105,-0.334,9.664,0.23112323552598513,2.0748532761607077,2.6373433583959898,0,0.65
1757394654.7516887,0.105,-0.334,9.664,0.23112323552598513,2.0748532761607077,2.6373433583959898,0,0.65
1757394654.7790694,0.391,-0.399,9.67,0.23186572083859228,3.3063442495651,2.643558897243108,0,0.65
1757394654.806528,0.391,-0.399,9.67,0.23186572083859228,3.3063442495651,2.643558897243108,0,0.65
1757394654.834215,0.037,-0.348,9.68,0.23143172859398514,2.0705148348173856,2.6497744360902256,0,0.65
1757394654.8617404,0.037,-0.348,9.68,0.23143172859398514,2.0705148348173856,2.6497744360902256,0,0.65
1757394654.8893113,0.228,-0.446,9.665,0.2316954142834942,2.966762127259588,2.659248120300752,0,0.65
1757394654.916352,0.228,-0.446,9.665,0.2316954142834942,2.966762127259588,2.659248120300752,0,0.65
1757394654.9434452,0.057,-0.439,9.732,0.23169479385605538,2.6044502206126783,2.6645614035087717,0,0.65
1757394654.97073,0.057,-0.439,9.732,0.23169479385605538,2.6044502206126783,2.6645614035087717,0,0.65
1757394654.9977305,0.138,-0.424,9.83,0.23171591442971715,2.5971770219254076,2.6593483709273182,0,0.65
1757394655.0251315,0.138,-0.424,9.83,0.23171591442971715,2.5971770219254076,2.6593483709273182,0,0.65
1757394655.0531077,0.113,-0.397,9.851,0.23176405566869077,2.39935825943221,2.647468671679198,0,0.65
1757394655.0806494,0.113,-0.397,9.851,0.23176405566869077,2.39935825943221,2.647468671679198,0,0.65
1757394655.1080384,0.025,-0.324,10.041,0.23120056228305327,1.8536516508746101,2.629674185463659,0,0.65
1757394655.1354947,0.025,-0.324,10.041,0.23120056228305327,1.8536516508746101,2.629674185463659,0,0.65
1757394655.162973,-0.002,-0.309,10.024,0.23112400892161766,1.7656785441919143,2.6234586466165406,0,0.65
1757394655.190115,-0.002,-0.309,10.024,0.23112400892161766,1.7656785441919143,2.6234586466165406,0,0.65
1757394655.2176354,0.075,-0.394,9.848,0.23114889140984432,2.3321690783095725,2.6137343358395992,0,0.65
1757394655.2448392,0.075,-0.394,9.848,0.23114889140984432,2.3321690783095725,2.6137343358395992,0,0.65
1757394655.2720735,0.048,-0.328,9.867,0.23066436113973046,1.9241960643147706,2.5925313283208022,0,0.65
1757394655.2993464,0.048,-0.328,9.867,0.23066436113973046,1.9241960643147706,2.5925313283208022,0,0.65
1757394655.3267698,-0.25,-0.414,10.079,0.23088584841865037,2.7471577881277938,2.5956390977443604,0,0.65
1757394655.354392,-0.25,-0.414,10.079,0.23088584841865037,2.7471577881277938,2.5956390977443604,0,0.65
1757394655.3818083,0.206,-0.415,9.916,0.23107263468442127,2.6751426547734627,2.615388471177945,0,0.65
1757394655.4094586,0.206,-0.415,9.916,0.23107263468442127,2.6751426547734627,2.615388471177945,0,0.65
1757394655.4368057,-0.055,-0.314,9.763,0.23108505468766255,1.870151569083163,2.62390977443609,0,0.65
1757394655.4631987,-0.055,-0.314,9.763,0.23108505468766255,1.870151569083163,2.62390977443609,0,0.65
1757394655.490026,-0.08,-0.346,9.847,0.23109751729518863,2.06545437134204,2.624561403508772,0,0.65
1757394655.5173202,-0.08,-0.346,9.847,0.23109751729518863,2.06545437134204,2.624561403508772,0,0.65
1757394655.5437996,0.146,-0.31,9.889,0.2311981671640154,1.9845414406889783,2.629172932330827,0,0.65
1757394655.5711358,0.146,-0.31,9.889,0.2311981671640154,1.9845414406889783,2.629172932330827,0,0.65
1757394655.5984316,0.031,-0.362,9.771,0.2310162440176015,2.129505521805957,2.632731829573935,0,0.65
1757394655.6261356,0.031,-0.362,9.771,0.2310162440176015,2.129505521805957,2.632731829573935,0,0.65
1757394655.653722,0.155,-0.567,9.788,0.2310371344611078,3.4366889463110013,2.6305263157894734,0,0.65
1757394655.681205,0.155,-0.567,9.788,0.2310371344611078,3.4366889463110013,2.6305263157894734,0,0.65
1757394655.7084022,0.111,-0.489,9.843,0.23058341223947573,2.9163441748517887,2.6301253132832083,0,0.65
1757394655.7359087,0.111,-0.489,9.843,0.23058341223947573,2.9163441748517887,2.6301253132832083,0,0.65
1757394655.7631824,0.309,-0.693,9.735,0.23074011896503827,4.456757105100895,2.63874686716792,0,0.65
1757394655.7910433,0.309,-0.693,9.735,0.23074011896503827,4.456757105100895,2.63874686716792,0,0.65
1757394655.8185847,0.131,-0.588,9.857,0.23039588755010362,3.497313081399368,2.6434085213032574,0,0.65
1757394655.846365,0.131,-0.588,9.857,0.23039588755010362,3.497313081399368,2.6434085213032574,0,0.65
1757394655.873339,0.276,-0.348,9.88,0.23007021210926026,2.574037690017156,2.648220551378446,0,0.65
1757394655.9,0.276,-0.348,9.88,0.23007021210926026,2.574037690017156,2.648220551378446,0,0.65
1757394655.9274063,0.131,-0.316,9.81,0.2296066310018071,1.9971108573899212,2.6511779448621553,0,0.65
1757394655.955143,0.131,-0.316,9.81,0.2296066310018071,1.9971108573899212,2.6511779448621553,0,0.65
1757394655.9828587,0.079,-0.246,9.882,0.22934235871290765,1.4977083655923658,2.635839598997493,0,0.65
1757394656.0101485,0.079,-0.246,9.882,0.22934235871290765,1.4977083655923658,2.635839598997493,0,0.65
1757394656.0373235,0.236,-0.277,9.853,0.22773009792295792,2.1151530083904424,2.6183959899749367,0,0.65
1757394656.0642264,0.008,-0.359,9.894,0.22768889959767472,2.0785592092974916,2.615087719298246,0,0.65
1757394656.0911875,0.008,-0.359,9.894,0.22768889959767472,2.0785592092974916,2.615087719298246,0,0.65
1757394656.1188622,-0.009,-0.313,9.933,0.2268910200955516,1.8056026964297054,2.6097744360902255,0,0.65
1757394656.146481,-0.009,-0.313,9.933,0.2268910200955516,1.8056026964297054,2.6097744360902255,0,0.65
1757394656.1740465,0.01,-0.358,10.054,0.22652455716765016,2.0401051411666646,2.6100250626566415,0,0.65
1757394656.201746,0.01,-0.358,10.054,0.22652455716765016,2.0401051411666646,2.6100250626566415,0,0.65
1757394656.2292862,0.163,-0.33,10.072,0.22634256669924022,2.092828649472926,2.6103258145363406,0,0.65
1757394656.2566037,0.163,-0.33,10.072,0.22634256669924022,2.092828649472926,2.6103258145363406,0,0.65
1757394656.2827601,-0.089,-0.242,9.925,0.22633434891770185,1.4881827804806458,2.6173433583959897,0,0.65
1757394656.3094087,-0.089,-0.242,9.925,0.22633434891770185,1.4881827804806458,2.6173433583959897,0,0.65
1757394656.336714,0.147,-0.328,9.862,0.22621241676795728,2.087300319496716,2.6266666666666665,0,0.65
1757394656.3636994,0.147,-0.328,9.862,0.22621241676795728,2.087300319496716,2.6266666666666665,0,0.65
1757394656.3911161,0.181,-0.436,9.842,0.2262537458253454,2.746121087830682,2.6211027568922303,0,0.65
1757394656.4187474,0.181,-0.436,9.842,0.2262537458253454,2.746121087830682,2.6211027568922303,0,0.65
1757394656.4463317,0.063,-0.418,9.779,0.22576456763628786,2.4752078067781773,2.625964912280702,0,0.65
1757394656.4738097,0.063,-0.418,9.779,0.22576456763628786,2.4752078067781773,2.625964912280702,0,0.65
1757394656.5012574,-0.066,-0.278,9.812,0.225203169382671,1.6679916708605766,2.630827067669173,0,0.65
1757394656.5292695,-0.066,-0.278,9.812,0.225203169382671,1.6679916708605766,2.630827067669173,0,0.65
1757394656.556676,0.193,-0.449,9.892,0.2247019525949875,2.828447737782047,2.6385463659147876,0,0.65
1757394656.5842023,0.193,-0.449,9.892,0.2247019525949875,2.828447737782047,2.6385463659147876,0,0.65
1757394656.6116083,0.284,-0.427,9.603,0.22479734762670134,3.056812942020595,2.6388471177944863,0,0.65
1757394656.6389446,0.284,-0.427,9.603,0.22479734762670134,3.056812942020595,2.6388471177944863,0,0.65
1757394656.666254,0.031,-0.397,9.741,0.2241703091401714,2.3409269110231135,2.6388972431077695,0,0.65
1757394656.693162,0.031,-0.397,9.741,0.2241703091401714,2.3409269110231135,2.6388972431077695,0,0.65
1757394656.7211657,0.333,-0.272,9.608,0.22285028045753053,2.562339778499842,2.628471177944862,0,0.65
1757394656.7484906,0.333,-0.272,9.608,0.22285028045753053,2.562339778499842,2.628471177944862,0,0.65
1757394656.7758744,0.03,-0.327,9.608,0.2228203199889992,1.9574398097831847,2.628621553884712,0,0.65
1757394656.8026793,0.03,-0.327,9.608,0.2228203199889992,1.9574398097831847,2.628621553884712,0,0.65
1757394656.8304694,0.184,-0.196,9.437,0.22220358345445287,1.6317599700528858,2.628220551378446,0,0.65
1757394656.8579981,0.184,-0.196,9.437,0.22220358345445287,1.6317599700528858,2.628220551378446,0,0.65
1757394656.885443,0.205,-0.184,9.575,0.22217509423875575,1.6478990315134125,2.628471177944862,0,0.65
1757394656.912924,0.205,-0.184,9.575,0.22217509423875575,1.6478990315134125,2.628471177944862,0,0.65
1757394656.9401226,0.261,-0.283,9.524,0.22233099761391797,2.3147581834673043,2.6296240601503755,0,0.65
1757394656.9662244,0.261,-0.283,9.524,0.22233099761391797,2.3147581834673043,2.6296240601503755,0,0.65
1757394656.9936697,0.174,-0.188,9.337,0.22219332235690614,1.5715364475819038,2.6334335839598992,0,0.65
1757394657.0211475,0.174,-0.188,9.337,0.22219332235690614,1.5715364475819038,2.6334335839598992,0,0.65
1757394657.0482726,0.183,-0.141,9.613,0.22204398775918252,1.3766663767160952,2.628220551378446,0,0.65
1757394657.0754826,0.183,-0.141,9.613,0.22204398775918252,1.3766663767160952,2.628220551378446,0,0.65
1757394657.102418,0.113,-0.284,9.615,0.222017780819465,1.8207849993134337,2.626416040100251,0,0.65
1757394657.1300714,0.113,-0.284,9.615,0.222017780819465,1.8207849993134337,2.626416040100251,0,0.65
1757394657.157701,0.183,-0.156,9.594,0.2218873757111927,1.4357863449456982,2.6186967418546363,0,0.65
1757394657.1852262,0.183,-0.156,9.594,0.2218873757111927,1.4357863449456982,2.6186967418546363,0,0.65
1757394657.2129366,0.152,0.03,9.758,0.22201639016072666,0.9096349476950769,2.6063659147869678,0,0.65
1757394657.2406204,0.152,0.03,9.758,0.22201639016072666,0.9096349476950769,2.6063659147869678,0,0.65
1757394657.2680395,-0.001,0.042,9.859,0.22153911054258568,0.2441515534952778,2.612781954887218,0,0.65
1757394657.2948067,-0.001,0.042,9.859,0.22153911054258568,0.2441515534952778,2.612781954887218,0,0.65
1757394657.3223903,0.036,0.038,9.72,0.22098230132750452,0.30855134975533066,2.6074686716791984,0,0.65
1757394657.3493836,0.036,0.038,9.72,0.22098230132750452,0.30855134975533066,2.6074686716791984,0,0.65
1757394657.3768184,0.211,0.088,9.851,0.22106482646499873,1.329443366695653,2.6138345864661656,0,0.65
1757394657.404429,0.211,0.088,9.851,0.22106482646499873,1.329443366695653,2.6138345864661656,0,0.65
1757394657.4319963,0.102,-0.022,9.86,0.22084737942751326,0.6063223280350704,2.6170927318295734,0,0.65
1757394657.4593,0.102,-0.022,9.86,0.22084737942751326,0.6063223280350704,2.6170927318295734,0,0.65
1757394657.4864259,0.227,0.102,9.729,0.22096168219852055,1.465280577692375,2.6194987468671673,0,0.65
1757394657.51365,0.227,0.102,9.729,0.22096168219852055,1.465280577692375,2.6194987468671673,0,0.65
1757394657.54093,-0.01,0.106,9.724,0.22059697414062596,0.6273216071625994,2.6290225563909777,0,0.65
1757394657.5674882,-0.01,0.106,9.724,0.22059697414062596,0.6273216071625994,2.6290225563909777,0,0.65
1757394657.5958543,0.274,-0.067,9.893,0.22077951105118426,1.6331948852778715,2.6368922305764415,0,0.65
1757394657.623215,0.274,-0.067,9.893,0.22077951105118426,1.6331948852778715,2.6368922305764415,0,0.65
1757394657.6505294,0.112,-0.14,9.753,0.22081429414782006,1.0531384158929418,2.635739348370927,0,0.65
1757394657.6766617,0.112,-0.14,9.753,0.22081429414782006,1.0531384158929418,2.635739348370927,0,0.65
1757394657.7039933,0.086,-0.069,9.645,0.2204583407358406,0.654959870365691,2.630325814536341,0,0.65
1757394657.7317762,0.086,-0.069,9.645,0.2204583407358406,0.654959870365691,2.630325814536341,0,0.65
1757394657.7591968,0.197,-0.345,9.761,0.2205810508633958,2.3307138604429514,2.631478696741855,0,0.65
1757394657.785815,0.197,-0.345,9.761,0.2205810508633958,2.3307138604429514,2.631478696741855,0,0.65
1757394657.8134139,0.17,-0.267,9.803,0.22047300855206742,1.8493656741973845,2.632431077694236,0,0.65
1757394657.8418984,0.17,-0.267,9.803,0.22047300855206742,1.8493656741973845,2.632431077694236,0,0.65
1757394657.8700633,0.017,-0.19,9.693,0.2201823051473483,1.1274399543867597,2.6353383458646618,0,0.65
1757394657.898112,0.017,-0.19,9.693,0.2201823051473483,1.1274399543867597,2.6353383458646618,0,0.65
1757394657.9258327,0.348,-0.28,9.76,0.2202811782699557,2.6202679407339486,2.640451127819549,0,0.65
1757394657.9538434,0.189,-0.183,9.734,0.220434746580479,1.5481391954894155,2.647268170426065,0,0.65
1757394657.9805508,0.189,-0.183,9.734,0.220434746580479,1.5481391954894155,2.647268170426065,0,0.65
1757394658.0077553,0.189,-0.183,9.734,0.220434746580479,1.5481391954894155,2.647268170426065,0,0.65
1757394658.0348904,0.223,-0.276,9.645,0.22064034082642278,2.106910432807837,2.6481203007518794,0,0.65
1757394658.0623782,0.156,-0.37,9.74,0.22067799505161362,2.3607436135402313,2.6390977443609023,0,0.65
1757394658.0897462,0.156,-0.37,9.74,0.22067799505161362,2.3607436135402313,2.6390977443609023,0,0.65
1757394658.1170187,0.127,-0.342,9.761,0.21995022164117045,2.1404437862158336,2.6203508771929824,0,0.65
1757394658.1443782,0.127,-0.342,9.761,0.21995022164117045,2.1404437862158336,2.6203508771929824,0,0.65
1757394658.1708193,0.247,-0.19,9.414,0.22029366763481878,1.895918344548793,2.6234586466165406,0,0.65
1757394658.1975298,0.247,-0.19,9.414,0.22029366763481878,1.895918344548793,2.6234586466165406,0,0.65
1757394658.2237446,0.247,-0.19,9.414,0.22029366763481878,1.895918344548793,2.6234586466165406,0,0.65
1757394658.2511833,-0.06,-0.048,9.771,0.22027686555787016,0.450555028982342,2.6249122807017535,0,0.65
1757394658.2784584,0.104,-0.172,9.789,0.22011795701396106,1.1762888061191268,2.625563909774436,0,0.65
1757394658.305991,0.104,-0.172,9.789,0.22011795701396106,1.1762888061191268,2.625563909774436,0,0.65
1757394658.3335521,0.025,-0.07,9.699,0.22010948979996295,0.4390897630554509,2.6234085213032574,0,0.65
1757394658.361237,0.025,-0.07,9.699,0.22010948979996295,0.4390897630554509,2.6234085213032574,0,0.65
1757394658.3883996,0.025,-0.07,9.699,0.22010948979996295,0.4390897630554509,2.6234085213032574,0,0.65
1757394658.415021,-0.042,-0.0,9.676,0.22008670450529264,0.24869859719739867,2.61438596491228,0,0.65
1757394658.4418788,-0.141,-0.04,9.886,0.22003353721648888,0.8493710582535312,2.6077694235588966,0,0.65
1757394658.469145,-0.141,-0.04,9.886,0.22003353721648888,0.8493710582535312,2.6077694235588966,0,0.65
1757394658.4964375,0.005,-0.39,9.866,0.22001322687511313,2.2638920985994937,2.6122305764411027,0,0.65
1757394658.5225577,0.005,-0.39,9.866,0.22001322687511313,2.2638920985994937,2.6122305764411027,0,0.65
1757394658.5495212,0.005,-0.39,9.866,0.22001322687511313,2.2638920985994937,2.6122305764411027,0,0.65
1757394658.5769117,0.11,-0.167,9.703,0.220081910887742,1.1806614850622643,2.615137844611529,0,0.65
1757394658.6042223,-0.169,-0.177,9.822,0.22023308107548242,1.4272827360877127,2.627167919799499,0,0.65
1757394658.6317084,-0.169,-0.177,9.822,0.22023308107548242,1.4272827360877127,2.627167919799499,0,0.65
1757394658.6591713,0.045,-0.394,9.911,0.22024443239273953,2.2913111458635123,2.6367919799498747,0,0.65
1757394658.6860673,0.045,-0.394,9.911,0.22024443239273953,2.2913111458635123,2.6367919799498747,0,0.65
1757394658.7128024,0.125,-0.341,9.732,0.22033145485835653,2.13723025656851,2.620050125313283,0,0.65
1757394658.740373,0.125,-0.341,9.732,0.22033145485835653,2.13723025656851,2.620050125313283,0,0.65
1757394658.767184,0.11,-0.35,9.719,0.21950439061667992,2.1618095137932816,2.6156892230576436,0,0.65
1757394658.794025,0.11,-0.35,9.719,0.21950439061667992,2.1618095137932816,2.6156892230576436,0,0.65
1757394658.82001,0.234,-0.407,9.765,0.2193205530724378,2.7524968451452985,2.619248120300752,0,0.65
1757394658.8474183,0.234,-0.407,9.765,0.2193205530724378,2.7524968451452985,2.619248120300752,0,0.65
1757394658.8747985,0.152,-0.334,9.551,0.21876129685115694,2.200287995225222,2.6208020050125307,0,0.65
1757394658.902845,0.152,-0.334,9.551,0.21876129685115694,2.200287995225222,2.6208020050125307,0,0.65
1757394658.930258,0.269,-0.135,9.58,0.21867072277742167,1.7994709450505675,2.615739348370927,0,0.65
1757394658.9576297,0.269,-0.135,9.58,0.21867072277742167,1.7994709450505675,2.615739348370927,0,0.65
1757394658.9849627,0.269,-0.135,9.58,0.21867072277742167,1.7994709450505675,2.615739348370927,0,0.65
1757394659.0123649,0.348,-0.13,9.695,0.21784531782895863,2.1943618402331633,2.615238095238095,0,0.65
1757394659.0396814,0.153,-0.008,9.488,0.21693643078100092,0.9251124231493204,2.6135338345864656,0,0.65
1757394659.067189,0.153,-0.008,9.488,0.21693643078100092,0.9251124231493204,2.6135338345864656,0,0.65
1757394659.0946498,0.103,0.069,9.464,0.21677387988408564,0.7505160675309895,2.5987468671679195,0,0.65
1757394659.1221209,0.103,0.069,9.464,0.21677387988408564,0.7505160675309895,2.5987468671679195,0,0.65
1757394659.1495457,0.103,0.069,9.464,0.21677387988408564,0.7505160675309895,2.5987468671679195,0,0.65
1757394659.176448,0.364,-0.111,9.496,0.21584194448716404,2.2948767868021456,2.5901754385964906,0,0.65
1757394659.2044394,0.054,-0.187,9.716,0.21578875086528493,1.1476532343210653,2.591478696741854,0,0.65
1757394659.2319279,0.054,-0.187,9.716,0.21578875086528493,1.1476532343210653,2.591478696741854,0,0.65
1757394659.2593067,0.145,-0.193,9.589,0.21500990093481742,1.4420987716117541,2.5936842105263156,0,0.65
1757394659.286392,0.145,-0.193,9.589,0.21500990093481742,1.4420987716117541,2.5936842105263156,0,0.65
1757394659.3128915,0.237,-0.07,9.684,0.2146361048379326,1.4617867207291533,2.598045112781955,0,0.65
1757394659.340214,0.237,-0.07,9.684,0.2146361048379326,1.4617867207291533,2.598045112781955,0,0.65
1757394659.367104,0.275,-0.188,9.642,0.21439521916311471,1.9787167769856073,2.592130325814536,0,0.65
1757394659.3940322,0.275,-0.188,9.642,0.21439521916311471,1.9787167769856073,2.592130325814536,0,0.65
1757394659.4212322,0.042,-0.125,9.7,0.2142037114524396,0.7788636753592086,2.5985463659147863,0,0.65
1757394659.449067,0.042,-0.125,9.7,0.2142037114524396,0.7788636753592086,2.5985463659147863,0,0.65
1757394659.4768293,0.196,-0.213,9.658,0.21393355861107904,1.716676988190676,2.600451127819549,0,0.65
1757394659.503773,0.196,-0.213,9.658,0.21393355861107904,1.716676988190676,2.600451127819549,0,0.65
1757394659.5311282,0.252,-0.185,9.752,0.214125582310942,1.8360815603244365,2.6032080200501255,0,0.65
1757394659.557338,0.252,-0.185,9.752,0.214125582310942,1.8360815603244365,2.6032080200501255,0,0.65
1757394659.5843391,0.132,-0.251,9.607,0.21404645523810947,1.6908468650820059,2.6018045112781953,0,0.65
1757394659.611879,0.132,-0.251,9.607,0.21404645523810947,1.6908468650820059,2.6018045112781953,0,0.65
1757394659.6395152,-0.053,-0.185,9.771,0.21344898102356918,1.1283083055865792,2.6110275689223057,0,0.65
1757394659.6673253,-0.053,-0.185,9.771,0.21344898102356918,1.1283083055865792,2.6110275689223057,0,0.65
1757394659.695233,0.227,-0.316,9.781,0.21313194856707898,2.2779903349704544,2.605563909774436,0,0.65
1757394659.722864,0.227,-0.316,9.781,0.21313194856707898,2.2779903349704544,2.605563909774436,0,0.65
1757394659.7503498,0.171,-0.27,9.657,0.2132793707792669,1.8954920810740947,2.5928320802005014,0,0.65
1757394659.7778919,0.171,-0.27,9.657,0.2132793707792669,1.8954920810740947,2.5928320802005014,0,0.65
1757394659.8056724,-0.02,-0.244,9.689,0.21292674796746416,1.4474219493654588,2.5929323308270673,0,0.65
1757394659.8343039,-0.02,-0.244,9.689,0.21292674796746416,1.4474219493654588,2.5929323308270673,0,0.65
1757394659.862344,0.231,-0.351,9.714,0.21322073069943268,2.476865936460957,2.6007017543859643,0,0.65
1757394659.890223,0.231,-0.351,9.714,0.21322073069943268,2.476865936460957,2.6007017543859643,0,0.65
1757394659.917793,0.004,-0.407,9.725,0.21321190750049585,2.39659703306008,2.6003007518796992,0,0.65
1757394659.9457073,0.004,-0.407,9.725,0.21321190750049585,2.39659703306008,2.6003007518796992,0,0.65
1757394659.9739735,0.072,-0.57,9.568,0.21301698875911282,3.4363116673287895,2.599498746867168,0,0.65
