timestamp,ax,ay,az,rms,tilt_now,jerk,tilt_crosses,freq
1757395169.5617425,0.418,-0.283,9.747,0.0209,2.9646581954553906,0.02095238095238095,0,2.1
1757395169.5897837,0.416,-0.284,9.741,0.029486437560342887,2.960076701140782,0.021052631578947364,0,0.05
1757395169.6160185,0.421,-0.284,9.742,0.03622916642706536,2.9840406430022894,0.021303258145363404,0,0.05
1757395169.6438024,0.416,-0.289,9.735,0.04177550119388156,2.978544320277292,0.021553884711779443,0,0.05
1757395169.6697564,0.414,-0.29,9.732,0.04662276804309242,2.9731890237611127,0.021654135338345856,0,0.05
1757395169.696564,0.422,-0.3,9.722,0.051175116023317424,3.0485432678134,0.022055137844611522,0,0.05
1757395169.723806,0.44,-0.29,9.728,0.05570361298874607,3.1007213701626926,0.022957393483709263,0,0.05
1757395169.7493227,0.46,-0.29,9.732,0.06026518480847794,3.1981205802368247,0.023959899749373424,0,0.05
1757395169.7747145,0.458,-0.294,9.73,0.06446939196238785,3.2014742357508585,0.024060150375939844,0,0.05
1757395169.800276,0.465,-0.305,9.728,0.06853367785257114,3.2717606361970013,0.02441102756892231,0,0.05
1757395169.825823,0.472,-0.309,9.733,0.0724832739326805,3.3172995943018666,0.024761904761904756,0,0.05
1757395169.8510733,0.48,-0.312,9.744,0.07635329069529355,3.362433949336019,0.02516290726817043,0,0.05
1757395169.877536,0.496,-0.314,9.75,0.08027991654205925,3.44555549376088,0.025964912280701757,0,0.05
1757395169.902963,0.532,-0.326,9.771,0.08457201073641327,3.653730966354274,0.02776942355889725,0,0.05
1757395169.928409,0.553,-0.328,9.765,0.08897723023335802,3.7670858850707463,0.028822055137844606,0,0.05
1757395169.9538755,0.553,-0.328,9.765,0.08897723023335802,3.7670858850707463,0.028822055137844606,0,0.05
1757395169.9795547,0.552,-0.33,9.763,0.09315958082773881,3.768814051621905,0.028872180451127823,0,0.05
1757395170.0051844,0.552,-0.33,9.763,0.09315958082773881,3.768814051621905,0.028872180451127823,0,0.05
1757395170.0304441,0.546,-0.329,9.75,0.09707727591975374,3.740711515709936,0.02917293233082707,0,0.05
1757395170.0557854,0.546,-0.329,9.75,0.09707727591975374,3.740711515709936,0.02917293233082707,0,0.05
1757395170.0811033,0.535,-0.344,9.757,0.10069538221785544,3.729789028226086,0.029724310776942358,0,0.05
1757395170.1062534,0.535,-0.344,9.757,0.10069538221785544,3.729789028226086,0.029724310776942358,0,0.05
1757395170.1315665,0.528,-0.331,9.771,0.10409860709923068,3.6492588173932266,0.030075187969924817,0,0.05
1757395170.1569035,0.528,-0.331,9.771,0.10409860709923068,3.6492588173932266,0.030075187969924817,0,0.05
1757395170.1824012,0.53,-0.328,9.768,0.10741866690664151,3.651028030087005,0.030175438596491234,0,0.05
1757395170.207957,0.53,-0.328,9.768,0.10741866690664151,3.651028030087005,0.030175438596491234,0,0.05
1757395170.2333682,0.53,-0.328,9.768,0.10741866690664151,3.651028030087005,0.030175438596491234,0,0.05
1757395170.2589095,0.532,-0.312,9.763,0.11066313749392793,3.614636491629096,0.03027568922305765,0,0.05
1757395170.284493,0.532,-0.312,9.763,0.11066313749392793,3.614636491629096,0.03027568922305765,0,0.05
1757395170.309869,0.525,-0.311,9.763,0.11373386698780623,3.576416836436312,0.030626566416040106,0,0.05
1757395170.3354518,0.525,-0.311,9.763,0.11373386698780623,3.576416836436312,0.030626566416040106,0,0.05
1757395170.3605723,0.514,-0.304,9.767,0.1166013829249036,3.4988000355049795,0.031177944862155395,0,0.05
1757395170.385858,0.514,-0.304,9.767,0.1166013829249036,3.4988000355049795,0.031177944862155395,0,0.05
1757395170.4110224,0.498,-0.303,9.774,0.11923041767938249,3.413156031108818,0.031979949874686726,0,0.05
1757395170.4380627,0.498,-0.303,9.774,0.11923041767938249,3.413156031108818,0.031979949874686726,0,0.05
1757395170.4631941,0.488,-0.303,9.763,0.12170148930888233,3.3671697106046534,0.032481203007518805,0,0.05
1757395170.488509,0.488,-0.303,9.763,0.12170148930888233,3.3671697106046534,0.032481203007518805,0,0.05
1757395170.5138283,0.474,-0.301,9.755,0.12398767075802336,3.294295603618272,0.03318295739348372,0,0.05
1757395170.5390308,0.474,-0.301,9.755,0.12398767075802336,3.294295603618272,0.03318295739348372,0,0.05
1757395170.5642197,0.459,-0.297,9.756,0.12609379445476293,3.2073957486660065,0.03393483709273184,0,0.05
1757395170.589632,0.459,-0.297,9.756,0.12609379445476293,3.2073957486660065,0.03393483709273184,0,0.05
1757395170.6151466,0.425,-0.281,9.76,0.1278718401369121,2.988267111920931,0.035639097744360915,0,0.05
1757395170.6402822,0.425,-0.281,9.76,0.1278718401369121,2.988267111920931,0.035639097744360915,0,0.05
1757395170.6654687,0.41,-0.295,9.751,0.12950466207824335,2.9652546885215303,0.036390977443609036,0,0.05
1757395170.690574,0.41,-0.295,9.751,0.12950466207824335,2.9652546885215303,0.036390977443609036,0,0.05
1757395170.7155972,0.41,-0.295,9.751,0.12950466207824335,2.9652546885215303,0.036390977443609036,0,0.05
1757395170.7404366,0.401,-0.292,9.734,0.13104754862262782,2.917297266462833,0.036842105263157905,0,0.05
1757395170.765742,0.401,-0.292,9.734,0.13104754862262782,2.917297266462833,0.036842105263157905,0,0.05
1757395170.7912948,0.402,-0.297,9.743,0.13258005128977737,2.9366819193780382,0.03689223057644111,0,0.05
1757395170.8169694,0.402,-0.297,9.743,0.13258005128977737,2.9366819193780382,0.03689223057644111,0,0.05
1757395170.8422077,0.4,-0.311,9.763,0.13408008800713103,2.970849087300444,0.03699248120300752,0,0.05
1757395170.8673031,0.4,-0.311,9.763,0.13408008800713103,2.970849087300444,0.03699248120300752,0,0.05
1757395170.8924897,0.417,-0.321,9.755,0.13569153437116113,3.087874239375025,0.037844611528822056,0,0.05
1757395170.9186096,0.417,-0.321,9.755,0.13569153437116113,3.087874239375025,0.037844611528822056,0,0.05
1757395170.9438808,0.419,-0.325,9.756,0.1372992898743471,3.1111472010897407,0.037944862155388476,0,0.05
1757395170.9692626,0.419,-0.325,9.756,0.1372992898743471,3.1111472010897407,0.037944862155388476,0,0.05
1757395170.994506,0.433,-0.323,9.758,0.13899574633779266,3.168653727179977,0.03864661654135339,0,0.05
1757395171.0194337,0.433,-0.323,9.758,0.13899574633779266,3.168653727179977,0.03864661654135339,0,0.05
1757395171.0444098,0.446,-0.335,9.749,0.14077324852400047,3.2746730065294036,0.03929824561403509,0,0.05
1757395171.069345,0.446,-0.335,9.749,0.14077324852400047,3.2746730065294036,0.03929824561403509,0,0.05
1757395171.0948622,0.446,-0.335,9.749,0.14077324852400047,3.2746730065294036,0.03929824561403509,0,0.05
1757395171.1204712,0.451,-0.314,9.744,0.14256791364118368,3.227950347366817,0.039548872180451125,0,0.05
1757395171.1457186,0.451,-0.314,9.744,0.14256791364118368,3.227950347366817,0.039548872180451125,0,0.05
1757395171.1712868,0.464,-0.331,9.73,0.1444432414479819,3.352431427732769,0.04020050125313284,0,0.05
1757395171.1973176,0.464,-0.331,9.73,0.1444432414479819,3.352431427732769,0.04020050125313284,0,0.05
1757395171.2233675,0.489,-0.328,9.747,0.14649796073666008,3.4570387821008635,0.04145363408521304,0,0.05
1757395171.2488134,0.489,-0.328,9.747,0.14649796073666008,3.4570387821008635,0.04145363408521304,0,0.05
1757395171.2743232,0.512,-0.329,9.749,0.1487178956951718,3.5721201262491933,0.04260651629072683,0,0.05
1757395171.3000662,0.512,-0.329,9.749,0.1487178956951718,3.5721201262491933,0.04260651629072683,0,0.05
1757395171.3263206,0.519,-0.335,9.721,0.15096494626236912,3.6360040627934924,0.042957393483709284,0,0.05
1757395171.3516483,0.519,-0.335,9.721,0.15096494626236912,3.6360040627934924,0.042957393483709284,0,0.05
1757395171.3768785,0.532,-0.335,9.743,0.1532904922035284,3.692016548810699,0.04360902255639099,0,0.05
1757395171.4020505,0.532,-0.335,9.743,0.1532904922035284,3.692016548810699,0.04360902255639099,0,0.05
1757395171.4272814,0.539,-0.341,9.763,0.1556415031410324,3.7377838004282404,0.04395989974937344,0,0.05
1757395171.453065,0.539,-0.341,9.763,0.1556415031410324,3.7377838004282404,0.04395989974937344,0,0.05
1757395171.4783235,0.547,-0.33,9.751,0.15802626363994055,3.7483605478063224,0.044360902255639115,0,0.05
1757395171.503407,0.547,-0.33,9.751,0.15802626363994055,3.7483605478063224,0.044360902255639115,0,0.05
1757395171.5288177,0.547,-0.33,9.751,0.15802626363994055,3.7483605478063224,0.044360902255639115,0,0.05
1757395171.5545986,0.554,-0.325,9.747,0.16043562571947664,3.7701426645747764,0.04471177944862157,0,0.05
1757395171.58031,0.554,-0.325,9.747,0.16043562571947664,3.7701426645747764,0.04471177944862157,0,0.05
1757395171.605676,0.536,-0.315,9.74,0.16265863026596528,3.6522579510854123,0.045614035087719315,0,0.05
1757395171.630849,0.536,-0.315,9.74,0.16265863026596528,3.6522579510854123,0.045614035087719315,0,0.05
1757395171.6559882,0.53,-0.32,9.752,0.16480315530959957,3.632585971050985,0.045914786967418554,0,0.05
1757395171.6816146,0.53,-0.32,9.752,0.16480315530959957,3.632585971050985,0.045914786967418554,0,0.05
1757395171.706572,0.523,-0.317,9.763,0.1668649229167113,3.5844168094139226,0.046265664160401024,0,0.05
1757395171.7316532,0.523,-0.317,9.763,0.1668649229167113,3.5844168094139226,0.046265664160401024,0,0.05
1757395171.7567742,0.513,-0.314,9.754,0.16882483525832329,3.5286095232912147,0.04676691729323309,0,0.05
1757395171.781821,0.513,-0.314,9.754,0.16882483525832329,3.5286095232912147,0.04676691729323309,0,0.05
1757395171.8068187,0.495,-0.31,9.755,0.17062938639050426,3.4263678905273087,0.04766917293233083,0,0.05
1757395171.8319497,0.495,-0.31,9.755,0.17062938639050426,3.4263678905273087,0.04766917293233083,0,0.05
1757395171.8570588,0.484,-0.305,9.748,0.1723369591817147,3.358687907116218,0.04822055137844612,0,0.05
1757395171.8821044,0.484,-0.305,9.748,0.1723369591817147,3.358687907116218,0.04822055137844612,0,0.05
1757395171.9069881,0.484,-0.305,9.748,0.1723369591817147,3.358687907116218,0.04822055137844612,0,0.05
1757395171.9319112,0.467,-0.307,9.749,0.1739116154832678,3.2809522721216573,0.04907268170426066,0,0.05
1757395171.9567373,0.467,-0.307,9.749,0.1739116154832678,3.2809522721216573,0.04907268170426066,0,0.05
1757395171.9816551,0.433,-0.31,9.735,0.1752540227783659,3.1311129597382976,0.050776942355889726,0,0.05
1757395172.0066824,0.433,-0.31,9.735,0.1752540227783659,3.1311129597382976,0.050776942355889726,0,0.05
1757395172.0315828,0.416,-0.3,9.731,0.17648402902245858,3.0170853183772626,0.05162907268170427,0,0.05
1757395172.0565934,0.416,-0.3,9.731,0.17648402902245858,3.0170853183772626,0.05162907268170427,0,0.05
1757395172.0814931,0.4,-0.29,9.728,0.17761366079218116,2.9074346961292266,0.052431077694235585,0,0.05
1757395172.106444,0.4,-0.29,9.728,0.17761366079218116,2.9074346961292266,0.052431077694235585,0,0.05
1757395172.1313665,0.398,-0.282,9.742,0.1787249912575183,2.8663865452751756,0.052531328320802005,0,0.05
1757395172.1563084,0.398,-0.282,9.742,0.1787249912575183,2.8663865452751756,0.052531328320802005,0,0.05
1757395172.1812356,0.402,-0.285,9.741,0.17985169584966387,2.8960049642773145,0.05273182957393484,0,0.05
1757395172.206145,0.402,-0.285,9.741,0.17985169584966387,2.8960049642773145,0.05273182957393484,0,0.05
1757395172.2309685,0.402,-0.285,9.741,0.17985169584966387,2.8960049642773145,0.05273182957393484,0,0.05
1757395172.255834,0.406,-0.292,9.739,0.18099370845418908,2.9395701264019425,0.052932330827067664,0,0.05
1757395172.280773,0.406,-0.292,9.739,0.18099370845418908,2.9395701264019425,0.052932330827067664,0,0.05
1757395172.3057313,0.41,-0.287,9.737,0.18215096074410367,2.942337232915282,0.05313283208020051,0,0.05
1757395172.330697,0.41,-0.287,9.737,0.18215096074410367,2.942337232915282,0.05313283208020051,0,0.05
1757395172.3557181,0.407,-0.296,9.737,0.18328419189881054,2.9586853776729125,0.05328320802005011,0,0.05
1757395172.3807058,0.407,-0.296,9.737,0.18328419189881054,2.9586853776729125,0.05328320802005011,0,0.05
1757395172.4055946,0.417,-0.299,9.734,0.18446630451114915,3.0174959023202694,0.05378446115288219,0,0.05
1757395172.4306788,0.417,-0.299,9.734,0.18446630451114915,3.0174959023202694,0.05378446115288219,0,0.05
1757395172.4558077,0.43,-0.308,9.722,0.18571501689416503,3.114117433088579,0.0544360902255639,0,0.05
1757395172.4809709,0.43,-0.308,9.722,0.18571501689416503,3.114117433088579,0.0544360902255639,0,0.05
1757395172.5059443,0.428,-0.319,9.723,0.18694391538640673,3.142440746128901,0.05453634085213033,0,0.05
1757395172.5308368,0.428,-0.319,9.723,0.18694391538640673,3.142440746128901,0.05453634085213033,0,0.05
1757395172.5557826,0.428,-0.319,9.723,0.18694391538640673,3.142440746128901,0.05453634085213033,0,0.05
1757395172.580781,0.436,-0.329,9.723,0.18821069974897814,3.2152865481601838,0.05493734335839599,0,0.05
1757395172.6059477,0.436,-0.329,9.723,0.18821069974897814,3.2152865481601838,0.05493734335839599,0,0.05
1757395172.6308563,0.436,-0.327,9.728,0.18946901461716636,3.2065780864268727,0.05493734335839599,0,0.05
1757395172.6575563,0.436,-0.327,9.728,0.18946901461716636,3.2065780864268727,0.05493734335839599,0,0.05
1757395172.6841493,0.45,-0.331,9.714,0.19080030791379765,3.291290517746975,0.05563909774436091,0,0.05
1757395172.711104,0.45,-0.331,9.714,0.19080030791379765,3.291290517746975,0.05563909774436091,0,0.05
1757395172.7374644,0.47,-0.343,9.715,0.19224205445219317,3.427457857844986,0.05664160401002507,0,0.05
1757395172.764579,0.47,-0.343,9.715,0.19224205445219317,3.427457857844986,0.05664160401002507,0,0.05
1757395172.7914712,0.446,-0.355,9.794,0.1935311279872052,3.3310036680599104,0.05784461152882206,0,0.05
1757395172.8181925,0.446,-0.355,9.794,0.1935311279872052,3.3310036680599104,0.05784461152882206,0,0.05
1757395172.8436043,0.862,-0.442,9.697,0.19827230643738425,5.704828455075779,0.07869674185463658,0,0.05
1757395172.8696525,0.862,-0.442,9.697,0.19827230643738425,5.704828455075779,0.07869674185463658,0,0.05
1757395172.896479,0.326,-0.599,9.772,0.1989411910590665,3.9920689811775296,0.10556390977443608,0,0.05
1757395172.923739,0.326,-0.599,9.772,0.1989411910590665,3.9920689811775296,0.10556390977443608,0,0.05
1757395172.950499,0.824,-0.683,9.871,0.2031625888297351,6.188125957178628,0.13052631578947368,0,0.05
1757395172.9778466,0.824,-0.683,9.871,0.2031625888297351,6.188125957178628,0.13052631578947368,0,0.05
1757395173.0053093,0.81,-0.15,9.664,0.2071600528576878,4.872188290091351,0.13122807017543858,0,0.05
1757395173.0330794,0.81,-0.15,9.664,0.2071600528576878,4.872188290091351,0.13122807017543858,0,0.05
1757395173.05997,0.81,-0.359,9.832,0.21108182655074784,5.149189894499774,0.13122807017543858,0,0.05
1757395173.087077,0.81,-0.359,9.832,0.21108182655074784,5.149189894499774,0.13122807017543858,0,0.05
1757395173.1139874,1.004,-0.465,9.807,0.21696907037640178,6.437056040019422,0.14095238095238094,0,0.05
1757395173.14192,1.004,-0.465,9.807,0.21696907037640178,6.437056040019422,0.14095238095238094,0,0.05
1757395173.1685286,0.549,-0.229,9.799,0.2186986053910724,3.473865076172545,0.16375939849624058,0,0.05
1757395173.1957161,0.549,-0.229,9.799,0.2186986053910724,3.473865076172545,0.16375939849624058,0,0.05
1757395173.2221081,0.89,-0.408,9.783,0.223180039430053,5.71501643674735,0.1808521303258145,0,0.05
1757395173.2488637,0.89,-0.408,9.783,0.223180039430053,5.71501643674735,0.1808521303258145,0,0.05
1757395173.2760084,0.711,-0.338,9.866,0.2259936558844075,4.562215955908543,0.18982456140350876,0,0.05
1757395173.304113,0.711,-0.338,9.866,0.2259936558844075,4.562215955908543,0.18982456140350876,0,0.05
1757395173.3301923,0.568,-0.534,9.803,0.227771140621458,4.546987517119362,0.19699248120300747,0,0.05
1757395173.3575337,0.568,-0.534,9.803,0.227771140621458,4.546987517119362,0.19699248120300747,0,0.05
1757395173.3843493,0.537,-0.354,9.709,0.22934823958338987,3.7900847028185134,0.19854636591478692,0,0.05
1757395173.4109612,0.537,-0.354,9.709,0.22934823958338987,3.7900847028185134,0.19854636591478692,0,0.05
1757395173.438189,0.641,-0.481,9.844,0.2315768069129549,4.654185424168503,0.20375939849624056,0,0.05
1757395173.4649107,0.641,-0.481,9.844,0.2315768069129549,4.654185424168503,0.20375939849624056,0,0.05
1757395173.491477,0.403,-0.565,9.855,0.23245180145569963,4.028173848931598,0.21568922305764407,0,0.05
1757395173.5185232,0.403,-0.565,9.855,0.23245180145569963,4.028173848931598,0.21568922305764407,0,0.05
1757395173.5452425,0.441,-0.41,9.75,0.23349527297142442,3.5340223853699877,0.21759398496240603,0,0.05
1757395173.5719702,0.441,-0.41,9.75,0.23349527297142442,3.5340223853699877,0.21759398496240603,0,0.05
1757395173.5986714,0.378,-0.367,9.857,0.23425894326578015,3.0595209046870564,0.22075187969924814,0,0.05
1757395173.6248107,0.378,-0.367,9.857,0.23425894326578015,3.0595209046870564,0.22075187969924814,0,0.05
1757395173.6517074,0.355,-0.301,9.84,0.23493044715404598,2.708066085553207,0.2219047619047619,0,0.05
1757395173.6780567,0.355,-0.301,9.84,0.23493044715404598,2.708066085553207,0.2219047619047619,0,0.05
1757395173.7040648,0.377,-0.39,9.762,0.23568546306465318,3.1803886982551184,0.2230075187969925,0,0.05
1757395173.7300189,0.377,-0.39,9.762,0.23568546306465318,3.1803886982551184,0.2230075187969925,0,0.05
1757395173.757201,0.504,-0.332,9.731,0.23702885372882349,3.5489759610629044,0.22937343358395992,0,0.05
1757395173.784141,0.504,-0.332,9.731,0.23702885372882349,3.5489759610629044,0.22937343358395992,0,0.05
1757395173.8104107,0.595,-0.392,9.808,0.23888855142095025,4.155074186140164,0.2339348370927318,0,0.05
1757395173.836846,0.595,-0.392,9.808,0.23888855142095025,4.155074186140164,0.2339348370927318,0,0.05
1757395173.863238,0.39,-0.313,9.801,0.23968310328431583,2.920826327446591,0.24421052631578946,0,0.05
1757395173.8896801,0.39,-0.313,9.801,0.23968310328431583,2.920826327446591,0.24421052631578946,0,0.05
1757395173.9162526,0.417,-0.386,9.843,0.24058826342945328,3.303979343829399,0.24556390977443607,0,0.05
1757395173.9422095,0.417,-0.386,9.843,0.24058826342945328,3.303979343829399,0.24556390977443607,0,0.05
1757395173.9675796,0.475,-0.355,9.743,0.2417576782648278,3.4829707218692243,0.24847117794486212,0,0.05
1757395173.994282,0.475,-0.355,9.743,0.2417576782648278,3.4829707218692243,0.24847117794486212,0,0.05
1757395174.0210612,0.436,-0.403,9.646,0.24273857336649235,3.5221712510953296,0.2504260651629072,0,0.05
1757395174.0466373,0.436,-0.403,9.646,0.24273857336649235,3.5221712510953296,0.2504260651629072,0,0.05
1757395174.0727303,0.575,-0.23,9.78,0.24443522148004776,3.623273803686926,0.2573934837092732,0,0.05
1757395174.099543,0.575,-0.23,9.78,0.24443522148004776,3.623273803686926,0.2573934837092732,0,0.05
1757395174.1257992,0.346,-0.356,9.781,0.245046663923425,2.905581296480977,0.26887218045112776,0,0.05
1757395174.1522148,0.346,-0.356,9.781,0.245046663923425,2.905581296480977,0.26887218045112776,0,0.05
1757395174.1790414,0.577,-0.278,9.646,0.24673911323501185,3.798770611116733,0.2804511278195489,0,0.05
1757395174.2065482,0.577,-0.278,9.646,0.24673911323501185,3.798770611116733,0.2804511278195489,0,0.05
1757395174.2333796,0.383,-0.271,9.707,0.2474811356447194,2.7671924401498265,0.29017543859649125,0,0.05
1757395174.2607567,0.383,-0.271,9.707,0.2474811356447194,2.7671924401498265,0.29017543859649125,0,0.05
1757395174.2876403,0.383,-0.271,9.707,0.2474811356447194,2.7671924401498265,0.29017543859649125,0,0.05
1757395174.313942,0.574,-0.195,9.624,0.2491397248533441,3.604316095665116,0.29974937343358393,0,0.05
1757395174.339628,0.625,-0.345,9.649,0.25109194531087614,4.2314164131357215,0.3023057644110275,0,0.05
1757395174.3646066,0.625,-0.345,9.649,0.25109194531087614,4.2314164131357215,0.3023057644110275,0,0.05
1757395174.3909712,0.625,-0.345,9.649,0.25109194531087614,4.2314164131357215,0.3023057644110275,0,0.05
1757395174.4177296,0.521,-0.415,9.76,0.2524396313972907,3.904163508982094,0.30751879699248114,0,0.05
1757395174.4443278,0.521,-0.415,9.76,0.2524396313972907,3.904163508982094,0.30751879699248114,0,0.05
1757395174.4698045,0.54,-0.285,9.888,0.25387943496864807,3.533585324592578,0.30847117794486206,0,0.05
1757395174.4962118,0.54,-0.285,9.888,0.25387943496864807,3.533585324592578,0.30847117794486206,0,0.05
1757395174.5218036,0.508,-0.323,9.89,0.2551468743684704,3.4832187351176995,0.3100751879699247,0,0.05
1757395174.5474353,0.508,-0.323,9.89,0.2551468743684704,3.4832187351176995,0.3100751879699247,0,0.05
1757395174.5726624,0.601,-0.387,9.884,0.2569103540147808,4.1364915200859,0.3147368421052631,0,0.05
1757395174.5985508,0.601,-0.387,9.884,0.2569103540147808,4.1364915200859,0.3147368421052631,0,0.05
1757395174.624714,0.507,-0.258,9.984,0.25815799910132553,3.2610819990519704,0.31944862155388465,0,0.05
1757395174.6505873,0.507,-0.258,9.984,0.25815799910132553,3.2610819990519704,0.31944862155388465,0,0.05
1757395174.6773984,0.376,-0.298,9.898,0.2588416359475422,2.7750396886264834,0.32601503759398487,0,0.05
1757395174.7044976,0.376,-0.298,9.898,0.2588416359475422,2.7750396886264834,0.32601503759398487,0,0.05
1757395174.7319698,0.545,-0.476,9.802,0.26027207879448,4.222027936538187,0.33448621553884705,0,0.05
1757395174.7586598,0.545,-0.476,9.802,0.26027207879448,4.222027936538187,0.33448621553884705,0,0.05
1757395174.7852273,0.458,-0.367,9.768,0.26127756313927913,3.4384298483805344,0.3388471177944862,0,0.05
1757395174.811682,0.458,-0.367,9.768,0.26127756313927913,3.4384298483805344,0.3388471177944862,0,0.05
1757395174.8374126,0.452,-0.385,9.88,0.2622531696662597,3.4390708145989923,0.3391478696741854,0,0.05
1757395174.8634806,0.452,-0.385,9.88,0.2622531696662597,3.4390708145989923,0.3391478696741854,0,0.05
1757395174.8896687,0.379,-0.31,9.918,0.2629369268474856,2.826293329808258,0.34280701754385967,0,0.05
1757395174.915709,0.379,-0.31,9.918,0.2629369268474856,2.826293329808258,0.34280701754385967,0,0.05
1757395174.94151,0.524,-0.242,9.868,0.26423903477722593,3.3474365739731793,0.3500751879699248,0,0.05
1757395174.967408,0.524,-0.242,9.868,0.26423903477722593,3.3474365739731793,0.3500751879699248,0,0.05
1757395174.9929135,0.524,-0.242,9.868,0.26423903477722593,3.3474365739731793,0.3500751879699248,0,0.05
1757395175.019693,0.377,-0.288,9.905,0.2649105320669603,2.7421933636646147,0.3574436090225564,0,0.05
1757395175.0472536,0.23,-0.44,9.764,0.2651600271534154,2.9109144247739267,0.364812030075188,0,0.05
1757395175.0732317,0.23,-0.44,9.764,0.2651600271534154,2.9109144247739267,0.364812030075188,0,0.05
1757395175.0989757,0.395,-0.378,9.745,0.2658945326628586,3.21111047831896,0.37308270676691735,0,0.05
1757395175.1257343,0.395,-0.378,9.745,0.2658945326628586,3.21111047831896,0.37308270676691735,0,0.05
1757395175.1526144,0.405,-0.329,9.764,0.2666645176996745,3.058994167252362,0.37358395989974935,0,0.05
1757395175.1787865,0.405,-0.329,9.764,0.2666645176996745,3.058994167252362,0.37358395989974935,0,0.05
1757395175.2039886,0.171,-0.295,9.747,0.2668015507825995,2.003553586951863,0.38531328320802005,0,0.05
1757395175.2303445,0.171,-0.295,9.747,0.2668015507825995,2.003553586951863,0.38531328320802005,0,0.05
1757395175.2562776,0.1,-0.252,9.708,0.2668483979715824,1.5996887268481892,0.38887218045112776,0,0.05
1757395175.2827234,0.1,-0.252,9.708,0.2668483979715824,1.5996887268481892,0.38887218045112776,0,0.05
1757395175.3080745,0.1,-0.252,9.708,0.2668483979715824,1.5996887268481892,0.38887218045112776,0,0.05
1757395175.334796,0.369,-0.207,9.687,0.2674854575486301,2.5008983864877194,0.4023558897243107,0,0.05
1757395175.3625093,0.369,-0.207,9.687,0.2674854575486301,2.5008983864877194,0.4023558897243107,0,0.05
1757395175.389548,0.434,-0.366,9.51,0.2683642301052806,3.416372619709491,0.40561403508771926,0,0.05
1757395175.4177144,0.434,-0.366,9.51,0.2683642301052806,3.416372619709491,0.40561403508771926,0,0.05
1757395175.4444728,0.134,-0.321,9.667,0.2684478534091863,2.060776454465831,0.4206516290726817,0,0.05
1757395175.4715164,0.394,-0.28,9.665,0.2691697234088559,2.863050256800838,0.43368421052631567,0,0.05
1757395175.4975827,0.394,-0.28,9.665,0.2691697234088559,2.863050256800838,0.43368421052631567,0,0.05
1757395175.5238616,0.394,-0.28,9.665,0.2691697234088559,2.863050256800838,0.43368421052631567,0,0.05
1757395175.5507052,0.426,-0.431,9.541,0.27001116643576056,3.6342848071172016,0.4352882205513784,0,0.05
1757395175.5775456,0.426,-0.431,9.541,0.27001116643576056,3.6342848071172016,0.4352882205513784,0,0.05
1757395175.603449,0.4,-0.3,9.782,0.2707508633411905,2.926086651576188,0.43659147869674175,0,0.05
1757395175.6293993,0.4,-0.3,9.782,0.2707508633411905,2.926086651576188,0.43659147869674175,0,0.05
1757395175.6557043,0.3,-0.269,9.763,0.2711660561353504,2.3633812849661,0.4416040100250626,0,0.05
1757395175.683435,0.3,-0.269,9.763,0.2711660561353504,2.3633812849661,0.4416040100250626,0,0.05
1757395175.7104387,0.434,-0.357,9.701,0.2720329391820042,3.3153588528278304,0.4483208020050125,0,0.05
1757395175.7375102,0.434,-0.357,9.701,0.2720329391820042,3.3153588528278304,0.4483208020050125,0,0.05
1757395175.7643907,0.374,-0.422,9.759,0.27267491633811863,3.306899125753202,0.4513283208020049,0,0.05
1757395175.7912288,0.374,-0.422,9.759,0.27267491633811863,3.306899125753202,0.4513283208020049,0,0.05
1757395175.8183947,0.368,-0.407,9.77,0.27329502373808423,3.2144597069120477,0.4516290726817042,0,0.05
1757395175.845261,0.368,-0.407,9.77,0.27329502373808423,3.2144597069120477,0.4516290726817042,0,0.05
1757395175.8719435,0.496,-0.276,9.711,0.274417947663778,3.34520078605271,0.4580451127819549,0,0.05
1757395175.8990674,0.496,-0.276,9.711,0.274417947663778,3.34520078605271,0.4580451127819549,0,0.05
1757395175.9260821,0.346,-0.344,9.617,0.27496272474646455,2.904335194332159,0.4655639097744361,0,0.05
1757395175.953292,0.346,-0.344,9.617,0.27496272474646455,2.904335194332159,0.4655639097744361,0,0.05
1757395175.980172,0.429,-0.337,9.568,0.27579811910163565,3.263286991031483,0.4697243107769424,0,0.05
1757395176.007221,0.429,-0.337,9.568,0.27579811910163565,3.263286991031483,0.4697243107769424,0,0.05
1757395176.033989,0.37,-0.257,9.737,0.2764178946812236,2.6489961249856884,0.4726817042606517,0,0.05
1757395176.0606503,0.37,-0.257,9.737,0.2764178946812236,2.6489961249856884,0.4726817042606517,0,0.05
1757395176.0862114,0.372,-0.476,9.721,0.27704297951761925,3.5561179774977694,0.472781954887218,0,0.05
1757395176.1128592,0.372,-0.476,9.721,0.27704297951761925,3.5561179774977694,0.472781954887218,0,0.05
1757395176.1397967,0.377,-0.395,9.693,0.27768351589534446,3.2242297002289204,0.473032581453634,0,0.05
1757395176.1668465,0.377,-0.395,9.693,0.27768351589534446,3.2242297002289204,0.473032581453634,0,0.05
1757395176.1938338,0.294,-0.251,9.812,0.27807233771089135,2.256158530991884,0.4771929824561403,0,0.05
1757395176.2205102,0.294,-0.251,9.812,0.27807233771089135,2.256158530991884,0.4771929824561403,0,0.05
1757395176.2475019,0.324,-0.223,9.702,0.27854382958521984,2.321537904080887,0.47869674185463656,0,0.05
1757395176.2742665,0.324,-0.223,9.702,0.27854382958521984,2.321537904080887,0.47869674185463656,0,0.05
1757395176.2998338,0.207,-0.224,9.723,0.2787360534627697,1.796717495688668,0.48456140350877186,0,0.05
1757395176.3266463,0.207,-0.224,9.723,0.2787360534627697,1.796717495688668,0.48456140350877186,0,0.05
1757395176.353503,0.366,-0.163,9.584,0.2793361371179891,2.3938358294318194,0.492531328320802,0,0.05
1757395176.3804877,0.366,-0.163,9.584,0.2793361371179891,2.3938358294318194,0.492531328320802,0,0.05
1757395176.4082274,0.449,-0.078,9.572,0.2802368284148249,2.725804392348364,0.49669172932330813,0,0.05
1757395176.4354196,0.449,-0.078,9.572,0.2802368284148249,2.725804392348364,0.49669172932330813,0,0.05
1757395176.462442,0.318,-0.28,9.617,0.2806875308951219,2.5226878212031023,0.5032581453634085,0,0.05
1757395176.4895334,0.318,-0.28,9.617,0.2806875308951219,2.5226878212031023,0.5032581453634085,0,0.05
1757395176.5166693,0.314,-0.238,9.729,0.2811262705618242,2.31909739213005,0.5034586466165414,0,0.05
1757395176.5437772,0.314,-0.238,9.729,0.2811262705618242,2.31909739213005,0.5034586466165414,0,0.05
1757395176.5707736,0.244,-0.183,9.933,0.2813908669448957,1.758756039084943,0.506967418546366,0,0.05
1757395176.5979111,0.244,-0.183,9.933,0.2813908669448957,1.758756039084943,0.506967418546366,0,0.05
1757395176.6249015,0.342,-0.316,9.737,0.2819099678975541,2.737892524602305,0.5118796992481204,0,0.05
1757395176.6518598,0.342,-0.316,9.737,0.2819099678975541,2.737892524602305,0.5118796992481204,0,0.05
1757395176.6787806,0.305,-0.221,9.767,0.2823221431273148,2.2084392521582874,0.5137343358395992,0,0.05
1757395176.7058957,0.305,-0.221,9.767,0.2823221431273148,2.2084392521582874,0.5137343358395992,0,0.05
1757395176.7326844,0.488,-0.295,9.836,0.2833745798408884,3.3179728549033696,0.5229072681704261,0,0.05
1757395176.7593033,0.488,-0.295,9.836,0.2833745798408884,3.3179728549033696,0.5229072681704261,0,0.05
1757395176.78626,0.307,-0.335,9.81,0.2837900192043406,2.6520151884815073,0.5319799498746868,0,0.05
1757395176.8133767,0.307,-0.335,9.81,0.2837900192043406,2.6520151884815073,0.5319799498746868,0,0.05
1757395176.8400683,0.341,-0.36,9.803,0.2843017367164682,2.895717068160044,0.5336842105263159,0,0.05
1757395176.86707,0.341,-0.36,9.803,0.2843017367164682,2.895717068160044,0.5336842105263159,0,0.05
1757395176.893875,0.609,-0.359,9.874,0.28592775311256513,4.095158414639152,0.5471177944862156,0,0.05
1757395176.9211926,0.609,-0.359,9.874,0.28592775311256513,4.095158414639152,0.5471177944862156,0,0.05
1757395176.9475365,0.515,-0.323,9.879,0.28708490468849107,3.521286229949894,0.5518295739348371,0,0.05
1757395176.9724813,0.515,-0.323,9.879,0.28708490468849107,3.521286229949894,0.5518295739348371,0,0.05
1757395176.9978845,0.348,-0.247,9.862,0.28761172177086247,2.477748733929154,0.5602005012531328,0,0.05
1757395177.0240521,0.348,-0.247,9.862,0.28761172177086247,2.477748733929154,0.5602005012531328,0,0.05
1757395177.050124,0.404,-0.363,9.888,0.28832020827545196,3.1439667742082347,0.5630075187969925,0,0.05
1757395177.075997,0.404,-0.363,9.888,0.28832020827545196,3.1439667742082347,0.5630075187969925,0,0.05
1757395177.1033108,0.537,-0.335,9.783,0.28956772092206684,3.701672255878867,0.5696741854636592,0,0.05
1757395177.130253,0.537,-0.335,9.783,0.28956772092206684,3.701672255878867,0.5696741854636592,0,0.05
1757395177.156612,0.433,-0.33,9.694,0.2903759416687271,3.214361356099636,0.5748872180451127,0,0.05
1757395177.1819105,0.433,-0.33,9.694,0.2903759416687271,3.214361356099636,0.5748872180451127,0,0.05
1757395177.2080297,0.757,-0.271,9.63,0.29283239233390834,4.772776506040465,0.5911278195488721,0,0.05
1757395177.2353628,0.757,-0.271,9.63,0.29283239233390834,4.772776506040465,0.5911278195488721,0,0.05
1757395177.2632236,0.464,-0.29,9.644,0.29374997872340347,3.2473048935299866,0.605814536340852,0,0.05
1757395177.2896235,0.464,-0.29,9.644,0.29374997872340347,3.2473048935299866,0.605814536340852,0,0.05
1757395177.315602,0.752,-0.328,9.494,0.2961466022091086,4.938917643719245,0.620250626566416,0,0.05
1757395177.3418884,0.752,-0.328,9.494,0.2961466022091086,4.938917643719245,0.620250626566416,0,0.05
1757395177.3684232,0.515,-0.325,9.546,0.2972639778042405,3.6501628480343964,0.6321303258145363,0,0.05
1757395177.3949757,0.515,-0.325,9.546,0.2972639778042405,3.6501628480343964,0.6321303258145363,0,0.05
1757395177.421886,0.735,-0.277,9.473,0.29952701881466387,4.739899902016504,0.6431578947368422,0,0.05
1757395177.4484832,0.735,-0.277,9.473,0.29952701881466387,4.739899902016504,0.6431578947368422,0,0.05
1757395177.4749827,0.721,-0.54,9.545,0.3016886433063068,5.391266256165548,0.6438596491228069,0,0.05
1757395177.501994,0.721,-0.54,9.545,0.3016886433063068,5.391266256165548,0.6438596491228069,0,0.05
1757395177.528801,0.366,-0.535,9.76,0.3022431595586573,3.799738243335078,0.6616541353383458,0,0.05
1757395177.5560238,0.366,-0.535,9.76,0.3022431595586573,3.799738243335078,0.6616541353383458,0,0.05
1757395177.582239,0.542,-0.413,9.762,0.30345565985824025,3.9929578169149633,0.6704761904761904,0,0.05
1757395177.6086762,0.542,-0.413,9.762,0.30345565985824025,3.9929578169149633,0.6704761904761904,0,0.05
1757395177.6358871,0.424,-0.447,9.826,0.30419529499977477,3.587833013002399,0.676390977443609,0,0.05
1757395177.6629589,0.424,-0.447,9.826,0.30419529499977477,3.587833013002399,0.676390977443609,0,0.05
1757395177.6896164,0.424,-0.447,9.826,0.30419529499977477,3.587833013002399,0.676390977443609,0,0.05
1757395177.7158923,0.34,-0.481,9.875,0.3046699484688308,3.4135917252157917,0.6806015037593987,0,0.05
1757395177.7427611,0.34,-0.481,9.875,0.3046699484688308,3.4135917252157917,0.6806015037593987,0,0.05
1757395177.7696276,0.287,-0.358,9.794,0.3050077048207143,2.6822866649236494,0.6832581453634087,0,0.05
1757395177.795623,0.287,-0.358,9.794,0.3050077048207143,2.6822866649236494,0.6832581453634087,0,0.05
1757395177.8222418,0.23,-0.424,9.765,0.3052244256280942,2.8279603240460527,0.6861152882205513,0,0.05
1757395177.8479836,0.23,-0.424,9.765,0.3052244256280942,2.8279603240460527,0.6861152882205513,0,0.05
1757395177.8755302,0.397,-0.456,9.713,0.3058692081593046,3.561883347309589,0.694486215538847,0,0.05
1757395177.9015536,0.397,-0.456,9.713,0.3058692081593046,3.561883347309589,0.694486215538847,0,0.05
1757395177.927451,0.334,-0.443,9.69,0.3063247663836537,3.2768970938374404,0.6976441102756891,0,0.05
1757395177.9546452,0.334,-0.443,9.69,0.3063247663836537,3.2768970938374404,0.6976441102756891,0,0.05
1757395177.981882,0.148,-0.325,9.754,0.30641413560735087,2.0967682129983762,0.7069674185463659,0,0.05
1757395178.0091305,0.148,-0.325,9.754,0.30641413560735087,2.0967682129983762,0.7069674185463659,0,0.05
1757395178.0360236,0.342,-0.365,9.792,0.30689091302936944,2.9242064020488145,0.7166917293233083,0,0.05
1757395178.0627832,0.342,-0.365,9.792,0.30689091302936944,2.9242064020488145,0.7166917293233083,0,0.05
1757395178.0894585,0.326,-0.3,9.823,0.3073234818558452,2.582366483281537,0.7174937343358395,0,0.05
1757395178.116304,0.326,-0.3,9.823,0.3073234818558452,2.582366483281537,0.7174937343358395,0,0.05
1757395178.142289,0.039,-0.347,9.696,0.3073296682717111,2.062517605110939,0.7318796992481202,0,0.05
1757395178.1697392,0.039,-0.347,9.696,0.3073296682717111,2.062517605110939,0.7318796992481202,0,0.05
1757395178.1970522,0.455,-0.315,9.663,0.30817054937161015,3.2777405210637784,0.7527318295739348,0,0.05
1757395178.2244043,0.455,-0.315,9.663,0.30817054937161015,3.2777405210637784,0.7527318295739348,0,0.05
1757395178.2517784,0.382,-0.369,9.579,0.30876187831401725,3.173569426944995,0.756390977443609,0,0.05
1757395178.2790842,0.382,-0.369,9.579,0.30876187831401725,3.173569426944995,0.756390977443609,0,0.05
1757395178.306213,0.494,-0.385,9.533,0.30974826472475997,3.7588666246562354,0.7620050125313282,0,0.05
1757395178.3331335,0.494,-0.385,9.533,0.30974826472475997,3.7588666246562354,0.7620050125313282,0,0.05
1757395178.3605347,0.627,-0.312,9.609,0.3113307084114897,4.168547589955961,0.768671679197995,0,0.05
1757395178.3879073,0.627,-0.312,9.609,0.3113307084114897,4.168547589955961,0.768671679197995,0,0.05
1757395178.4150255,0.184,-0.329,9.633,0.311466611372712,2.2409491113567377,0.7908771929824562,0,0.05
1757395178.4418557,0.662,-0.324,9.554,0.31322046548717086,4.411293549399134,0.8148370927318297,0,0.05
1757395178.4693568,0.662,-0.324,9.554,0.31322046548717086,4.411293549399134,0.8148370927318297,0,0.05
1757395178.4964366,0.656,-0.293,9.441,0.31493316751336303,4.351821341204199,0.8151378446115288,0,0.05
1757395178.5237384,0.656,-0.293,9.441,0.31493316751336303,4.351821341204199,0.8151378446115288,0,0.05
1757395178.550721,0.656,-0.293,9.441,0.31493316751336303,4.351821341204199,0.8151378446115288,0,0.05
1757395178.576686,0.436,-0.312,9.499,0.31568677514270377,3.2304112880730877,0.8261654135338345,0,0.05
1757395178.6030583,0.436,-0.312,9.499,0.31568677514270377,3.2304112880730877,0.8261654135338345,0,0.05
1757395178.629779,0.532,-0.298,9.45,0.3168054608115207,3.6919872962323517,0.8309774436090227,0,0.05
1757395178.656776,0.532,-0.298,9.45,0.3168054608115207,3.6919872962323517,0.8309774436090227,0,0.05
1757395178.6837966,0.532,-0.293,9.325,0.31792021011568294,3.7264838836251406,0.8309774436090227,0,0.05
1757395178.7106519,0.532,-0.293,9.325,0.31792021011568294,3.7264838836251406,0.8309774436090227,0,0.05
1757395178.737688,0.386,-0.233,9.451,0.31850549445810195,2.7312936375731405,0.8382957393483711,0,0.05
1757395178.7648382,0.386,-0.233,9.451,0.31850549445810195,2.7312936375731405,0.8382957393483711,0,0.05
1757395178.7918398,0.52,-0.262,9.486,0.31956493862750335,3.5125537995545333,0.8450125313283208,0,0.05
1757395178.8190475,0.52,-0.262,9.486,0.31956493862750335,3.5125537995545333,0.8450125313283208,0,0.05
1757395178.8459969,0.321,-0.278,9.364,0.3199677366548071,2.596520470805299,0.8549874686716793,0,0.05
1757395178.8728082,0.321,-0.278,9.364,0.3199677366548071,2.596520470805299,0.8549874686716793,0,0.05
1757395178.8999152,0.466,-0.361,9.523,0.32081496614092053,3.5420779935695963,0.8622556390977444,0,0.05
1757395178.9271197,0.466,-0.361,9.523,0.32081496614092053,3.5420779935695963,0.8622556390977444,0,0.05
1757395178.9529357,0.374,-0.282,9.417,0.32135950662770196,2.8475450203596666,0.8668671679197995,0,0.05
1757395178.9802191,0.374,-0.282,9.417,0.32135950662770196,2.8475450203596666,0.8668671679197995,0,0.05
1757395179.0071683,0.456,-0.468,9.616,0.3221673051381844,3.8873591626808506,0.8709774436090225,0,0.05
1757395179.0341716,0.456,-0.468,9.616,0.3221673051381844,3.8873591626808506,0.8709774436090225,0,0.05
1757395179.0613108,0.497,-0.494,9.768,0.3231242717593341,4.103309310292031,0.873032581453634,0,0.05
1757395179.0878026,0.497,-0.494,9.768,0.3231242717593341,4.103309310292031,0.873032581453634,0,0.05
1757395179.1147988,0.474,-0.385,9.632,0.3239922607100361,3.6276224135792456,0.8741854636591477,0,0.05
1757395179.1415205,0.474,-0.385,9.632,0.3239922607100361,3.6276224135792456,0.8741854636591477,0,0.05
1757395179.1685312,0.35,-0.348,9.666,0.32446453581246754,2.923082209769012,0.8804010025062656,0,0.05
1757395179.1948168,0.35,-0.348,9.666,0.32446453581246754,2.923082209769012,0.8804010025062656,0,0.05
1757395179.2214358,0.605,-0.339,9.726,0.32587159664505894,4.078515528659927,0.8931829573934837,0,0.05
1757395179.249063,0.605,-0.339,9.726,0.32587159664505894,4.078515528659927,0.8931829573934837,0,0.05
1757395179.2768617,0.412,-0.25,9.637,0.32652206280740054,2.8628026055719813,0.9028571428571427,0,0.05
1757395179.3046682,0.412,-0.25,9.637,0.32652206280740054,2.8628026055719813,0.9028571428571427,0,0.05
1757395179.3321283,0.503,-0.244,9.574,0.32748920592898934,3.341893452286497,0.9074185463659147,0,0.05
1757395179.3590324,0.503,-0.244,9.574,0.32748920592898934,3.341893452286497,0.9074185463659147,0,0.05
1757395179.3857305,0.44,-0.359,9.562,0.32822732975789815,3.3987259755253145,0.910576441102757,0,0.05
1757395179.4126353,0.44,-0.359,9.562,0.32822732975789815,3.3987259755253145,0.910576441102757,0,0.05
1757395179.4401326,0.384,-0.167,9.742,0.32878841220456656,2.4612399365962268,0.9133834586466164,0,0.05
1757395179.4661653,0.384,-0.167,9.742,0.32878841220456656,2.4612399365962268,0.9133834586466164,0,0.05
1757395179.4923077,0.3,-0.15,9.682,0.32913039968984936,1.9840845321122416,0.9175939849624062,0,0.05
1757395179.5185976,0.3,-0.15,9.682,0.32913039968984936,1.9840845321122416,0.9175939849624062,0,0.05
1757395179.5447185,0.398,-0.185,9.614,0.3297314513357802,2.613833507148882,0.9225062656641605,0,0.05
1757395179.5708675,0.398,-0.185,9.614,0.3297314513357802,2.613833507148882,0.9225062656641605,0,0.05
1757395179.5965881,0.347,-0.159,9.772,0.33018760197802705,2.2368317942613563,0.9250626566416039,0,0.05
1757395179.6220539,0.347,-0.159,9.772,0.33018760197802705,2.2368317942613563,0.9250626566416039,0,0.05
1757395179.6506302,0.241,-0.106,9.682,0.3304074076046117,1.5576519426190394,0.9303759398496241,0,0.05
1757395179.6766613,0.241,-0.106,9.682,0.3304074076046117,1.5576519426190394,0.9303759398496241,0,0.05
1757395179.7035658,0.18,-0.309,9.753,0.33052996082049807,2.0998724272885783,0.9334335839598998,0,0.05
1757395179.730338,0.18,-0.309,9.753,0.33052996082049807,2.0998724272885783,0.9334335839598998,0,0.05
1757395179.7572393,0.369,-0.271,10.008,0.3310444947435314,2.619210337736619,0.942907268170426,0,0.05
1757395179.7826633,0.369,-0.271,10.008,0.3310444947435314,2.619210337736619,0.942907268170426,0,0.05
1757395179.808574,0.239,-0.241,10.06,0.33126010927970184,1.932368519716303,0.9494235588972433,0,0.05
1757395179.8351078,0.239,-0.241,10.06,0.33126010927970184,1.932368519716303,0.9494235588972433,0,0.05
1757395179.861081,0.334,-0.153,10.014,0.33168079534395717,2.1010234634501566,0.9541854636591479,0,0.05
1757395179.888089,0.334,-0.153,10.014,0.33168079534395717,2.1010234634501566,0.9541854636591479,0,0.05
1757395179.9155517,0.182,-0.324,10.11,0.33180560573926415,2.1051005127246185,0.9618045112781954,0,0.05
1757395179.9427378,0.182,-0.324,10.11,0.33180560573926415,2.1051005127246185,0.9618045112781954,0,0.05
1757395179.9693482,0.22,-0.192,10.019,0.33198789134545253,1.6693914616823315,0.9637092731829575,0,0.05
1757395179.9963653,0.22,-0.192,10.019,0.33198789134545253,1.6693914616823315,0.9637092731829575,0,0.05
1757395180.0225434,0.395,-0.268,9.949,0.3325748374426424,2.7468431517502006,0.9724812030075187,0,0.05
1757395180.0491898,0.395,-0.268,9.949,0.3325748374426424,2.7468431517502006,0.9724812030075187,0,0.05
1757395180.075496,0.246,-0.196,9.944,0.33280221228231044,1.8116952162301883,0.9799498746867168,0,0.05
1757395180.102969,0.246,-0.196,9.944,0.33280221228231044,1.8116952162301883,0.9799498746867168,0,0.05
1757395180.1296184,0.221,-0.181,9.983,0.33298560779709385,1.6390547895876553,0.9812030075187969,0,0.05
1757395180.1563067,0.221,-0.181,9.983,0.33298560779709385,1.6390547895876553,0.9812030075187969,0,0.05
1757395180.1823692,0.34,-0.177,9.949,0.3334192780869157,2.206389658456174,0.9871679197994987,0,0.05
1757395180.2080572,0.34,-0.177,9.949,0.3334192780869157,2.206389658456174,0.9871679197994987,0,0.05
1757395180.2353215,0.302,-0.294,10.012,0.33376102978029054,2.410548236266185,0.9890726817042607,0,0.05
1757395180.260974,0.302,-0.294,10.012,0.33376102978029054,2.410548236266185,0.9890726817042607,0,0.05
1757395180.2869377,0.476,-0.295,9.865,0.33460852499600185,3.248990325189403,0.9977944862155387,0,0.05
1757395180.3133621,0.476,-0.295,9.865,0.33460852499600185,3.248990325189403,0.9977944862155387,0,0.05
1757395180.3392422,0.567,-0.3,9.927,0.335807366655349,3.697262891888306,1.0023558897243108,0,0.05
1757395180.3646998,0.567,-0.3,9.927,0.335807366655349,3.697262891888306,1.0023558897243108,0,0.05
1757395180.391229,0.466,-0.335,9.96,0.3366147315552307,3.297862850885439,1.0074185463659147,0,0.05
1757395180.4180362,0.466,-0.335,9.96,0.3366147315552307,3.297862850885439,1.0074185463659147,0,0.05
1757395180.4441178,0.572,-0.261,9.907,0.33782752626155255,3.631320498842832,1.0127318295739347,0,0.05
1757395180.4702208,0.572,-0.261,9.907,0.33782752626155255,3.631320498842832,1.0127318295739347,0,0.05
1757395180.4968863,0.438,-0.108,9.871,0.3385366265265843,2.6166771283958403,1.019448621553885,0,0.05
1757395180.5222929,0.438,-0.108,9.871,0.3385366265265843,2.6166771283958403,1.019448621553885,0,0.05
1757395180.5486782,0.438,-0.108,9.871,0.3385366265265843,2.6166771283958403,1.019448621553885,0,0.05
1757395180.5755012,0.69,-0.213,9.766,0.3402900196890882,4.228930193236138,1.0320802005012533,0,0.05
1757395180.6027555,0.298,-0.229,9.738,0.34061607052515885,2.2101610396618714,1.0517293233082707,0,0.05
1757395180.629816,0.298,-0.229,9.738,0.34061607052515885,2.2101610396618714,1.0517293233082707,0,0.05
1757395180.6564243,0.337,-0.145,9.661,0.3410325937502162,2.1747271280252547,1.0536842105263158,0,0.05
1757395180.6818624,0.337,-0.145,9.661,0.3410325937502162,2.1747271280252547,1.0536842105263158,0,0.05
1757395180.708041,0.337,-0.145,9.661,0.3410325937502162,2.1747271280252547,1.0536842105263158,0,0.05
1757395180.7341492,0.372,-0.133,9.657,0.3415394413534109,2.34262186213317,1.0554385964912278,0,0.05
1757395180.7603984,0.372,-0.133,9.657,0.3415394413534109,2.34262186213317,1.0554385964912278,0,0.05
1757395180.7875328,0.339,-0.108,9.714,0.34195978199197635,2.097594661749312,1.057092731829574,0,0.05
1757395180.813972,0.339,-0.108,9.714,0.34195978199197635,2.097594661749312,1.057092731829574,0,0.05
1757395180.8399575,0.309,-0.193,9.787,0.34230862536605766,2.131852291626466,1.05859649122807,0,0.05
1757395180.8665726,0.309,-0.193,9.787,0.34230862536605766,2.131852291626466,1.05859649122807,0,0.05
1757395180.893523,0.18,-0.083,9.822,0.34242691921050833,1.1561102289765457,1.065062656641604,0,0.05
1757395180.9206402,0.18,-0.083,9.822,0.34242691921050833,1.1561102289765457,1.065062656641604,0,0.05
1757395180.9620917,0.077,-0.103,9.844,0.34244856183082445,0.7484586587028285,1.0702255639097744,0,0.05
1757395180.9886363,0.321,-0.246,9.893,0.3428244740388294,2.340924699122127,1.0824561403508772,0,0.05
1757395181.0139093,0.321,-0.246,9.893,0.3428244740388294,2.340924699122127,1.0824561403508772,0,0.05
1757395181.040057,0.2,-0.137,9.886,0.3429702902585004,1.4047180053544945,1.0885213032581453,0,0.05
1757395181.0659645,0.2,-0.137,9.886,0.3429702902585004,1.4047180053544945,1.0885213032581453,0,0.05
1757395181.0911329,0.128,-0.155,10.005,0.3430299986881614,1.1510287240856116,1.0921303258145363,0,0.05
1757395181.1165287,0.128,-0.155,10.005,0.3430299986881614,1.1510287240856116,1.0921303258145363,0,0.05
1757395181.1423912,0.128,-0.155,10.005,0.3430299986881614,1.1510287240856116,1.0921303258145363,0,0.05
1757395181.168579,0.287,-0.117,10.03,0.34333001980601696,1.7699063972147684,1.1001002506265662,0,0.05
1757395181.1939852,0.287,-0.117,10.03,0.34333001980601696,1.7699063972147684,1.1001002506265662,0,0.05
1757395181.2190824,0.263,-0.156,10.038,0.34358175882895764,1.7448519088447736,1.1013032581453632,0,0.05
1757395181.245168,0.263,-0.156,10.038,0.34358175882895764,1.7448519088447736,1.1013032581453632,0,0.05
1757395181.271038,0.277,-0.112,9.985,0.34386079668959063,1.7139772521398582,1.1020050125313285,0,0.05
1757395181.2962785,0.277,-0.112,9.985,0.34386079668959063,1.7139772521398582,1.1020050125313285,0,0.05
1757395181.3216796,0.329,-0.203,9.956,0.3442540486326922,2.223655879177971,1.1046115288220553,0,0.05
1757395181.347056,0.329,-0.203,9.956,0.3442540486326922,2.223655879177971,1.1046115288220553,0,0.05
1757395181.3728004,0.397,-0.22,9.849,0.34482585822411865,2.6385567005205104,1.1080200501253135,0,0.05
1757395181.3997028,0.397,-0.22,9.849,0.34482585822411865,2.6385567005205104,1.1080200501253135,0,0.05
1757395181.4264433,0.401,-0.298,9.85,0.3454082729177169,2.903628346216497,1.1082205513784462,0,0.05
1757395181.4528806,0.401,-0.298,9.85,0.3454082729177169,2.903628346216497,1.1082205513784462,0,0.05
1757395181.479784,0.703,-0.324,9.832,0.3471921622099209,4.501594013074518,1.1233583959899751,0,0.05
1757395181.5068793,0.703,-0.324,9.832,0.3471921622099209,4.501594013074518,1.1233583959899751,0,0.05
1757395181.5341468,0.515,-0.333,9.844,0.34814574534237813,3.564920467557531,1.132781954887218,0,0.05
1757395181.5608416,0.515,-0.333,9.844,0.34814574534237813,3.564920467557531,1.132781954887218,0,0.05
1757395181.5877495,0.709,-0.322,9.854,0.349945942253943,4.518305236399674,1.1425062656641605,0,0.05
1757395181.6137593,0.709,-0.322,9.854,0.349945942253943,4.518305236399674,1.1425062656641605,0,0.05
1757395181.6407905,0.83,-0.425,9.675,0.3523980881049158,5.505202807427942,1.1485714285714286,0,0.05
1757395181.6683202,0.83,-0.425,9.675,0.3523980881049158,5.505202807427942,1.1485714285714286,0,0.05
1757395181.6949208,0.666,-0.314,9.673,0.3539679399324182,4.3529659398564515,1.1567919799498747,0,0.05
1757395181.7223208,0.666,-0.314,9.673,0.3539679399324182,4.3529659398564515,1.1567919799498747,0,0.05
1757395181.7493815,0.722,-0.348,9.63,0.3558040366550104,4.75768042806689,1.1595989974937344,0,0.05
1757395181.7758822,0.722,-0.348,9.63,0.3558040366550104,4.75768042806689,1.1595989974937344,0,0.05
1757395181.8029325,0.546,-0.346,9.638,0.3568498318620873,3.836954597569247,1.1684210526315788,0,0.05
1757395181.830258,0.546,-0.346,9.638,0.3568498318620873,3.836954597569247,1.1684210526315788,0,0.05
1757395181.855683,0.509,-0.169,9.693,0.357756208890915,3.166999226278699,1.1702756892230577,0,0.05
1757395181.8828983,0.509,-0.169,9.693,0.357756208890915,3.166999226278699,1.1702756892230577,0,0.05
1757395181.9098558,0.657,0.06,9.593,0.35926122459848076,3.9341760603982086,1.1776942355889721,0,0.05
1757395181.9382436,0.657,0.06,9.593,0.35926122459848076,3.9341760603982086,1.1776942355889721,0,0.05
1757395181.9641097,0.476,0.101,9.498,0.3600487015668853,2.9327881655438013,1.1867669172932331,0,0.05
1757395181.9894688,0.476,0.101,9.498,0.3600487015668853,2.9327881655438013,1.1867669172932331,0,0.05
1757395182.016669,0.539,-0.049,9.548,0.3610559097979148,3.2443053058694096,1.189924812030075,0,0.05
1757395182.042669,0.539,-0.049,9.548,0.3610559097979148,3.2443053058694096,1.189924812030075,0,0.05
1757395182.0698795,0.554,-0.052,9.573,0.36211691482171887,3.3266008424328417,1.1906766917293234,0,0.05
1757395182.101384,0.554,-0.052,9.573,0.36211691482171887,3.3266008424328417,1.1906766917293234,0,0.05
1757395182.1326969,0.403,-0.066,9.659,0.36267710501215816,2.4209418421453512,1.1982456140350874,0,0.05
1757395182.1585135,0.403,-0.066,9.659,0.36267710501215816,2.4209418421453512,1.1982456140350874,0,0.05
1757395182.1854537,0.461,-0.28,9.852,0.3634088400135583,3.133663996879433,1.2011528822055135,0,0.05
1757395182.2106748,0.461,-0.28,9.852,0.3634088400135583,3.133663996879433,1.2011528822055135,0,0.05
1757395182.2357461,0.308,-0.311,9.975,0.36373499281757316,2.512534144340774,1.2088220551378446,0,0.05
1757395182.262284,0.308,-0.311,9.975,0.36373499281757316,2.512534144340774,1.2088220551378446,0,0.05
1757395182.2893028,0.333,-0.158,9.904,0.3641158709806537,2.131308117959956,1.210075187969925,0,0.05
1757395182.316879,0.333,-0.158,9.904,0.3641158709806537,2.131308117959956,1.210075187969925,0,0.05
1757395182.3446674,0.216,-0.393,9.892,0.36427600456247455,2.595689274028029,1.2159398496240603,0,0.05
1757395182.3724508,0.216,-0.393,9.892,0.36427600456247455,2.595689274028029,1.2159398496240603,0,0.05
1757395182.400227,0.342,-0.327,9.844,0.3646771414552878,2.751928507313891,1.2222556390977444,0,0.05
1757395182.4278986,0.342,-0.327,9.844,0.3646771414552878,2.751928507313891,1.2222556390977444,0,0.05
1757395182.454305,0.192,-0.339,9.909,0.3648034779165352,2.2515603679391494,1.2297744360902254,0,0.05
1757395182.4810526,0.192,-0.339,9.909,0.3648034779165352,2.2515603679391494,1.2297744360902254,0,0.05
1757395182.5083756,0.296,-0.533,9.915,0.3651035709220056,3.518703284710717,1.234987468671679,0,0.05
1757395182.5342243,0.296,-0.533,9.915,0.3651035709220056,3.518703284710717,1.234987468671679,0,0.05
1757395182.562066,0.398,-0.458,9.866,0.3656454942974137,3.5193129041006874,1.2401002506265664,0,0.05
1757395182.5878353,0.398,-0.458,9.866,0.3656454942974137,3.5193129041006874,1.2401002506265664,0,0.05
1757395182.6141682,0.344,-0.371,9.696,0.3660498155989155,2.9870108262012045,1.2428070175438597,0,0.05
1757395182.641303,0.344,-0.371,9.696,0.3660498155989155,2.9870108262012045,1.2428070175438597,0,0.05
1757395182.6681066,0.344,-0.371,9.696,0.3660498155989155,2.9870108262012045,1.2428070175438597,0,0.05
1757395182.6948361,0.401,-0.289,9.694,0.36659851336305227,2.918938560506348,1.2456641604010024,0,0.05
1757395182.7208552,0.35,-0.422,9.654,0.3670159669551177,3.2503642239613897,1.2482205513784461,0,0.05
1757395182.7481077,0.35,-0.422,9.654,0.3670159669551177,3.2503642239613897,1.2482205513784461,0,0.05
1757395182.7749684,0.174,-0.337,9.737,0.36711906787852905,2.230618778283085,1.2570426065162905,0,0.05
1757395182.8006876,0.174,-0.337,9.737,0.36711906787852905,2.230618778283085,1.2570426065162905,0,0.05
1757395182.8267963,0.269,-0.247,9.677,0.36736536649499224,2.1612495572410415,1.2618045112781953,0,0.05
1757395182.8534682,0.269,-0.247,9.677,0.36736536649499224,2.1612495572410415,1.2618045112781953,0,0.05
1757395182.8799906,0.371,-0.376,9.781,0.3678334065851007,3.0912421737846705,1.2669172932330826,0,0.05
1757395182.9077897,0.371,-0.376,9.781,0.3678334065851007,3.0912421737846705,1.2669172932330826,0,0.05
1757395182.9339783,0.152,-0.425,9.829,0.36791191201155743,2.6292671989038445,1.2778947368421052,0,0.05
1757395182.9610922,0.152,-0.425,9.829,0.36791191201155743,2.6292671989038445,1.2778947368421052,0,0.05
1757395182.9882202,0.424,-0.393,9.77,0.3685222042157026,3.386424621925574,1.2915288220551377,0,0.05
1757395183.015665,0.424,-0.393,9.77,0.3685222042157026,3.386424621925574,1.2915288220551377,0,0.05
1757395183.0431495,0.119,-0.482,9.868,0.36857023414811996,2.880200403484047,1.3068170426065162,0,0.05
1757395183.0710506,0.119,-0.482,9.868,0.36857023414811996,2.880200403484047,1.3068170426065162,0,0.05
1757395183.0976195,0.524,-0.571,9.816,0.36950028078473773,4.5142638245693005,1.3271177944862158,0,0.05
1757395183.123281,0.524,-0.571,9.816,0.36950028078473773,4.5142638245693005,1.3271177944862158,0,0.05
1757395183.1503522,0.431,-0.466,9.81,0.37012816699084117,3.702170558414697,1.331779448621554,0,0.05
1757395183.1771286,0.431,-0.466,9.81,0.37012816699084117,3.702170558414697,1.331779448621554,0,0.05
1757395183.2050617,0.358,-0.359,9.783,0.3705607507548526,2.966653395967952,1.335438596491228,0,0.05
1757395183.2328858,0.358,-0.359,9.783,0.3705607507548526,2.966653395967952,1.335438596491228,0,0.05
1757395183.260477,0.346,-0.403,9.767,0.370964364865414,3.112824542516469,1.3360401002506264,0,0.05
1757395183.2876148,0.346,-0.403,9.767,0.370964364865414,3.112824542516469,1.3360401002506264,0,0.05
1757395183.314944,0.482,-0.335,9.755,0.3717463785970214,3.443479655123237,1.342857142857143,0,0.05
1757395183.3418655,0.482,-0.335,9.755,0.3717463785970214,3.443479655123237,1.342857142857143,0,0.05
1757395183.3693936,0.198,-0.437,9.777,0.37187817897800884,2.809286204489813,1.357092731829574,0,0.05
1757395183.3965552,0.198,-0.437,9.777,0.37187817897800884,2.809286204489813,1.357092731829574,0,0.05
1757395183.4234667,0.505,-0.373,9.77,0.3727344128196376,3.67675191132775,1.3724812030075189,0,0.05
1757395183.4515357,0.505,-0.373,9.77,0.3727344128196376,3.67675191132775,1.3724812030075189,0,0.05
1757395183.4785678,0.343,-0.36,9.755,0.3731287512374248,2.91801096146822,1.3806015037593988,0,0.05
1757395183.5068145,0.343,-0.36,9.755,0.3731287512374248,2.91801096146822,1.3806015037593988,0,0.05
1757395183.534915,0.366,-0.398,9.775,0.3735772410091386,3.1660843898827324,1.3817543859649122,0,0.05
1757395183.562259,0.366,-0.398,9.775,0.3735772410091386,3.1660843898827324,1.3817543859649122,0,0.05
1757395183.5881958,0.432,-0.332,9.79,0.37420116915905005,3.185365263389542,1.3850626566416042,0,0.05
1757395183.614409,0.432,-0.332,9.79,0.37420116915905005,3.185365263389542,1.3850626566416042,0,0.05
1757395183.6398406,0.339,-0.24,9.816,0.3745848602119419,2.4229813227048256,1.3897243107769426,0,0.05
1757395183.6661131,0.339,-0.24,9.816,0.3745848602119419,2.4229813227048256,1.3897243107769426,0,0.05
1757395183.6921768,0.618,-0.215,9.672,0.3758571902997201,3.870281567698662,1.4037092731829572,0,0.05
1757395183.7183528,0.618,-0.215,9.672,0.3758571902997201,3.870281567698662,1.4037092731829572,0,0.05
1757395183.7444856,0.237,-0.287,9.701,0.3760439468998271,2.197240588210779,1.4228070175438594,0,0.05
1757395183.7707927,0.237,-0.287,9.701,0.3760439468998271,2.197240588210779,1.4228070175438594,0,0.05
1757395183.8012114,0.47,-0.18,9.664,0.3767775205608742,2.98120016009134,1.4344862155388471,0,0.05
1757395183.8273425,0.47,-0.18,9.664,0.3767775205608742,2.98120016009134,1.4344862155388471,0,0.05
1757395183.8578997,0.385,-0.189,9.736,0.37726895247290093,2.5223569821787892,1.43874686716792,0,0.05
1757395183.884038,0.385,-0.189,9.736,0.37726895247290093,2.5223569821787892,1.43874686716792,0,0.05
1757395183.9096336,0.561,-0.119,9.497,0.37831027609622236,3.455645670078794,1.4475689223057646,0,0.05
1757395183.9404266,0.561,-0.119,9.497,0.37831027609622236,3.455645670078794,1.4475689223057646,0,0.05
1757395183.966492,0.524,-0.42,9.576,0.3792164355615405,4.011481326749677,1.4494235588972433,0,0.05
1757395183.993382,0.524,-0.42,9.576,0.3792164355615405,4.011481326749677,1.4494235588972433,0,0.05
1757395184.0190578,0.482,-0.193,9.669,0.3799814666533093,3.0737062894128786,1.4515288220551377,0,0.05
1757395184.0452926,0.482,-0.193,9.669,0.3799814666533093,3.0737062894128786,1.4515288220551377,0,0.05
1757395184.070749,0.46,-0.171,9.622,0.38067691682055005,2.9197544550871495,1.4526315789473685,0,0.05
1757395184.0964577,0.46,-0.171,9.622,0.38067691682055005,2.9197544550871495,1.4526315789473685,0,0.05
1757395184.1220162,0.478,-0.294,9.737,0.38142643458470465,3.2985070816142184,1.4535338345864663,0,0.05
1757395184.1476216,0.478,-0.294,9.737,0.38142643458470465,3.2985070816142184,1.4535338345864663,0,0.05
1757395184.1728833,0.543,-0.262,9.659,0.38239148460707123,3.5717036851250206,1.4567919799498747,0,0.05
1757395184.1984625,0.543,-0.262,9.659,0.38239148460707123,3.5717036851250206,1.4567919799498747,0,0.05
1757395184.2240994,0.316,-0.355,9.699,0.38271776480848124,2.8053579167862313,1.4681704260651631,0,0.05
1757395184.2507226,0.316,-0.355,9.699,0.38271776480848124,2.8053579167862313,1.4681704260651631,0,0.05
1757395184.2772381,0.441,-0.247,9.9,0.3833524357559242,2.922788886004613,1.474436090225564,0,0.05
1757395184.3026364,0.441,-0.247,9.9,0.3833524357559242,2.922788886004613,1.474436090225564,0,0.05
1757395184.3288083,0.441,-0.247,9.9,0.3833524357559242,2.922788886004613,1.474436090225564,0,0.05
1757395184.3544195,0.349,-0.302,9.894,0.3837493876216612,2.6707357700568806,1.479047619047619,0,0.05
1757395184.3823698,0.319,-0.445,9.705,0.3840807141734664,3.2290341016954547,1.4805513784461153,0,0.05
1757395184.4100254,0.319,-0.445,9.705,0.3840807141734664,3.2290341016954547,1.4805513784461153,0,0.05
1757395184.4373596,0.536,-0.466,9.818,0.38501459063261484,4.1376490036954205,1.4914285714285713,0,0.05
1757395184.464552,0.536,-0.466,9.818,0.38501459063261484,4.1376490036954205,1.4914285714285713,0,0.05
1757395184.4909058,0.371,-0.555,9.918,0.38546120103066145,3.8507797919558144,1.4996992481203006,0,0.05
1757395184.517098,0.371,-0.555,9.918,0.38546120103066145,3.8507797919558144,1.4996992481203006,0,0.05
1757395184.5449812,0.41,-0.468,9.935,0.3860059423117732,3.583546096899677,1.5016541353383461,0,0.05
1757395184.5724218,0.41,-0.468,9.935,0.3860059423117732,3.583546096899677,1.5016541353383461,0,0.05
1757395184.5999084,0.787,-0.489,9.7,0.3880064561318536,5.456358006430653,1.520551378446115,0,0.05
1757395184.6280801,0.787,-0.489,9.7,0.3880064561318536,5.456358006430653,1.520551378446115,0,0.05
1757395184.655418,0.732,-0.447,9.77,0.38972884163223026,5.01703014200276,1.5233082706766916,0,0.05
1757395184.6829655,0.732,-0.447,9.77,0.38972884163223026,5.01703014200276,1.5233082706766916,0,0.05
1757395184.7105858,0.641,-0.415,9.653,0.39104446358438577,4.523041959552509,1.5278696741854634,0,0.05
1757395184.7368603,0.641,-0.415,9.653,0.39104446358438577,4.523041959552509,1.5278696741854634,0,0.05
1757395184.7639785,0.87,-0.433,9.604,0.39345650649087,5.777903264425157,1.5393483709273181,0,0.05
1757395184.791383,0.87,-0.433,9.604,0.39345650649087,5.777903264425157,1.5393483709273181,0,0.05
1757395184.817729,0.614,-0.471,9.728,0.39465239451953155,4.5482028329694675,1.5521804511278194,0,0.05
1757395184.84531,0.614,-0.471,9.728,0.39465239451953155,4.5482028329694675,1.5521804511278194,0,0.05
1757395184.8727968,0.678,-0.507,9.719,0.3961056961216286,4.978344006255684,1.555388471177945,0,0.05
1757395184.900102,0.678,-0.507,9.719,0.3961056961216286,4.978344006255684,1.555388471177945,0,0.05
1757395184.9260256,0.586,-0.446,9.582,0.3971878806056398,4.394790602298238,1.56,0,0.05
1757395184.9518197,0.586,-0.446,9.582,0.3971878806056398,4.394790602298238,1.56,0,0.05
1757395184.978171,0.586,-0.446,9.582,0.3971878806056398,4.394790602298238,1.56,0,0.05
1757395185.0048501,0.592,-0.441,9.656,0.39828930753913044,4.371774450049768,1.5603007518796994,0,0.05
1757395185.0307415,0.672,-0.393,9.779,0.3997040561465445,4.55157190301221,1.564310776942356,0,0.05
1757395185.056622,0.672,-0.393,9.779,0.3997040561465445,4.55157190301221,1.564310776942356,0,0.05
1757395185.0839157,0.358,-0.382,9.693,0.40010466443169596,3.0916309646043865,1.5800501253132833,0,0.05
1757395185.1112812,0.358,-0.382,9.693,0.40010466443169596,3.0916309646043865,1.5800501253132833,0,0.05
1757395185.137906,0.358,-0.382,9.693,0.40010466443169596,3.0916309646043865,1.5800501253132833,0,0.05
1757395185.1654031,0.511,-0.273,9.728,0.4009196241143604,3.4082365416423546,1.5877192982456136,0,0.05
1757395185.192474,0.511,-0.273,9.728,0.4009196241143604,3.4082365416423546,1.5877192982456136,0,0.05
1757395185.2193022,0.351,-0.161,9.767,0.40130356028821873,2.2641550222611766,1.5957393483709272,0,0.05
1757395185.2468553,0.543,0.072,9.614,0.4022209218824898,3.2608721126148974,1.605363408521303,0,0.05
1757395185.2743547,0.543,0.072,9.614,0.4022209218824898,3.2608721126148974,1.605363408521303,0,0.05
1757395185.3019292,0.543,0.072,9.614,0.4022209218824898,3.2608721126148974,1.605363408521303,0,0.05
1757395185.329334,0.151,0.132,9.749,0.4022917753322829,1.1785535785628458,1.6250125313283206,0,0.05
1757395185.3553755,0.35,0.095,9.719,0.4026722271277223,2.1369962298342084,1.6349874686716792,0,0.05
1757395185.3806574,0.35,0.095,9.719,0.4026722271277223,2.1369962298342084,1.6349874686716792,0,0.05
1757395185.4062912,0.35,0.095,9.719,0.4026722271277223,2.1369962298342084,1.6349874686716792,0,0.05
1757395185.4320242,0.328,0.085,9.718,0.40300605764678027,1.9969068583233875,1.6360902255639096,0,0.05
1757395185.4583504,0.328,0.085,9.718,0.40300605764678027,1.9969068583233875,1.6360902255639096,0,0.05
1757395185.4842012,0.308,-0.109,9.889,0.4033001890651677,1.8922829804129022,1.6370927318295738,0,0.05
1757395185.5100074,0.308,-0.109,9.889,0.4033001890651677,1.8922829804129022,1.6370927318295738,0,0.05
1757395185.5355752,0.312,-0.168,9.791,0.4036017870376691,2.0727434730211165,1.6372932330827064,0,0.05
1757395185.5613832,0.312,-0.168,9.791,0.4036017870376691,2.0727434730211165,1.6372932330827064,0,0.05
1757395185.5870702,0.292,-0.223,9.668,0.4038657728750977,2.176369702417366,1.6382957393483706,0,0.05
1757395185.6125486,0.292,-0.223,9.668,0.4038657728750977,2.176369702417366,1.6382957393483706,0,0.05
1757395185.6382525,0.23,-0.232,9.744,0.4040294698410006,1.9202322520623605,1.6414035087719294,0,0.05
1757395185.663633,0.23,-0.232,9.744,0.4040294698410006,1.9202322520623605,1.6414035087719294,0,0.05
1757395185.6890552,0.469,-0.177,9.883,0.40470942044879554,2.903684398010559,1.6533834586466163,0,0.05
1757395185.7151067,0.469,-0.177,9.883,0.40470942044879554,2.903684398010559,1.6533834586466163,0,0.05
1757395185.7403772,0.259,-0.126,9.8,0.4049165562186856,1.6834416903427496,1.6639097744360902,0,0.05
1757395185.767356,0.259,-0.126,9.8,0.4049165562186856,1.6834416903427496,1.6639097744360902,0,0.05
1757395185.7942965,0.259,-0.126,9.8,0.4049165562186856,1.6834416903427496,1.6639097744360902,0,0.05
1757395185.8214388,0.367,-0.274,9.682,0.4053321354148965,2.708322888101966,1.6693233082706767,0,0.05
1757395185.8493786,0.47,-0.407,9.767,0.40601279536487517,3.642320388913582,1.674486215538847,0,0.05
1757395185.8767548,0.47,-0.407,9.767,0.40601279536487517,3.642320388913582,1.674486215538847,0,0.05
1757395185.9040942,0.355,-0.479,9.774,0.4064006059296664,3.4906920405992476,1.6802506265664163,0,0.05
1757395185.9325633,0.355,-0.479,9.774,0.4064006059296664,3.4906920405992476,1.6802506265664163,0,0.05
1757395185.959956,0.434,-0.268,9.676,0.4069795357263065,3.0176016981534923,1.6842105263157894,0,0.05
1757395185.9871864,0.434,-0.268,9.676,0.4069795357263065,3.0176016981534923,1.6842105263157894,0,0.05
1757395186.014128,0.539,-0.137,9.603,0.4078708680452675,3.314467906326379,1.689473684210526,0,0.1
1757395186.0411353,0.539,-0.137,9.603,0.4078708680452675,3.314467906326379,1.689473684210526,0,0.1
1757395186.0674908,0.46,-0.113,9.619,0.40851884289466994,2.819184211542098,1.6934335839599,0,0.1
1757395186.0944808,0.46,-0.113,9.619,0.40851884289466994,2.819184211542098,1.6934335839599,0,0.1
1757395186.1217694,0.584,-0.02,9.568,0.40956108823959336,3.4948598005842246,1.6996491228070174,0,0.1
1757395186.1494691,0.584,-0.02,9.568,0.40956108823959336,3.4948598005842246,1.6996491228070174,0,0.1
1757395186.1768641,0.495,-0.093,9.583,0.41030823474553857,3.008567188580487,1.7041102756892232,0,0.1
1757395186.2044652,0.495,-0.093,9.583,0.41030823474553857,3.008567188580487,1.7041102756892232,0,0.1
1757395186.2318237,0.572,-0.252,9.688,0.4113037897953288,3.69149282291321,1.7079699248120301,0,0.1
1757395186.2591383,0.572,-0.252,9.688,0.4113037897953288,3.69149282291321,1.7079699248120301,0,0.1
1757395186.2858546,0.539,-0.335,9.71,0.4121857712245778,3.7393987754591933,1.7096240601503763,0,0.1
1757395186.3133168,0.539,-0.335,9.71,0.4121857712245778,3.7393987754591933,1.7096240601503763,0,0.1
1757395186.3404746,0.414,-0.259,9.748,0.4127052216776521,2.867922725079192,1.7158897243107771,0,0.1
1757395186.367786,0.414,-0.259,9.748,0.4127052216776521,2.867922725079192,1.7158897243107771,0,0.1
1757395186.3948703,0.663,-0.315,9.735,0.414034446030762,4.311983058653837,1.7283709273182961,0,0.1
1757395186.4223812,0.663,-0.315,9.735,0.414034446030762,4.311983058653837,1.7283709273182961,0,0.1
1757395186.4495325,0.407,-0.384,9.748,0.4145342506958864,3.2853057144552933,1.7412030075187976,0,0.1
1757395186.4774141,0.407,-0.384,9.748,0.4145342506958864,3.2853057144552933,1.7412030075187976,0,0.1
1757395186.5050764,0.447,-0.329,9.761,0.41513632399490175,3.2544044644374086,1.7432080200501252,0,0.1
1757395186.532615,0.447,-0.329,9.761,0.41513632399490175,3.2544044644374086,1.7432080200501252,0,0.1
1757395186.5588834,0.418,-0.267,9.745,0.41566209533706583,2.9137025577392173,1.7446616541353386,0,0.1
1757395186.5862658,0.418,-0.267,9.745,0.41566209533706583,2.9137025577392173,1.7446616541353386,0,0.1
1757395186.6136813,0.194,-0.464,9.845,0.4157752608080476,2.924364145941636,1.755889724310777,0,0.1
1757395186.6415193,0.194,-0.464,9.845,0.4157752608080476,2.924364145941636,1.755889724310777,0,0.1
1757395186.6690588,0.428,-0.319,9.941,0.4163256267634746,3.073662570445612,1.7676190476190476,0,0.1
1757395186.6953032,0.428,-0.319,9.941,0.4163256267634746,3.073662570445612,1.7676190476190476,0,0.1
1757395186.7228503,0.256,-0.298,9.857,0.4165223493403445,2.282376684133037,1.7762406015037595,0,0.1
1757395186.7504869,0.256,-0.298,9.857,0.4165223493403445,2.282376684133037,1.7762406015037595,0,0.1
1757395186.7781165,0.41,-0.319,9.941,0.41702651894094217,2.9913537422967478,1.7839598997493733,0,0.1
1757395186.8054967,0.41,-0.319,9.941,0.41702651894094217,2.9913537422967478,1.7839598997493733,0,0.1
1757395186.8326018,0.447,-0.304,10.101,0.41762499925172103,3.063393857984577,1.7858145363408524,0,0.1
1757395186.8602414,0.447,-0.304,10.101,0.41762499925172103,3.063393857984577,1.7858145363408524,0,0.1
1757395186.8876634,0.303,-0.273,9.9,0.41789970387642056,2.359052835624488,1.793032581453634,0,0.1
1757395186.9148467,0.303,-0.273,9.9,0.41789970387642056,2.359052835624488,1.793032581453634,0,0.1
1757395186.9412427,0.517,-0.286,9.988,0.4186984416020676,3.3853524647518856,1.8037593984962408,0,0.1
1757395186.9684587,0.517,-0.286,9.988,0.4186984416020676,3.3853524647518856,1.8037593984962408,0,0.1
1757395186.9959464,0.579,-0.226,9.994,0.41969809089391863,3.5587395969841507,1.8068671679197996,0,0.1
1757395187.023869,0.579,-0.226,9.994,0.41969809089391863,3.5587395969841507,1.8068671679197996,0,0.1
1757395187.0511298,0.26,-0.296,9.884,0.41989937782759335,2.2825920177365617,1.8228571428571427,0,0.1
1757395187.079033,0.26,-0.296,9.884,0.41989937782759335,2.2825920177365617,1.8228571428571427,0,0.1
1757395187.106439,0.484,-0.292,9.948,0.42059615725776667,3.252139237932575,1.8340852130325813,0,0.1
1757395187.1338205,0.484,-0.292,9.948,0.42059615725776667,3.252139237932575,1.8340852130325813,0,0.1
1757395187.1603105,0.425,-0.165,9.873,0.42113262756523623,2.6438700806547626,1.8370426065162908,0,0.1
1757395187.1869767,0.425,-0.165,9.873,0.42113262756523623,2.6438700806547626,1.8370426065162908,0,0.1
1757395187.2142267,0.349,-0.273,9.806,0.421494000550423,2.587192622593272,1.8408521303258145,0,0.1
1757395187.241458,0.349,-0.273,9.806,0.421494000550423,2.587192622593272,1.8408521303258145,0,0.1
1757395187.268081,0.43,-0.364,9.844,0.4220419913942213,3.2755050065314095,1.8449122807017544,0,0.1
1757395187.2954578,0.43,-0.364,9.844,0.4220419913942213,3.2755050065314095,1.8449122807017544,0,0.1
1757395187.32317,0.427,-0.441,9.798,0.42258166666338,3.5849174455583124,1.8450626566416042,0,0.1
1757395187.3509867,0.427,-0.441,9.798,0.42258166666338,3.5849174455583124,1.8450626566416042,0,0.1
1757395187.3781812,0.433,-0.408,9.734,0.4231358972008874,3.4975519674904194,1.8453634085213035,0,0.1
1757395187.405378,0.542,-0.304,9.68,0.4240028272311401,3.673217131227744,1.850827067669173,0,0.1
1757395187.4323392,0.542,-0.304,9.68,0.4240028272311401,3.673217131227744,1.850827067669173,0,0.1
1757395187.4587104,0.542,-0.304,9.68,0.4240028272311401,3.673217131227744,1.850827067669173,0,0.1
1757395187.4852743,0.326,-0.279,9.649,0.424316023147842,2.5462511321360504,1.861654135338346,0,0.1
1757395187.5126774,0.326,-0.279,9.649,0.424316023147842,2.5462511321360504,1.861654135338346,0,0.1
1757395187.5398886,0.591,-0.207,9.631,0.425343731586584,3.7201067641847376,1.8749373433583958,0,0.1
1757395187.5675833,0.591,-0.207,9.631,0.425343731586584,3.7201067641847376,1.8749373433583958,0,0.1
1757395187.5948038,0.489,-0.332,9.626,0.42604588074525496,3.5136551911401512,1.880050125313283,0,0.1
1757395187.6224875,0.334,-0.342,9.743,0.42637305555112176,2.8089493052221264,1.8878195488721805,0,0.1
1757395187.6502337,0.334,-0.342,9.743,0.42637305555112176,2.8089493052221264,1.8878195488721805,0,0.1
1757395187.6776223,0.334,-0.342,9.743,0.42637305555112176,2.8089493052221264,1.8878195488721805,0,0.1
1757395187.7040591,0.359,-0.311,9.688,0.4267507293491131,2.806805831402115,1.889072681704261,0,0.1
1757395187.7313278,0.359,-0.311,9.688,0.4267507293491131,2.806805831402115,1.889072681704261,0,0.1
1757395187.758636,0.409,-0.248,9.687,0.42724043289464075,2.8267963996962853,1.891578947368421,0,0.1
1757395187.7858279,0.409,-0.248,9.687,0.42724043289464075,2.8267963996962853,1.891578947368421,0,0.1
1757395187.8135657,0.464,-0.27,9.799,0.4278698721574119,3.135818482282883,1.8943358395989978,0,0.1
1757395187.8423226,0.163,-0.216,9.73,0.4279474850960104,1.5930431925817108,1.9094235588972435,0,0.1
1757395187.870329,0.163,-0.216,9.73,0.4279474850960104,1.5930431925817108,1.9094235588972435,0,0.1
1757395187.8976119,0.353,-0.263,9.752,0.42831130325967354,2.5845590733531836,1.9189473684210527,0,0.1
1757395187.9250953,0.353,-0.263,9.752,0.42831130325967354,2.5845590733531836,1.9189473684210527,0,0.1
1757395187.9528797,0.362,-0.258,9.776,0.42869357646225587,2.6035423245123837,1.9193984962406017,0,0.1
1757395187.9803417,0.362,-0.258,9.776,0.42869357646225587,2.6035423245123837,1.9193984962406017,0,0.1
1757395188.0072305,0.373,-0.363,9.88,0.42909906198918685,3.015555461534834,1.919949874686717,0,0.1
1757395188.034715,0.373,-0.363,9.88,0.42909906198918685,3.015555461534834,1.919949874686717,0,0.1
1757395188.062567,0.348,-0.195,9.821,0.4294517027559676,2.325963643408462,1.921203007518797,0,0.1
1757395188.090301,0.348,-0.195,9.821,0.4294517027559676,2.325963643408462,1.921203007518797,0,0.1
1757395188.117923,0.494,-0.215,9.729,0.430161429000788,3.169607096445619,1.9285213032581454,0,0.1
1757395188.146589,0.494,-0.215,9.729,0.430161429000788,3.169607096445619,1.9285213032581454,0,0.1
1757395188.1744142,0.353,-0.241,9.852,0.43052337625267223,2.4841817254949365,1.9355889724310775,0,0.1
1757395188.2023108,0.353,-0.241,9.852,0.43052337625267223,2.4841817254949365,1.9355889724310775,0,0.1
1757395188.2297306,0.479,-0.163,9.777,0.43118903047271506,2.9624990495798236,1.941904761904762,0,0.1
1757395188.257856,0.479,-0.163,9.777,0.43118903047271506,2.9624990495798236,1.941904761904762,0,0.1
1757395188.2853596,0.13,-0.19,9.937,0.4312380201234581,1.3271731721196947,1.9593984962406015,0,0.1
1757395188.3128278,0.13,-0.19,9.937,0.4312380201234581,1.3271731721196947,1.9593984962406015,0,0.1
1757395188.340184,0.224,-0.129,9.928,0.4313834373269331,1.491441568790097,1.9641102756892233,0,0.1
1757395188.367517,0.224,-0.129,9.928,0.4313834373269331,1.491441568790097,1.9641102756892233,0,0.1
1757395188.394653,0.283,-0.1,9.86,0.4316154451592297,1.7436025978061656,1.9670676691729323,0,0.1
1757395188.4222689,0.283,-0.1,9.86,0.4316154451592297,1.7436025978061656,1.9670676691729323,0,0.1
1757395188.4496584,0.244,-0.06,9.795,0.43178783273732946,1.469472579431124,1.9690225563909771,0,0.1
1757395188.477526,0.244,-0.06,9.795,0.43178783273732946,1.469472579431124,1.9690225563909771,0,0.1
1757395188.5057213,0.22,-0.041,9.672,0.4319279251217731,1.3254561308175588,1.9702255639097745,0,0.1
1757395188.5333917,0.22,-0.041,9.672,0.4319279251217731,1.3254561308175588,1.9702255639097745,0,0.1
1757395188.560751,0.465,-0.02,9.437,0.43255322793848155,2.823522190471635,1.9825062656641603,0,0.1
1757395188.5882485,0.465,-0.02,9.437,0.43255322793848155,2.823522190471635,1.9825062656641603,0,0.1
1757395188.615577,0.341,-0.055,9.296,0.4328891284151174,2.127932835724049,1.9887218045112782,0,0.1
1757395188.6422834,0.341,-0.055,9.296,0.4328891284151174,2.127932835724049,1.9887218045112782,0,0.1
1757395188.668391,0.493,-0.185,9.395,0.43359038273467276,3.2079403443985064,1.9963408521303256,0,0.1
1757395188.6960256,0.493,-0.185,9.395,0.43359038273467276,3.2079403443985064,1.9963408521303256,0,0.1
1757395188.7229216,0.53,-0.068,9.396,0.43439943600331715,3.2548681558367947,1.9981954887218045,0,0.1
1757395188.750282,0.53,-0.068,9.396,0.43439943600331715,3.2548681558367947,1.9981954887218045,0,0.1
1757395188.777637,0.337,-0.169,9.54,0.43472611205217476,2.263034703134336,2.007869674185464,0,0.1
1757395188.8052897,0.337,-0.169,9.54,0.43472611205217476,2.263034703134336,2.007869674185464,0,0.1
1757395188.8320029,0.78,-0.241,9.541,0.43647198363697987,4.890644275961182,2.030075187969925,0,0.1
1757395188.859941,0.78,-0.241,9.541,0.43647198363697987,4.890644275961182,2.030075187969925,0,0.1
1757395188.8884485,0.471,-0.317,9.593,0.43710684620582185,3.3869771381182523,2.0455639097744363,0,0.1
1757395188.9149845,0.471,-0.317,9.593,0.43710684620582185,3.3869771381182523,2.0455639097744363,0,0.1
1757395188.9408298,0.531,-0.352,9.652,0.437912431314755,3.7763011937937843,2.0485714285714285,0,0.1
1757395188.9680479,0.531,-0.352,9.652,0.437912431314755,3.7763011937937843,2.0485714285714285,0,0.1
1757395188.99483,0.165,-0.303,9.733,0.43799013687524974,2.030156970438243,2.066917293233083,0,0.1
1757395189.0232027,0.165,-0.303,9.733,0.43799013687524974,2.030156970438243,2.066917293233083,0,0.1
1757395189.049785,0.47,-0.44,9.886,0.4386201203775312,3.726073781312067,2.0822055137844613,0,0.1
1757395189.0777864,0.47,-0.44,9.886,0.4386201203775312,3.726073781312067,2.0822055137844613,0,0.1
1757395189.1053548,0.342,-0.24,9.706,0.43895332325886316,2.4648565805041516,2.0886215538847117,0,0.1
1757395189.1327806,0.342,-0.24,9.706,0.43895332325886316,2.4648565805041516,2.0886215538847117,0,0.1
1757395189.1593754,0.39,-0.336,9.861,0.4393862423881749,2.9883212682005045,2.0910275689223057,0,0.1
1757395189.1865914,0.39,-0.336,9.861,0.4393862423881749,2.9883212682005045,2.0910275689223057,0,0.1
1757395189.213859,0.427,-0.29,9.974,0.43990464023467635,2.9624890662862464,2.092882205513784,0,0.1
1757395189.2413476,0.427,-0.29,9.974,0.43990464023467635,2.9624890662862464,2.092882205513784,0,0.1
1757395189.2690883,0.482,-0.448,9.857,0.4405643000743478,3.8193716072510826,2.095639097744361,0,0.1
1757395189.297477,0.192,-0.456,9.841,0.44066888079373157,2.878217299851313,2.1101754385964915,0,0.1
1757395189.325401,0.192,-0.456,9.841,0.44066888079373157,2.878217299851313,2.1101754385964915,0,0.1
1757395189.35306,0.534,-0.357,9.983,0.4414770124253357,3.681548567547576,2.1273182957393484,0,0.1
1757395189.380878,0.534,-0.357,9.983,0.4414770124253357,3.681548567547576,2.1273182957393484,0,0.1
1757395189.4084992,0.206,-0.558,10.046,0.44159714956054685,3.3884543876990323,2.14375939849624,0,0.1
1757395189.435447,0.206,-0.558,10.046,0.44159714956054685,3.3884543876990323,2.14375939849624,0,0.1
1757395189.4617643,0.22,-0.6,10.002,0.441734131010951,3.6558528650741673,2.1444611528822057,0,0.1
1757395189.4895551,0.22,-0.6,10.002,0.441734131010951,3.6558528650741673,2.1444611528822057,0,0.1
1757395189.5155547,0.272,-0.473,9.982,0.44194343812302495,3.1287580928343126,2.1470676691729325,0,0.1
1757395189.5425675,0.272,-0.473,9.982,0.44194343812302495,3.1287580928343126,2.1470676691729325,0,0.1
1757395189.570395,0.4,-0.401,9.694,0.4423957532571939,3.343828650928717,2.153483709273183,0,0.1
1757395189.5976615,0.4,-0.401,9.694,0.4423957532571939,3.343828650928717,2.153483709273183,0,0.1
1757395189.6253383,0.241,-0.486,9.655,0.44255983211312794,3.215823019785387,2.161453634085213,0,0.1
1757395189.65292,0.241,-0.486,9.655,0.44255983211312794,3.215823019785387,2.161453634085213,0,0.1
1757395189.6803546,0.199,-0.435,9.731,0.44267167008969527,2.81428698986587,2.163558897243108,0,0.1
1757395189.7076235,0.199,-0.435,9.731,0.44267167008969527,2.81428698986587,2.163558897243108,0,0.1
1757395189.734547,0.341,-0.384,9.722,0.44299989841985293,3.0237723299844323,2.1706766917293234,0,0.1
1757395189.7620988,0.341,-0.384,9.722,0.44299989841985293,3.0237723299844323,2.1706766917293234,0,0.1
1757395189.788981,0.425,-0.45,9.57,0.4435092699143954,3.7006366376246196,2.1748872180451126,0,0.1
1757395189.8158288,0.425,-0.45,9.57,0.4435092699143954,3.7006366376246196,2.1748872180451126,0,0.1
1757395189.8430042,0.22,-0.513,9.742,0.44364566097280833,3.279269073767831,2.185162907268171,0,0.1
1757395189.8706326,0.22,-0.513,9.742,0.44364566097280833,3.279269073767831,2.185162907268171,0,0.1
1757395189.898496,0.236,-0.313,9.796,0.4438025602675135,2.2915518187569655,2.185964912280702,0,0.1
1757395189.926345,0.236,-0.313,9.796,0.4438025602675135,2.2915518187569655,2.185964912280702,0,0.1
1757395189.953619,0.183,-0.343,9.692,0.4438968742850078,2.2970122059060016,2.188621553884712,0,0.1
1757395189.980673,0.183,-0.343,9.692,0.4438968742850078,2.2970122059060016,2.188621553884712,0,0.1
1757395190.0084286,0.405,-0.342,9.612,0.44435852360453265,3.1565584310544206,2.199749373433584,0,0.75
1757395190.0365462,0.405,-0.342,9.612,0.44435852360453265,3.1565584310544206,2.199749373433584,0,0.75
1757395190.0634,0.185,-0.327,9.742,0.44445478960182216,2.208543373188318,2.2107769423558894,0,0.75
1757395190.0909545,0.185,-0.327,9.742,0.44445478960182216,2.208543373188318,2.2107769423558894,0,0.75
1757395190.1183248,0.262,-0.336,9.624,0.44464780444752,2.534951659852411,2.2146365914786967,0,0.75
1757395190.145782,0.262,-0.336,9.624,0.44464780444752,2.534951659852411,2.2146365914786967,0,0.75
1757395190.1731064,0.457,-0.278,9.685,0.4452345365085687,3.1613018204915146,2.224411027568922,0,0.75
1757395190.201609,0.457,-0.278,9.685,0.4452345365085687,3.1613018204915146,2.224411027568922,0,0.75
1757395190.2290866,0.364,-0.252,9.768,0.4456063649680062,2.595062991635776,2.22907268170426,0,0.75
1757395190.2566347,0.364,-0.252,9.768,0.4456063649680062,2.595062991635776,2.22907268170426,0,0.75
1757395190.2841692,0.379,-0.279,9.882,0.44600911986191494,2.7265846942152163,2.229824561403509,0,0.75
1757395190.3113637,0.379,-0.279,9.882,0.44600911986191494,2.7265846942152163,2.229824561403509,0,0.75
1757395190.3387218,0.096,-0.216,9.894,0.4460349481823145,1.3685643736018314,2.2440100250626567,0,0.75
1757395190.3660555,0.096,-0.216,9.894,0.4460349481823145,1.3685643736018314,2.2440100250626567,0,0.75
1757395190.3939984,-0.095,-0.251,9.999,0.4460602397658864,1.5374693111426925,2.2535839598997494,0,0.75
1757395190.4212716,-0.095,-0.251,9.999,0.4460602397658864,1.5374693111426925,2.2535839598997494,0,0.75
1757395190.449514,0.254,-0.177,9.987,0.4462409971080649,1.7755514444807308,2.271077694235589,0,0.75
1757395190.4780319,0.254,-0.177,9.987,0.4462409971080649,1.7755514444807308,2.271077694235589,0,0.75
1757395190.5063882,0.562,-0.501,9.595,0.44712485672348834,4.486636187580474,2.286516290726817,0,0.75
1757395190.5324416,0.562,-0.501,9.595,0.44712485672348834,4.486636187580474,2.286516290726817,0,0.75
1757395190.5596578,0.39,-0.611,9.68,0.44754987152271647,4.282439229987765,2.295137844611529,0,0.75
1757395190.5875952,0.39,-0.611,9.68,0.44754987152271647,4.282439229987765,2.295137844611529,0,0.75
1757395190.6146836,0.745,-0.449,9.78,0.4490973725151373,5.082567481164885,2.312932330827068,0,0.75
1757395190.6412332,0.745,-0.449,9.78,0.4490973725151373,5.082567481164885,2.312932330827068,0,0.75
1757395190.66877,0.408,-0.324,9.749,0.44956046311925607,3.059049834399132,2.3298245614035085,0,0.75
1757395190.6957505,0.408,-0.324,9.749,0.44956046311925607,3.059049834399132,2.3298245614035085,0,0.75
1757395190.7234817,0.361,-0.341,9.763,0.4499226739118623,2.911813290780973,2.3112280701754386,0,0.75
1757395190.7514296,0.361,-0.341,9.763,0.4499226739118623,2.911813290780973,2.3112280701754386,0,0.75
1757395190.7797263,0.451,-0.269,9.962,0.45000233888281066,3.0174600638483455,2.315639097744361,0,0.75
1757395190.8083515,0.451,-0.269,9.962,0.45000233888281066,3.0174600638483455,2.315639097744361,0,0.75
1757395190.836123,0.511,-0.323,9.71,0.4502468961580968,3.562519169876422,2.3183959899749373,0,0.75
1757395190.863271,0.243,-0.393,9.632,0.4499186454238144,2.7464408997056147,2.331578947368421,0,0.75
1757395190.8904557,0.243,-0.393,9.632,0.4499186454238144,2.7464408997056147,2.331578947368421,0,0.75
1757395190.9171653,0.243,-0.393,9.632,0.4499186454238144,2.7464408997056147,2.331578947368421,0,0.75
1757395190.9440613,0.569,-0.247,9.858,0.4503371514765354,3.60049512375691,2.3478195488721805,0,0.75
1757395190.9716074,0.346,-0.29,9.853,0.45019368054205294,2.6234309584439104,2.35859649122807,0,0.75
1757395190.9995959,0.346,-0.29,9.853,0.45019368054205294,2.6234309584439104,2.35859649122807,0,0.75
1757395191.0266266,0.172,-0.115,9.744,0.4497811690144442,1.216431449654843,2.3664160401002503,0,0.75
1757395191.0544343,0.172,-0.115,9.744,0.4497811690144442,1.216431449654843,2.3664160401002503,0,0.75
1757395191.0820508,0.469,-0.133,9.91,0.4498544236750373,2.816228850180877,2.3803007518796995,0,0.75
1757395191.1099195,0.469,-0.133,9.91,0.4498544236750373,2.816228850180877,2.3803007518796995,0,0.75
1757395191.1379502,0.443,-0.308,9.72,0.4498117661867017,3.1771791439586177,2.381503759398496,0,0.75
1757395191.165358,0.443,-0.308,9.72,0.4498117661867017,3.1771791439586177,2.381503759398496,0,0.75
1757395191.1926725,0.426,-0.31,9.737,0.44973314865595576,3.0971705627236754,2.382005012531328,0,0.75
1757395191.220264,0.426,-0.31,9.737,0.44973314865595576,3.0971705627236754,2.382005012531328,0,0.75
1757395191.2486086,0.471,-0.337,9.853,0.44974875764141914,3.363897453033135,2.38390977443609,0,0.75
1757395191.2754865,0.471,-0.337,9.853,0.44974875764141914,3.363897453033135,2.38390977443609,0,0.75
1757395191.3031926,0.32,-0.393,9.853,0.4494140462869402,2.9444929785324394,2.3910776942355887,0,0.75
1757395191.3312507,0.32,-0.393,9.853,0.4494140462869402,2.9444929785324394,2.3910776942355887,0,0.75
1757395191.359343,0.412,-0.324,9.862,0.44924530604114277,3.0422462671588004,2.394887218045113,0,0.75
1757395191.3868694,0.412,-0.324,9.862,0.44924530604114277,3.0422462671588004,2.394887218045113,0,0.75
1757395191.4144733,0.554,-0.366,9.897,0.44941472494790374,3.8381770756755165,2.4002005012531327,0,0.75
1757395191.4419773,0.554,-0.366,9.897,0.44941472494790374,3.8381770756755165,2.4002005012531327,0,0.75
1757395191.4695702,0.346,-0.354,9.886,0.4489602710708376,2.8664929251178997,2.4095739348370926,0,0.75
1757395191.4971476,0.346,-0.354,9.886,0.4489602710708376,2.8664929251178997,2.4095739348370926,0,0.75
1757395191.5243614,0.434,-0.482,9.857,0.4486331379869303,3.764681037778509,2.4139348370927314,0,0.75
1757395191.550953,0.434,-0.482,9.857,0.4486331379869303,3.764681037778509,2.4139348370927314,0,0.75
1757395191.5773945,0.402,-0.439,9.789,0.4482342495838532,3.4797718355457,2.415238095238095,0,0.75
1757395191.6047451,0.402,-0.439,9.789,0.4482342495838532,3.4797718355457,2.415238095238095,0,0.75
1757395191.6321414,0.402,-0.439,9.789,0.4482342495838532,3.4797718355457,2.415238095238095,0,0.75
1757395191.659033,0.495,-0.452,9.806,0.4480861691683866,3.9105502549676983,2.419348370927318,0,0.75
1757395191.6865335,0.462,-0.452,9.77,0.4478830902143996,3.7848868078890345,2.4206516290726814,0,0.75
1757395191.7140515,0.462,-0.452,9.77,0.4478830902143996,3.7848868078890345,2.4206516290726814,0,0.75
1757395191.7415469,0.381,-0.337,9.897,0.44751000547473796,2.942120843155901,2.424611528822055,0,0.75
1757395191.7691474,0.381,-0.337,9.897,0.44751000547473796,2.942120843155901,2.424611528822055,0,0.75
1757395191.7966483,0.467,-0.29,9.843,0.4473345252716361,3.1965650890689976,2.4288220551378448,0,0.75
1757395191.8244877,0.467,-0.29,9.843,0.4473345252716361,3.1965650890689976,2.4288220551378448,0,0.75
1757395191.85099,0.322,-0.255,9.851,0.44683310922535724,2.387591109101234,2.435739348370927,0,0.75
1757395191.8782618,0.322,-0.255,9.851,0.44683310922535724,2.387591109101234,2.435739348370927,0,0.75
1757395191.9045758,0.251,-0.187,9.962,0.4462379045979846,1.7996158104223632,2.4387468671679198,0,0.75
1757395191.9325402,0.251,-0.187,9.962,0.4462379045979846,1.7996158104223632,2.4387468671679198,0,0.75
1757395191.9602225,0.241,-0.433,10.14,0.44566016200688163,2.7978661862958356,2.43844611528822,0,0.75
1757395191.9876096,0.241,-0.433,10.14,0.44566016200688163,2.7978661862958356,2.43844611528822,0,0.75
1757395192.015033,0.239,-0.48,10.04,0.44512444608221646,3.0571116136185306,2.4380451127819547,0,0.75
1757395192.0423255,0.239,-0.48,10.04,0.44512444608221646,3.0571116136185306,2.4380451127819547,0,0.75
1757395192.069309,0.226,-0.405,10.075,0.44459881072715435,2.6356776986690167,2.4379949874686715,0,0.75
1757395192.0973077,0.226,-0.405,10.075,0.44459881072715435,2.6356776986690167,2.4379949874686715,0,0.75
1757395192.124793,0.131,-0.231,9.987,0.4440149941161897,1.5231671580826047,2.442005012531328,0,0.75
1757395192.1517136,0.131,-0.231,9.987,0.4440149941161897,1.5231671580826047,2.442005012531328,0,0.75
1757395192.1794307,0.441,-0.362,9.977,0.44396938520578194,3.2729704371477486,2.455839598997493,0,0.75
1757395192.2066398,0.441,-0.362,9.977,0.44396938520578194,3.2729704371477486,2.455839598997493,0,0.75
1757395192.2340856,0.109,-0.546,9.939,0.44349403039950835,3.206306325350482,2.47172932330827,0,0.75
1757395192.2619216,0.109,-0.546,9.939,0.44349403039950835,3.206306325350482,2.47172932330827,0,0.75
1757395192.289496,0.274,-0.298,9.794,0.4432317621741475,2.366891597071353,2.479548872180451,0,0.75
1757395192.317841,0.274,-0.298,9.794,0.4432317621741475,2.366891597071353,2.479548872180451,0,0.75
1757395192.3453972,0.179,-0.371,9.734,0.4428684849930056,2.423204853901364,2.4842606516290724,0,0.75
1757395192.3730476,0.179,-0.371,9.734,0.4428684849930056,2.423204853901364,2.4842606516290724,0,0.75
1757395192.400434,0.303,-0.43,9.63,0.4426714441885765,3.1266307508118367,2.490375939849624,0,0.75
1757395192.4278824,0.303,-0.43,9.63,0.4426714441885765,3.1266307508118367,2.490375939849624,0,0.75
1757395192.455323,0.19,-0.291,9.716,0.4423214413749349,2.048562978489637,2.495187969924812,0,0.75
1757395192.482995,0.231,-0.285,9.716,0.44198069810796037,2.162364022241145,2.497142857142857,0,0.75
1757395192.510851,0.231,-0.285,9.716,0.44198069810796037,2.162364022241145,2.497142857142857,0,0.75
1757395192.538316,0.165,-0.261,9.725,0.4415609782351697,1.8186050014274708,2.499749373433584,0,0.75
1757395192.565145,0.165,-0.261,9.725,0.4415609782351697,1.8186050014274708,2.499749373433584,0,0.75
1757395192.592249,0.2,-0.096,9.729,0.44114325904404345,1.3062681293312786,2.500852130325814,0,0.75
1757395192.6196666,0.2,-0.096,9.729,0.44114325904404345,1.3062681293312786,2.500852130325814,0,0.75
1757395192.6472716,0.2,-0.096,9.729,0.44114325904404345,1.3062681293312786,2.500852130325814,0,0.75
1757395192.6749113,0.241,-0.179,9.685,0.44074401584139516,1.7754129616377523,2.50265664160401,0,0.75
1757395192.70202,0.149,-0.369,9.687,0.4402298121436121,2.352419080920712,2.506616541353383,0,0.75
1757395192.7298744,0.149,-0.369,9.687,0.4402298121436121,2.352419080920712,2.506616541353383,0,0.75
1757395192.7580585,0.42,-0.403,9.708,0.4401193559706276,3.4312370085110593,2.5189473684210526,0,0.75
1757395192.7859507,0.42,-0.403,9.708,0.4401193559706276,3.4312370085110593,2.5189473684210526,0,0.75
1757395192.8119211,0.236,-0.291,9.728,0.4395980948548344,2.2056289188691247,2.527017543859649,0,0.75
1757395192.8402593,0.236,-0.291,9.728,0.4395980948548344,2.2056289188691247,2.527017543859649,0,0.75
1757395192.8680432,0.135,-0.417,9.812,0.4389039615906879,2.557737533615085,2.5317293233082707,0,0.75
1757395192.896137,0.135,-0.417,9.812,0.4389039615906879,2.557737533615085,2.5317293233082707,0,0.75
1757395192.923738,0.339,-0.537,9.965,0.43846389532092606,3.646423928701688,2.541303258145363,0,0.75
1757395192.9524903,0.339,-0.537,9.965,0.43846389532092606,3.646423928701688,2.541303258145363,0,0.75
1757395192.9805446,0.245,-0.346,9.883,0.4378276944187062,2.456355534097283,2.5456641604010026,0,0.75
1757395193.008704,0.245,-0.346,9.883,0.4378276944187062,2.456355534097283,2.5456641604010026,0,0.75
1757395193.0370893,0.319,-0.269,10.004,0.4372884517112246,2.3884936807758432,2.548972431077694,0,0.75
1757395193.0652092,0.319,-0.269,10.004,0.4372884517112246,2.3884936807758432,2.548972431077694,0,0.75
1757395193.0933213,0.453,-0.252,9.798,0.4370196677496334,3.028480766015118,2.5553383458646617,0,0.75
1757395193.1212113,0.453,-0.252,9.798,0.4370196677496334,3.028480766015118,2.5553383458646617,0,0.75
1757395193.1487956,0.313,-0.114,9.831,0.436421610945196,1.940670566066068,2.561453634085213,0,0.75
1757395193.176831,0.313,-0.114,9.831,0.436421610945196,1.940670566066068,2.561453634085213,0,0.75
1757395193.204541,0.402,-0.17,9.826,0.4360614549578992,2.543387482633822,2.5656140350877195,0,0.75
1757395193.2325542,0.402,-0.17,9.826,0.4360614549578992,2.543387482633822,2.5656140350877195,0,0.75
1757395193.2602985,0.181,-0.262,9.808,0.4353495664405789,1.8595990992071558,2.576340852130326,0,0.75
1757395193.2874482,0.181,-0.262,9.808,0.4353495664405789,1.8595990992071558,2.576340852130326,0,0.75
1757395193.3149931,0.399,-0.152,9.751,0.43502117764541076,2.5072372541914087,2.5867669172932333,0,0.75
1757395193.3428373,0.399,-0.152,9.751,0.43502117764541076,2.5072372541914087,2.5867669172932333,0,0.75
1757395193.370346,0.402,-0.334,9.734,0.43472924044743066,3.07342780384996,2.5860150375939854,0,0.75
1757395193.3978832,0.402,-0.334,9.734,0.43472924044743066,3.07342780384996,2.5860150375939854,0,0.75
1757395193.4245374,0.208,-0.365,9.672,0.4341487187589064,2.487094414388,2.595187969924812,0,0.75
1757395193.4518874,0.208,-0.365,9.672,0.4341487187589064,2.487094414388,2.595187969924812,0,0.75
1757395193.4790812,0.434,-0.331,9.579,0.4340165434634952,3.261224830674536,2.6056641604010027,0,0.75
1757395193.5067513,0.434,-0.331,9.579,0.4340165434634952,3.261224830674536,2.6056641604010027,0,0.75
1757395193.532828,0.385,-0.278,9.673,0.43381528327157864,2.8105728402235473,2.6064160401002505,0,0.75
1757395193.5594718,0.385,-0.278,9.673,0.43381528327157864,2.8105728402235473,2.6064160401002505,0,0.75
1757395193.5865066,0.246,-0.391,9.647,0.4334492675042836,2.7415293052262975,2.612531328320802,0,0.75
1757395193.613718,0.246,-0.391,9.647,0.4334492675042836,2.7415293052262975,2.612531328320802,0,0.75
1757395193.640765,0.245,-0.366,9.797,0.43312318109286185,2.574048958804345,2.6117794486215535,0,0.75
1757395193.667963,0.245,-0.366,9.797,0.43312318109286185,2.574048958804345,2.6117794486215535,0,0.75
1757395193.6954799,0.314,-0.358,9.912,0.43294593195917663,2.750494453317019,2.6151378446115285,0,0.75
1757395193.7226555,0.314,-0.358,9.912,0.43294593195917663,2.750494453317019,2.6151378446115285,0,0.75
1757395193.7500324,0.237,-0.452,9.687,0.4326506587305744,3.0158749968645706,2.618796992481203,0,0.75
1757395193.7769341,0.237,-0.452,9.687,0.4326506587305744,3.0158749968645706,2.618796992481203,0,0.75
1757395193.8047838,0.19,-0.298,9.704,0.432287904642265,2.0857781422804575,2.620952380952381,0,0.75
1757395193.8319747,0.19,-0.298,9.704,0.432287904642265,2.0857781422804575,2.620952380952381,0,0.75
1757395193.8595839,0.217,-0.081,9.775,0.4319472942385448,1.3574050680406309,2.622105263157895,0,0.75
1757395193.887095,0.298,-0.289,9.635,0.43171776081138935,2.4670420275281346,2.626015037593985,0,0.75
1757395193.9147234,0.298,-0.289,9.635,0.43171776081138935,2.4670420275281346,2.626015037593985,0,0.75
1757395193.9422596,0.19,-0.303,9.574,0.4313425002245895,2.139330441832758,2.6309273182957393,0,0.75
1757395193.9704463,0.19,-0.303,9.574,0.4313425002245895,2.139330441832758,2.6309273182957393,0,0.75
1757395193.9984462,0.078,-0.183,9.677,0.43085593880089434,1.1776607862658361,2.635889724310777,0,0.75
1757395194.0256355,0.078,-0.183,9.677,0.43085593880089434,1.1776607862658361,2.635889724310777,0,0.75
1757395194.052207,0.342,-0.224,9.611,0.43065879765772813,2.435748908080861,2.6490225563909777,0,0.75
1757395194.0800555,0.342,-0.224,9.611,0.43065879765772813,2.435748908080861,2.6490225563909777,0,0.75
1757395194.1079152,0.553,-0.369,9.646,0.43101457341950744,3.942625635983835,2.6591979949874687,0,0.75
1757395194.1351807,0.553,-0.369,9.646,0.43101457341950744,3.942625635983835,2.6591979949874687,0,0.75
1757395194.1628742,0.261,-0.302,9.824,0.4306606842979749,2.3266841331635963,2.6738345864661657,0,0.75
1757395194.1913552,0.261,-0.302,9.824,0.4306606842979749,2.3266841331635963,2.6738345864661657,0,0.75
1757395194.2195442,0.474,-0.245,9.821,0.4307610416460616,3.1098157275717946,2.6838095238095243,0,0.75
1757395194.2479541,0.474,-0.245,9.821,0.4307610416460616,3.1098157275717946,2.6838095238095243,0,0.75
1757395194.2747567,0.482,-0.265,9.746,0.4308475774563436,3.2302312180111072,2.6832080200501256,0,0.75
1757395194.3016286,0.482,-0.265,9.746,0.4308475774563436,3.2302312180111072,2.6832080200501256,0,0.75
1757395194.3288884,0.444,-0.15,9.804,0.43077862644286335,2.7367846417073225,2.68390977443609,0,0.75
1757395194.356798,0.444,-0.15,9.804,0.43077862644286335,2.7367846417073225,2.68390977443609,0,0.75
1757395194.3841672,0.188,-0.108,9.863,0.430303724129829,1.2593009944238174,2.6758897243107773,0,0.75
1757395194.4122183,0.188,-0.108,9.863,0.430303724129829,1.2593009944238174,2.6758897243107773,0,0.75
1757395194.4390972,0.265,-0.091,9.869,0.42834477643599206,1.6262385916279531,2.6528822055137846,0,0.75
1757395194.4667332,0.265,-0.091,9.869,0.42834477643599206,1.6262385916279531,2.6528822055137846,0,0.75
1757395194.4950511,0.414,-0.039,9.909,0.42853476813439534,2.4030173287175174,2.635388471177945,0,0.75
1757395194.523093,0.414,-0.039,9.909,0.42853476813439534,2.4030173287175174,2.635388471177945,0,0.75
1757395194.55142,0.314,-0.028,9.904,0.4268384911181277,1.8231184722614238,2.639699248120301,0,0.75
1757395194.5787053,0.314,-0.028,9.904,0.4268384911181277,1.8231184722614238,2.639699248120301,0,0.75
1757395194.6068962,0.134,-0.054,9.959,0.42496557213496716,0.8311099300205993,2.6487218045112786,0,0.75
1757395194.6343918,0.134,-0.054,9.959,0.42496557213496716,0.8311099300205993,2.6487218045112786,0,0.75
1757395194.6612856,0.44,-0.066,9.89,0.42360298334643487,2.5758344748226008,2.654335839598997,0,0.75
1757395194.688058,0.44,-0.066,9.89,0.42360298334643487,2.5758344748226008,2.654335839598997,0,0.75
1757395194.715183,0.295,-0.046,9.887,0.42087647831638203,1.7296765194437143,2.638796992481203,0,0.75
1757395194.7421625,0.295,-0.046,9.887,0.42087647831638203,1.7296765194437143,2.638796992481203,0,0.75
1757395194.7689438,0.439,-0.235,9.813,0.42055357565951096,2.904872351235793,2.6289223057644113,0,0.75
1757395194.7965753,0.439,-0.235,9.813,0.42055357565951096,2.904872351235793,2.6289223057644113,0,0.75
1757395194.8247056,0.454,-0.175,9.694,0.4188082496799699,2.8733733392928285,2.620701754385965,0,0.75
1757395194.8530765,0.454,-0.175,9.694,0.4188082496799699,2.8733733392928285,2.620701754385965,0,0.75
1757395194.880516,0.396,-0.034,9.675,0.4177661875977997,2.352434746437155,2.6164411027568923,0,0.75
1757395194.9084187,0.396,-0.034,9.675,0.4177661875977997,2.352434746437155,2.6164411027568923,0,0.75
1757395194.935697,0.5,-0.235,9.732,0.41754883247352037,3.249112165245045,2.6201002506265665,0,0.75
1757395194.9633563,0.5,-0.235,9.732,0.41754883247352037,3.249112165245045,2.6201002506265665,0,0.75
1757395194.990959,0.417,-0.208,9.758,0.4172059773061743,2.7341032699853853,2.619047619047619,0,0.75
1757395195.0192761,0.417,-0.208,9.758,0.4172059773061743,2.7341032699853853,2.619047619047619,0,0.75
1757395195.047378,0.366,0.027,9.681,0.4163754495644526,2.170971486245836,2.609674185463659,0,0.75
1757395195.0758011,0.33,-0.294,9.755,0.4162147792906926,2.594117284918374,2.6095739348370928,0,0.75
1757395195.10318,0.33,-0.294,9.755,0.4162147792906926,2.594117284918374,2.6095739348370928,0,0.75
1757395195.1299474,0.378,-0.275,9.748,0.41605979137619153,2.745422682255385,2.608822055137845,0,0.75
1757395195.15703,0.378,-0.275,9.748,0.41605979137619153,2.745422682255385,2.608822055137845,0,0.75
1757395195.1851213,0.101,-0.192,9.852,0.4156609706238968,1.2614704439066386,2.6215538847117794,0,0.75
1757395195.2127998,0.101,-0.192,9.852,0.4156609706238968,1.2614704439066386,2.6215538847117794,0,0.75
1757395195.2407804,-0.021,-0.113,9.997,0.41528313534262384,0.6586962868695024,2.6265664160401,0,0.75
1757395195.268046,-0.021,-0.113,9.997,0.41528313534262384,0.6586962868695024,2.6265664160401,0,0.75
1757395195.2955015,0.293,-0.295,9.96,0.41511369828036265,2.390430105978323,2.63593984962406,0,0.75
1757395195.3228164,0.293,-0.295,9.96,0.41511369828036265,2.390430105978323,2.63593984962406,0,0.75
1757395195.3507707,0.148,-0.165,10.044,0.41441416783213386,1.2641959819726916,2.638646616541353,0,0.75
1757395195.3785427,0.148,-0.165,10.044,0.41441416783213386,1.2641959819726916,2.638646616541353,0,0.75
1757395195.4053063,0.097,-0.012,10.145,0.4133733935559956,0.5519846917535088,2.630927318295739,0,0.75
1757395195.4328313,0.097,-0.012,10.145,0.4133733935559956,0.5519846917535088,2.630927318295739,0,0.75
1757395195.4603977,0.254,-0.249,10.058,0.41310846336041096,2.0253705737815735,2.637443609022556,0,0.75
1757395195.4879298,0.254,-0.249,10.058,0.41310846336041096,2.0253705737815735,2.637443609022556,0,0.75
1757395195.5158207,0.178,-0.268,9.84,0.41267794949572967,1.8726637703410436,2.6383458646616536,0,0.75
1757395195.5428834,0.178,-0.268,9.84,0.41267794949572967,1.8726637703410436,2.6383458646616536,0,0.75
1757395195.5694618,0.205,-0.106,9.768,0.4121214505458312,1.3534457413073702,2.6377443609022553,0,0.75
1757395195.5963786,0.205,-0.106,9.768,0.4121214505458312,1.3534457413073702,2.6377443609022553,0,0.75
1757395195.6238108,0.335,-0.2,9.815,0.41188519334882623,2.276390279600993,2.6372932330827066,0,0.75
1757395195.6512434,0.335,-0.2,9.815,0.41188519334882623,2.276390279600993,2.6372932330827066,0,0.75
1757395195.6775272,0.164,-0.219,9.738,0.4109623948733022,1.609366044748802,2.6343859649122803,0,0.75
1757395195.704561,0.164,-0.219,9.738,0.4109623948733022,1.609366044748802,2.6343859649122803,0,0.75
1757395195.7318964,0.218,-0.058,9.624,0.41074275404442623,1.3427500946380804,2.6255137844611527,0,0.75
1757395195.7589147,0.218,-0.058,9.624,0.41074275404442623,1.3427500946380804,2.6255137844611527,0,0.75
1757395195.7868803,0.301,-0.254,9.832,0.410004621925168,2.293920316969175,2.619949874686717,0,0.75
1757395195.8147464,0.301,-0.254,9.832,0.410004621925168,2.293920316969175,2.619949874686717,0,0.75
1757395195.843031,0.373,-0.342,9.769,0.40998157275663016,2.9654004894870845,2.613984962406015,0,0.75
1757395195.8711846,0.373,-0.342,9.769,0.40998157275663016,2.9654004894870845,2.613984962406015,0,0.75
1757395195.898546,0.374,-0.356,9.698,0.4094030898759803,3.047687470590127,2.611478696741855,0,0.75
1757395195.9263673,0.374,-0.356,9.698,0.4094030898759803,3.047687470590127,2.611478696741855,0,0.75
1757395195.9532545,0.435,-0.192,9.659,0.40878770774082723,2.818251427590396,2.609323308270677,0,0.75
1757395195.9802015,0.435,-0.192,9.659,0.40878770774082723,2.818251427590396,2.609323308270677,0,0.75
1757395196.0077217,0.385,-0.375,9.543,0.4084107613665438,3.2234086185227593,2.610877192982456,0,0.75
1757395196.0340242,0.385,-0.375,9.543,0.4084107613665438,3.2234086185227593,2.610877192982456,0,0.75
1757395196.0613854,0.402,-0.337,9.479,0.4080126958809002,3.167526512583254,2.6101253132832083,0,0.75
1757395196.0889616,0.402,-0.337,9.479,0.4080126958809002,3.167526512583254,2.6101253132832083,0,0.75
1757395196.116508,0.462,-0.292,9.606,0.40787597379595675,3.2563832258426477,2.608471177944862,0,0.75
1757395196.1434448,0.462,-0.292,9.606,0.40787597379595675,3.2563832258426477,2.608471177944862,0,0.75
1757395196.1702516,0.457,-0.287,9.613,0.4074087996104158,3.213047979909068,2.6040100250626566,0,0.75
1757395196.1969724,0.457,-0.287,9.613,0.4074087996104158,3.213047979909068,2.6040100250626566,0,0.75
1757395196.2245018,0.501,-0.332,9.488,0.40739024288757825,3.6245740518915457,2.599649122807018,0,0.75
1757395196.2514393,0.501,-0.332,9.488,0.40739024288757825,3.6245740518915457,2.599649122807018,0,0.75
1757395196.278233,0.367,-0.351,9.672,0.40736972457461784,3.0055571262939322,2.5978947368421053,0,0.75
1757395196.3058891,0.367,-0.351,9.672,0.40736972457461784,3.0055571262939322,2.5978947368421053,0,0.75
1757395196.3336148,0.518,-0.346,9.707,0.4072816470208301,3.671814586919462,2.6011027568922302,0,0.75
1757395196.3616881,0.518,-0.346,9.707,0.4072816470208301,3.671814586919462,2.6011027568922302,0,0.75
1757395196.3904655,0.307,-0.348,9.664,0.4069269621197396,2.7492086182006683,2.6113784461152885,0,0.75
1757395196.4179127,0.307,-0.348,9.664,0.4069269621197396,2.7492086182006683,2.6113784461152885,0,0.75
1757395196.445405,0.427,-0.395,9.677,0.4068594536200431,3.4398959353525247,2.6137343358395992,0,0.75
1757395196.472909,0.427,-0.395,9.677,0.4068594536200431,3.4398959353525247,2.6137343358395992,0,0.75
1757395196.5002155,0.231,-0.366,9.783,0.406581990501301,2.5331218637672155,2.6162907268170428,0,0.75
1757395196.5269032,0.231,-0.366,9.783,0.406581990501301,2.5331218637672155,2.6162907268170428,0,0.75
1757395196.5537343,0.292,-0.298,9.753,0.40599955049236197,2.4495097550156406,2.6119799498746867,0,0.75
1757395196.58083,0.292,-0.298,9.753,0.40599955049236197,2.4495097550156406,2.6119799498746867,0,0.75
1757395196.6077948,0.283,-0.268,9.812,0.40580849547539044,2.274753251375632,2.6050626566416044,0,0.75
1757395196.6349752,0.283,-0.268,9.812,0.40580849547539044,2.274753251375632,2.6050626566416044,0,0.75
1757395196.6626358,0.474,-0.261,9.823,0.40633726754999966,3.1529936511971024,2.6063659147869678,0,0.75
1757395196.691172,0.474,-0.261,9.823,0.40633726754999966,3.1529936511971024,2.6063659147869678,0,0.75
1757395196.718596,0.195,-0.45,9.776,0.40597410631713937,2.871954881852605,2.61984962406015,0,0.75
1757395196.745728,0.195,-0.45,9.776,0.40597410631713937,2.871954881852605,2.61984962406015,0,0.75
1757395196.7732625,0.3,-0.289,9.636,0.40574611828087775,2.4753211182753105,2.6133834586466165,0,0.75
1757395196.8007164,0.3,-0.289,9.636,0.40574611828087775,2.4753211182753105,2.6133834586466165,0,0.75
1757395196.8275423,0.414,-0.397,9.719,0.4061838253795934,3.3775270512959534,2.615538847117794,0,0.75
1757395196.8549166,0.414,-0.397,9.719,0.4061838253795934,3.3775270512959534,2.615538847117794,0,0.75
1757395196.882559,0.434,-0.404,9.699,0.40673233213011234,3.4983451446201816,2.6030576441102755,0,0.75
1757395196.9105625,0.333,-0.272,9.641,0.40665465692648844,2.5535808227538372,2.6048621553884717,0,0.75
1757395196.9387496,0.333,-0.272,9.641,0.40665465692648844,2.5535808227538372,2.6048621553884717,0,0.75
1757395196.9665136,0.373,-0.124,9.751,0.40650331179462734,2.3083925963722978,2.591829573934837,0,0.75
1757395196.9946136,0.373,-0.124,9.751,0.40650331179462734,2.3083925963722978,2.591829573934837,0,0.75
1757395197.0227373,0.5,-0.285,9.783,0.4072162232770203,3.3667578238433986,2.5851629072681703,0,0.75
1757395197.0508342,0.5,-0.285,9.783,0.4072162232770203,3.3667578238433986,2.5851629072681703,0,0.75
1757395197.078712,0.402,-0.571,9.676,0.40723577016269086,4.127873220914983,2.588471177944862,0,0.75
1757395197.1065242,0.402,-0.571,9.676,0.40723577016269086,4.127873220914983,2.588471177944862,0,0.75
1757395197.1329641,0.425,-0.383,9.541,0.40723315803112103,3.4315577625775497,2.5883208020050126,0,0.75
1757395197.160969,0.425,-0.383,9.541,0.40723315803112103,3.4315577625775497,2.5883208020050126,0,0.75
1757395197.189215,0.808,-0.386,9.342,0.4087432017783293,5.475291148676856,2.6025062656641604,0,0.75
1757395197.2165267,0.808,-0.386,9.342,0.4087432017783293,5.475291148676856,2.6025062656641604,0,0.75
1757395197.2438855,0.875,-0.445,9.319,0.41080417171689,6.0133196777097915,2.5991478696741854,0,0.75
1757395197.2710564,0.875,-0.445,9.319,0.41080417171689,6.0133196777097915,2.5991478696741854,0,0.75
1757395197.2988262,0.509,-0.311,9.386,0.41101931828078353,3.636324452418045,2.6144862155388466,0,0.75
1757395197.326818,0.509,-0.311,9.386,0.41101931828078353,3.636324452418045,2.6144862155388466,0,0.75
1757395197.3545072,0.704,-0.33,9.394,0.41209978160634836,4.73137348948582,2.6239598997493734,0,0.75
1757395197.3828628,0.704,-0.33,9.394,0.41209978160634836,4.73137348948582,2.6239598997493734,0,0.75
1757395197.4105396,0.745,-0.31,9.411,0.4133705752711482,4.900700247715708,2.6195989974937346,0,0.75
1757395197.4380622,0.745,-0.31,9.411,0.4133705752711482,4.900700247715708,2.6195989974937346,0,0.75
1757395197.4657457,0.718,-0.332,9.559,0.4141847444076133,4.730657011427325,2.6134335839598997,0,0.75
1757395197.4931092,0.718,-0.332,9.559,0.4141847444076133,4.730657011427325,2.6134335839598997,0,0.75
1757395197.5207422,0.527,-0.251,9.663,0.41466134977834623,3.4569126898433553,2.6188471177944863,0,0.75
1757395197.548237,0.527,-0.251,9.663,0.41466134977834623,3.4569126898433553,2.6188471177944863,0,0.75
1757395197.5757718,0.493,-0.308,9.71,0.41483919173578576,3.4260036495141213,2.617593984962406,0,0.75
1757395197.6033778,0.493,-0.308,9.71,0.41483919173578576,3.4260036495141213,2.617593984962406,0,0.75
1757395197.6313338,0.505,-0.36,9.913,0.4151949752826977,3.5798977436319235,2.618095238095238,0,0.75
1757395197.6592252,0.505,-0.36,9.913,0.4151949752826977,3.5798977436319235,2.618095238095238,0,0.75
1757395197.6866453,0.329,-0.266,9.99,0.41510421583019363,2.425049334299162,2.6266666666666665,0,0.75
1757395197.7129867,0.329,-0.266,9.99,0.41510421583019363,2.425049334299162,2.6266666666666665,0,0.75
1757395197.7403038,0.181,-0.25,10.124,0.41477474609720394,1.7461983407274366,2.629924812030075,0,0.75
1757395197.7671444,0.181,-0.25,10.124,0.41477474609720394,1.7461983407274366,2.629924812030075,0,0.75
1757395197.7944155,0.448,-0.335,10.267,0.41511897089870514,3.1186940562188927,2.6418045112781954,0,0.75
1757395197.8213272,0.448,-0.335,10.267,0.41511897089870514,3.1186940562188927,2.6418045112781954,0,0.75
1757395197.8487892,0.178,-0.23,10.098,0.4148982164338622,1.6497241654254533,2.6494736842105264,0,0.75
1757395197.8756578,0.178,-0.23,10.098,0.4148982164338622,1.6497241654254533,2.6494736842105264,0,0.75
1757395197.9032185,0.331,-0.359,10.089,0.41509915682882326,2.7709399560364276,2.649172932330827,0,0.75
1757395197.9309523,0.331,-0.359,10.089,0.41509915682882326,2.7709399560364276,2.649172932330827,0,0.75
1757395197.9585376,0.191,-0.246,10.295,0.4148055237096054,1.732778295877807,2.6520300751879695,0,0.75
1757395197.9859834,0.191,-0.246,10.295,0.4148055237096054,1.732778295877807,2.6520300751879695,0,0.75
1757395198.0123308,0.317,-0.034,10.121,0.4145007147159097,1.8042579621587977,2.6517794486215536,0,0.75
1757395198.0402067,0.317,-0.034,10.121,0.4145007147159097,1.8042579621587977,2.6517794486215536,0,0.75
1757395198.0668907,0.147,-0.062,10.002,0.414260853810736,0.9138363786175814,2.6601002506265665,0,0.75
1757395198.0943196,0.147,-0.062,10.002,0.414260853810736,0.9138363786175814,2.6601002506265665,0,0.75
1757395198.121339,0.228,-0.118,10.038,0.41412018183131327,1.4650412192157738,2.6606516290726816,0,0.75
1757395198.1488886,0.228,-0.118,10.038,0.41412018183131327,1.4650412192157738,2.6606516290726816,0,0.75
1757395198.1755428,0.314,-0.007,9.957,0.41423806560962023,1.8067068309614642,2.6600501253132833,0,0.75
1757395198.2031877,0.314,-0.007,9.957,0.41423806560962023,1.8067068309614642,2.6600501253132833,0,0.75
1757395198.2306597,0.146,-0.13,9.829,0.41394933868771916,1.1394064044717993,2.6666165413533833,0,0.75
1757395198.2588778,0.146,-0.13,9.829,0.41394933868771916,1.1394064044717993,2.6666165413533833,0,0.75
1757395198.28614,0.384,-0.223,9.88,0.41411367098901725,2.5734186860355583,2.6693734335839596,0,0.75
1757395198.3133547,0.384,-0.223,9.88,0.41411367098901725,2.5734186860355583,2.6693734335839596,0,0.75
1757395198.3414443,0.233,-0.126,9.782,0.4135583332493737,1.5511332961991842,2.6678696741854635,0,0.75
1757395198.368904,0.24,-0.137,9.596,0.4134475450404803,1.6495706764851843,2.6665162907268174,0,0.75
1757395198.3956327,0.24,-0.137,9.596,0.4134475450404803,1.6495706764851843,2.6665162907268174,0,0.75
1757395198.4230418,0.298,-0.348,9.733,0.4133644638814517,2.6950693088859103,2.655989974937343,0,0.75
1757395198.4506285,0.298,-0.348,9.733,0.4133644638814517,2.6950693088859103,2.655989974937343,0,0.75
1757395198.4780223,0.376,-0.254,9.662,0.4126698650253008,2.6887867698354135,2.655187969924812,0,0.75
1757395198.5054712,0.376,-0.254,9.662,0.4126698650253008,2.6887867698354135,2.655187969924812,0,0.75
1757395198.5334709,0.2,-0.066,9.542,0.41198708110813376,1.2644128432392592,2.6556390977443605,0,0.75
1757395198.5619612,0.2,-0.066,9.542,0.41198708110813376,1.2644128432392592,2.6556390977443605,0,0.75
1757395198.5896196,0.258,-0.235,9.683,0.41182156937197933,2.0640908000650366,2.655739348370927,0,0.75
1757395198.6171787,0.258,-0.235,9.683,0.41182156937197933,2.0640908000650366,2.655739348370927,0,0.75
1757395198.6447809,0.259,-0.358,9.831,0.41152966782481193,2.573491304568695,2.6491228070175437,0,0.75
1757395198.6722708,0.259,-0.358,9.831,0.41152966782481193,2.573491304568695,2.6491228070175437,0,0.75
1757395198.699498,0.165,-0.184,9.731,0.4107356905602434,1.4548722997789496,2.6486215538847118,0,0.75
1757395198.7254255,0.165,-0.184,9.731,0.4107356905602434,1.4548722997789496,2.6486215538847118,0,0.75
1757395198.752581,0.522,-0.408,9.689,0.41099427611586026,3.9117824253241484,2.650275689223058,0,0.75
1757395198.7800632,0.522,-0.408,9.689,0.41099427611586026,3.9117824253241484,2.650275689223058,0,0.75
1757395198.8082435,0.177,-0.381,9.877,0.40934337053383435,2.435543758361646,2.6528822055137846,0,0.75
1757395198.8358223,0.177,-0.381,9.877,0.40934337053383435,2.435543758361646,2.6528822055137846,0,0.75
1757395198.8637352,0.405,-0.36,9.742,0.40918677581270874,3.1836384652042353,2.649874686716792,0,0.75
1757395198.890776,0.405,-0.36,9.742,0.40918677581270874,3.1836384652042353,2.649874686716792,0,0.75
1757395198.9180634,0.345,-0.426,9.803,0.40782057329173577,3.2006230098260295,2.6410025062656644,0,0.75
1757395198.9455454,0.345,-0.426,9.803,0.40782057329173577,3.2006230098260295,2.6410025062656644,0,0.75
1757395198.9734628,0.525,-0.519,9.815,0.40785244880961546,4.301382190023718,2.638997493734336,0,0.75
1757395199.0011163,0.525,-0.519,9.815,0.40785244880961546,4.301382190023718,2.638997493734336,0,0.75
1757395199.028231,0.453,-0.327,9.784,0.40682438471655064,3.2681963292041116,2.6419047619047618,0,0.75
1757395199.055969,0.453,-0.327,9.784,0.40682438471655064,3.2681963292041116,2.6419047619047618,0,0.75
1757395199.0839252,0.248,-0.239,9.827,0.4054136622019539,2.007298947102667,2.6343859649122803,0,0.75
1757395199.111692,0.248,-0.239,9.827,0.4054136622019539,2.007298947102667,2.6343859649122803,0,0.75
1757395199.1394773,0.554,-0.221,9.917,0.40594659439389313,3.4418837468044567,2.640902255639098,0,0.75
1757395199.1670828,0.554,-0.221,9.917,0.40594659439389313,3.4418837468044567,2.640902255639098,0,0.75
1757395199.1956356,0.392,-0.349,9.845,0.40551496581507324,3.051611190794054,2.643107769423559,0,0.75
1757395199.2232127,0.392,-0.349,9.845,0.40551496581507324,3.051611190794054,2.643107769423559,0,0.75
1757395199.2504919,0.42,-0.243,9.593,0.40550455916055983,2.8956538203110593,2.6403007518796993,0,0.75
1757395199.2780244,0.42,-0.243,9.593,0.40550455916055983,2.8956538203110593,2.6403007518796993,0,0.75
1757395199.3054335,0.583,-0.31,9.675,0.4061953594023447,3.9042400079619073,2.6458145363408523,0,0.75
1757395199.3320885,0.583,-0.31,9.675,0.4061953594023447,3.9042400079619073,2.6458145363408523,0,0.75
1757395199.3596637,0.262,-0.421,9.616,0.40615312075619947,2.951954687997891,2.659047619047619,0,0.75
1757395199.3867676,0.262,-0.421,9.616,0.40615312075619947,2.951954687997891,2.659047619047619,0,0.75
1757395199.4134443,0.469,-0.372,9.636,0.40666695218569215,3.554829355389043,2.6610526315789476,0,0.75
1757395199.440999,0.469,-0.372,9.636,0.40666695218569215,3.554829355389043,2.6610526315789476,0,0.75
1757395199.4684258,0.606,-0.382,9.639,0.4073107873602171,4.25029815016409,2.664761904761905,0,0.75
1757395199.4964123,0.606,-0.382,9.639,0.4073107873602171,4.25029815016409,2.664761904761905,0,0.75
1757395199.5239494,0.396,-0.45,9.556,0.40744966253514064,3.5893525366270915,2.665964912280702,0,0.75
1757395199.5514114,0.396,-0.45,9.556,0.40744966253514064,3.5893525366270915,2.665964912280702,0,0.75
1757395199.5788171,0.519,-0.464,9.623,0.40820812093832726,4.137837588600029,2.6624060150375937,0,0.75
1757395199.6055574,0.519,-0.464,9.623,0.40820812093832726,4.137837588600029,2.6624060150375937,0,0.75
1757395199.6321785,0.279,-0.47,9.786,0.408088302331738,3.196788117037449,2.6736340852130325,0,0.75
1757395199.6592257,0.279,-0.47,9.786,0.408088302331738,3.196788117037449,2.6736340852130325,0,0.75
1757395199.686428,0.271,-0.591,9.915,0.40798771427581004,3.7517682686430596,2.659649122807018,0,0.75
1757395199.7138479,0.271,-0.591,9.915,0.40798771427581004,3.7517682686430596,2.659649122807018,0,0.75
1757395199.7406375,0.435,-0.532,9.882,0.40856240037477753,3.977999226383861,2.6470175438596493,0,0.75
1757395199.7680032,0.435,-0.532,9.882,0.40856240037477753,3.977999226383861,2.6470175438596493,0,0.75
1757395199.7963693,0.26,-0.254,9.999,0.4081356055283587,2.081865105144169,2.6521303258145363,0,0.75
1757395199.8241467,0.26,-0.254,9.999,0.4081356055283587,2.081865105144169,2.6521303258145363,0,0.75
1757395199.851678,0.359,-0.35,10.083,0.4080834044653127,2.846698865014749,2.651478696741855,0,0.75
1757395199.8790493,0.359,-0.35,10.083,0.4080834044653127,2.846698865014749,2.651478696741855,0,0.75
1757395199.9058607,0.163,-0.051,9.858,0.4074167368923373,0.9925641512455714,2.6546365914786967,0,0.75
1757395199.9327633,0.163,-0.051,9.858,0.4074167368923373,0.9925641512455714,2.6546365914786967,0,0.75
1757395199.959114,0.406,0.0,9.785,0.4067157053766181,2.3759581988071874,2.6446115288220553,0,0.75
1757395199.9867165,0.406,0.0,9.785,0.4067157053766181,2.3759581988071874,2.6446115288220553,0,0.75
1757395200.0129967,0.352,-0.311,9.824,0.4069923647932477,2.7373544331865745,2.623358395989975,0,0.75
1757395200.0393794,0.352,-0.311,9.824,0.4069923647932477,2.7373544331865745,2.623358395989975,0,0.75
1757395200.066914,0.366,-0.456,9.803,0.406056726332664,3.4134524678895963,2.623759398496241,0,0.75
1757395200.0945053,0.366,-0.456,9.803,0.406056726332664,3.4134524678895963,2.623759398496241,0,0.75
1757395200.122476,0.414,-0.379,9.986,0.40525882470342334,3.2170301766620812,2.615137844611529,0,0.75
1757395200.150024,0.564,-0.652,9.979,0.4056534419920531,4.937550077677768,2.617844611528822,0,0.75
1757395200.17774,0.564,-0.652,9.979,0.4056534419920531,4.937550077677768,2.617844611528822,0,0.75
1757395200.2053406,0.564,-0.652,9.979,0.4056534419920531,4.937550077677768,2.617844611528822,0,0.75
1757395200.2332494,0.606,-0.544,9.934,0.40591285394774085,4.6864236922543645,2.6199498746867165,0,0.75
1757395200.2609065,0.548,-0.457,9.869,0.4059660638526329,4.135410001622516,2.615538847117794,0,0.75
1757395200.2890167,0.548,-0.457,9.869,0.4059660638526329,4.135410001622516,2.615538847117794,0,0.75
1757395200.3167105,0.67,-0.506,9.832,0.4068884429422886,4.880937612095336,2.6149373433583953,0,0.75
1757395200.3440442,0.67,-0.506,9.832,0.4068884429422886,4.880937612095336,2.6149373433583953,0,0.75
1757395200.3715942,0.661,-0.422,9.6,0.4073996901078841,4.670113716315856,2.6054135338345863,0,0.75
1757395200.3995774,0.661,-0.422,9.6,0.4073996901078841,4.670113716315856,2.6054135338345863,0,0.75
1757395200.4265413,0.625,-0.346,9.695,0.40828111332756994,4.214255697749343,2.599949874686717,0,0.75
1757395200.4534874,0.625,-0.346,9.695,0.40828111332756994,4.214255697749343,2.599949874686717,0,0.75
1757395200.48061,0.457,-0.465,9.741,0.4082556796910485,3.829165168163611,2.603759398496241,0,0.75
1757395200.506892,0.457,-0.465,9.741,0.4082556796910485,3.829165168163611,2.603759398496241,0,0.75
1757395200.532397,0.457,-0.465,9.741,0.4082556796910485,3.829165168163611,2.603759398496241,0,0.75
1757395200.5599298,0.561,-0.403,9.688,0.4087906707594977,4.078237924048744,2.6048621553884708,0,0.75
1757395200.5877435,0.561,-0.403,9.688,0.4087906707594977,4.078237924048744,2.6048621553884708,0,0.75
1757395200.6154299,0.452,-0.497,9.682,0.40877956468003634,3.9691815229065623,2.6082706766917294,0,0.75
1757395200.643258,0.417,-0.394,9.752,0.40855591110642375,3.3667364969561513,2.6088721804511272,0,0.75
1757395200.6714485,0.417,-0.394,9.752,0.40855591110642375,3.3667364969561513,2.6088721804511272,0,0.75
1757395200.6989856,0.296,-0.386,9.713,0.4081363528283164,2.866981883670442,2.6087218045112786,0,0.75
1757395200.7269669,0.296,-0.386,9.713,0.4081363528283164,2.866981883670442,2.6087218045112786,0,0.75
1757395200.7542417,0.218,-0.44,9.842,0.40790665905326917,2.856271716694672,2.5998496240601505,0,0.75
1757395200.7818632,0.218,-0.44,9.842,0.40790665905326917,2.856271716694672,2.5998496240601505,0,0.75
1757395200.809503,0.152,-0.334,9.906,0.40685444571738427,2.1215099566658324,2.593483709273183,0,0.75
1757395200.8371036,0.152,-0.334,9.906,0.40685444571738427,2.1215099566658324,2.593483709273183,0,0.75
1757395200.864395,0.164,-0.406,9.893,0.4064153294352958,2.53430317716715,2.5895238095238096,0,0.75
1757395200.8907626,0.164,-0.406,9.893,0.4064153294352958,2.53430317716715,2.5895238095238096,0,0.75
1757395200.9184294,0.122,-0.537,9.937,0.40568227407664736,3.1719468259407138,2.588471177944862,0,0.75
1757395200.9461215,0.122,-0.537,9.937,0.40568227407664736,3.1719468259407138,2.588471177944862,0,0.75
1757395200.9737926,0.068,-0.401,9.908,0.4050995772646523,2.350679603032073,2.5883709273182953,0,0.75
1757395201.0007403,0.068,-0.401,9.908,0.4050995772646523,2.350679603032073,2.5883709273182953,0,0.75
1757395201.027867,0.291,-0.388,9.823,0.40490582855770296,2.8266217334420567,2.5953383458646617,0,0.75
1757395201.0545702,0.291,-0.388,9.823,0.40490582855770296,2.8266217334420567,2.5953383458646617,0,0.75
1757395201.0822768,0.123,-0.322,9.865,0.4046746254708837,2.0011556896230736,2.5988471177944863,0,0.75
1757395201.1097474,0.123,-0.322,9.865,0.4046746254708837,2.0011556896230736,2.5988471177944863,0,0.75
1757395201.1364355,0.175,-0.169,9.724,0.404279736073922,1.433166303007314,2.5988972431077695,0,0.75
