timestamp,ax,ay,az,rms,tilt_now,jerk,tilt_crosses,freq
1757394885.3051283,0.192,-0.346,9.739,0.0096,2.326685036239225,0.00962406015037594,0,0.25
1757394885.3330586,0.187,-0.342,9.735,0.013400839525940157,2.2928772820638543,0.00987468671679198,0,0.05
1757394885.3603408,0.171,-0.348,9.748,0.01589606869637899,2.2778373947414243,0.010676691729323307,0,0.05
1757394885.3864439,0.174,-0.348,9.749,0.018121120274420123,2.2854219641976106,0.010827067669172932,0,0.05
1757394885.414652,0.159,-0.341,9.738,0.019788317260444357,2.212637349611954,0.011578947368421052,0,0.05
1757394885.4410882,0.153,-0.338,9.73,0.021215560327269227,2.183696505569887,0.011879699248120299,0,0.05
1757394885.4667954,0.142,-0.324,9.718,0.02237208081515888,2.0847409536256736,0.012431077694235586,0,0.05
1757394885.4922934,0.123,-0.327,9.711,0.02320199344883969,2.0604142149818956,0.013383458646616539,0,0.05
1757394885.5173495,0.111,-0.327,9.722,0.023856550463132762,2.034293742881656,0.013984962406015036,0,0.05
1757394885.542552,0.091,-0.329,9.723,0.024286570363062792,2.0107032319528426,0.014987468671679197,0,0.05
1757394885.5678568,0.089,-0.327,9.715,0.02469088900789115,1.9978793570771265,0.015087719298245613,0,0.05
1757394885.593257,0.098,-0.334,9.717,0.025172405526687355,2.0515608498164477,0.015538847117794484,0,0.05
1757394885.6184857,0.107,-0.334,9.726,0.025734655622331536,2.065197608660542,0.015989974937343356,0,0.05
1757394885.6440527,0.103,-0.342,9.728,0.02624490426730492,2.102729539907479,0.01619047619047619,0,0.05
1757394885.6692019,0.106,-0.349,9.735,0.026774708215030092,2.145703960761234,0.016340852130325812,0,0.05
1757394885.6943989,0.116,-0.345,9.729,0.027395711343201144,2.1425389781605544,0.016842105263157898,0,0.05
1757394885.7194712,0.116,-0.345,9.729,0.027395711343201144,2.1425389781605544,0.016842105263157898,0,0.05
1757394885.7443306,0.132,-0.353,9.713,0.02817951383540887,2.222010319348483,0.017644110275689222,0,0.05
1757394885.7692306,0.138,-0.358,9.718,0.029011980284013708,2.2609238926277286,0.017944862155388472,0,0.05
1757394885.7940555,0.138,-0.358,9.718,0.029011980284013708,2.2609238926277286,0.017944862155388472,0,0.05
1757394885.8189206,0.143,-0.356,9.734,0.02988005187411829,2.2570352475822903,0.01819548872180451,0,0.05
1757394885.8437092,0.143,-0.356,9.734,0.02988005187411829,2.2570352475822903,0.01819548872180451,0,0.05
1757394885.8689413,0.143,-0.356,9.734,0.02988005187411829,2.2570352475822903,0.01819548872180451,0,0.05
1757394885.8939247,0.149,-0.354,9.738,0.03079480475664686,2.258649548721649,0.01849624060150376,0,0.05
1757394885.9191344,0.149,-0.354,9.738,0.03079480475664686,2.258649548721649,0.01849624060150376,0,0.05
1757394885.9441886,0.155,-0.365,9.737,0.031755038970216996,2.3321305370204244,0.018796992481203006,0,0.05
1757394885.969328,0.155,-0.365,9.737,0.031755038970216996,2.3321305370204244,0.018796992481203006,0,0.05
1757394885.994439,0.17,-0.358,9.723,0.03287297522281791,2.3341046999040467,0.019548872180451128,0,0.05
1757394886.020026,0.17,-0.358,9.723,0.03287297522281791,2.3341046999040467,0.019548872180451128,0,0.05
1757394886.0450864,0.194,-0.359,9.723,0.034274225009473226,2.4032383255706184,0.020751879699248122,0,0.05
1757394886.0706306,0.194,-0.359,9.723,0.034274225009473226,2.4032383255706184,0.020751879699248122,0,0.05
1757394886.095988,0.196,-0.375,9.73,0.03564775589009777,2.490075361674373,0.02085213032581454,0,0.05
1757394886.1218195,0.196,-0.375,9.73,0.03564775589009777,2.490075361674373,0.02085213032581454,0,0.05
1757394886.1468403,0.201,-0.374,9.732,0.03703734601722969,2.4981319343011057,0.021102756892230578,0,0.05
1757394886.1718144,0.201,-0.374,9.732,0.03703734601722969,2.4981319343011057,0.021102756892230578,0,0.05
1757394886.196671,0.208,-0.367,9.729,0.038469793344908944,2.4827623028916728,0.02145363408521303,0,0.05
1757394886.2215686,0.208,-0.367,9.729,0.038469793344908944,2.4827623028916728,0.02145363408521303,0,0.05
1757394886.2464366,0.208,-0.367,9.729,0.038469793344908944,2.4827623028916728,0.02145363408521303,0,0.05
1757394886.2713516,0.231,-0.374,9.726,0.040166248268913546,2.587843739815253,0.022606516290726814,0,0.05
1757394886.2964709,0.231,-0.374,9.726,0.040166248268913546,2.587843739815253,0.022606516290726814,0,0.05
1757394886.3215475,0.25,-0.384,9.738,0.04206634640659918,2.6939950712602436,0.023558897243107765,0,0.05
1757394886.346771,0.25,-0.384,9.738,0.04206634640659918,2.6939950712602436,0.023558897243107765,0,0.05
1757394886.3718195,0.261,-0.384,9.735,0.04404406884019686,2.7306051895264853,0.024110275689223054,0,0.05
1757394886.3967547,0.261,-0.384,9.735,0.04404406884019686,2.7306051895264853,0.024110275689223054,0,0.05
1757394886.4217072,0.254,-0.385,9.74,0.045838520918546226,2.7112212077306785,0.024461152882205513,0,0.05
1757394886.4468904,0.254,-0.385,9.74,0.045838520918546226,2.7112212077306785,0.024461152882205513,0,0.05
1757394886.4720771,0.267,-0.386,9.728,0.04774298377772382,2.7621985641790627,0.02511278195488722,0,0.05
1757394886.4973297,0.267,-0.386,9.728,0.04774298377772382,2.7621985641790627,0.02511278195488722,0,0.05
1757394886.5223894,0.257,-0.395,9.72,0.04944203677034351,2.7756538051826625,0.025614035087719294,0,0.05
1757394886.547413,0.257,-0.395,9.72,0.04944203677034351,2.7756538051826625,0.025614035087719294,0,0.05
1757394886.5723953,0.257,-0.395,9.72,0.04944203677034351,2.7756538051826625,0.025614035087719294,0,0.05
1757394886.5973382,0.266,-0.379,9.731,0.05119965820198412,2.72425066033373,0.026065162907268166,0,0.05
1757394886.6222298,0.266,-0.379,9.731,0.05119965820198412,2.72425066033373,0.026065162907268166,0,0.05
1757394886.6471243,0.273,-0.387,9.733,0.052987993923152066,2.7857760281144395,0.026416040100250626,0,0.05
1757394886.6720905,0.273,-0.387,9.733,0.052987993923152066,2.7857760281144395,0.026416040100250626,0,0.05
1757394886.697101,0.277,-0.393,9.745,0.05476814767727679,2.824632834216449,0.02661654135338346,0,0.05
1757394886.7221465,0.277,-0.393,9.745,0.05476814767727679,2.824632834216449,0.02661654135338346,0,0.05
1757394886.7472346,0.281,-0.396,9.751,0.056541599729756496,2.8507924715554083,0.026817042606516298,0,0.05
1757394886.7724864,0.281,-0.396,9.751,0.056541599729756496,2.8507924715554083,0.026817042606516298,0,0.05
1757394886.7974386,0.277,-0.391,9.755,0.05821318579153696,2.8121716263285306,0.02701754385964912,0,0.05
1757394886.822466,0.277,-0.391,9.755,0.05821318579153696,2.8121716263285306,0.02701754385964912,0,0.05
1757394886.8474095,0.277,-0.384,9.753,0.059838094053871735,2.779373062922269,0.02701754385964912,0,0.05
1757394886.8724606,0.277,-0.384,9.753,0.059838094053871735,2.779373062922269,0.02701754385964912,0,0.05
1757394886.8974266,0.273,-0.372,9.763,0.061375239307069104,2.7059351000109078,0.027218045112781957,0,0.05
1757394886.9224558,0.273,-0.372,9.763,0.061375239307069104,2.7059351000109078,0.027218045112781957,0,0.05
1757394886.947879,0.273,-0.372,9.763,0.061375239307069104,2.7059351000109078,0.027218045112781957,0,0.05
1757394886.972893,0.261,-0.364,9.773,0.06274729077816826,2.624066306905201,0.027819548872180456,0,0.05
1757394886.9979699,0.261,-0.364,9.773,0.06274729077816826,2.624066306905201,0.027819548872180456,0,0.05
1757394887.0227897,0.256,-0.357,9.768,0.06403953856798157,2.5750532365022814,0.028070175438596495,0,0.05
1757394887.0476878,0.256,-0.357,9.768,0.06403953856798157,2.5750532365022814,0.028070175438596495,0,0.05
1757394887.0726793,0.238,-0.364,9.767,0.06513580044798713,2.5495665668368312,0.02897243107769424,0,0.05
1757394887.0977263,0.238,-0.364,9.767,0.06513580044798713,2.5495665668368312,0.02897243107769424,0,0.05
1757394887.1227875,0.229,-0.362,9.762,0.0661345219987262,2.512497353713228,0.029423558897243112,0,0.05
1757394887.147695,0.229,-0.362,9.762,0.0661345219987262,2.512497353713228,0.029423558897243112,0,0.05
1757394887.172764,0.226,-0.366,9.761,0.0670929579017053,2.5233113337814026,0.02957393483709274,0,0.05
1757394887.1977997,0.226,-0.366,9.761,0.0670929579017053,2.5233113337814026,0.02957393483709274,0,0.05
1757394887.222833,0.222,-0.366,9.732,0.06800496305417715,2.518551466892662,0.02977443609022557,0,0.05
1757394887.2478166,0.222,-0.366,9.732,0.06800496305417715,2.518551466892662,0.02977443609022557,0,0.05
1757394887.2727647,0.222,-0.366,9.732,0.06800496305417715,2.518551466892662,0.02977443609022557,0,0.05
1757394887.2976525,0.214,-0.354,9.723,0.06884159353181767,2.4361316859983515,0.030175438596491234,0,0.05
1757394887.3227012,0.214,-0.354,9.723,0.06884159353181767,2.4361316859983515,0.030175438596491234,0,0.05
1757394887.3475792,0.213,-0.355,9.725,0.06966051607618193,2.4376350532484494,0.03022556390977444,0,0.05
1757394887.3724816,0.213,-0.355,9.725,0.06966051607618193,2.4376350532484494,0.03022556390977444,0,0.05
1757394887.3975399,0.205,-0.361,9.734,0.07041058159112165,2.4421300261104597,0.0306265664160401,0,0.05
1757394887.4225283,0.205,-0.361,9.734,0.07041058159112165,2.4421300261104597,0.0306265664160401,0,0.05
1757394887.4475358,0.186,-0.353,9.717,0.07102210923367455,2.3513910800167914,0.03157894736842105,0,0.05
1757394887.4725192,0.186,-0.353,9.717,0.07102210923367455,2.3513910800167914,0.03157894736842105,0,0.05
1757394887.497604,0.188,-0.348,9.73,0.07164146843832837,2.327854038417069,0.03167919799498747,0,0.05
1757394887.5228057,0.188,-0.348,9.73,0.07164146843832837,2.327854038417069,0.03167919799498747,0,0.05
1757394887.5478585,0.178,-0.349,9.724,0.07219217409110215,2.307150005204869,0.03218045112781954,0,0.05
1757394887.5727983,0.178,-0.349,9.724,0.07219217409110215,2.307150005204869,0.03218045112781954,0,0.05
1757394887.5985548,0.181,-0.346,9.721,0.07275721613695785,2.3002785858360033,0.03233082706766917,0,0.05
1757394887.6240911,0.181,-0.346,9.721,0.07275721613695785,2.3002785858360033,0.03233082706766917,0,0.05
1757394887.649828,0.181,-0.346,9.721,0.07275721613695785,2.3002785858360033,0.03233082706766917,0,0.05
1757394887.6751375,0.154,-0.332,9.702,0.07316353258283802,2.1602829804282284,0.03368421052631578,0,0.05
1757394887.7004251,0.154,-0.332,9.702,0.07316353258283802,2.1602829804282284,0.03368421052631578,0,0.05
1757394887.7254643,0.146,-0.324,9.711,0.0735268148364935,2.095814501335402,0.034085213032581455,0,0.05
1757394887.750565,0.146,-0.324,9.711,0.0735268148364935,2.095814501335402,0.034085213032581455,0,0.05
1757394887.7757182,0.132,-0.324,9.716,0.07382243900061823,2.062235403337542,0.03478696741854635,0,0.05
1757394887.8008282,0.132,-0.324,9.716,0.07382243900061823,2.062235403337542,0.03478696741854635,0,0.05
1757394887.8258595,0.124,-0.332,9.725,0.07408233595129138,2.0870636758949397,0.035187969924812025,0,0.05
1757394887.851022,0.124,-0.332,9.725,0.07408233595129138,2.0870636758949397,0.035187969924812025,0,0.05
1757394887.8766594,0.107,-0.315,9.711,0.07427526506179563,1.9620572388858593,0.03604010025062657,0,0.05
1757394887.9017544,0.107,-0.315,9.711,0.07427526506179563,1.9620572388858593,0.03604010025062657,0,0.05
1757394887.9267387,0.103,-0.318,9.725,0.07445359292874991,1.9685788393030133,0.0362406015037594,0,0.05
1757394887.9517996,0.103,-0.318,9.725,0.07445359292874991,1.9685788393030133,0.0362406015037594,0,0.05
1757394887.9768677,0.103,-0.318,9.725,0.07445359292874991,1.9685788393030133,0.0362406015037594,0,0.05
1757394888.0017483,0.095,-0.307,9.722,0.07460495962065793,1.8932345129967543,0.03664160401002506,0,0.05
1757394888.0267603,0.095,-0.307,9.722,0.07460495962065793,1.8932345129967543,0.03664160401002506,0,0.05
1757394888.0519671,0.099,-0.317,9.727,0.07476899424226596,1.9554338146221109,0.0368421052631579,0,0.05
1757394888.077087,0.099,-0.317,9.727,0.07476899424226596,1.9554338146221109,0.0368421052631579,0,0.05
1757394888.1019573,0.091,-0.317,9.735,0.07490730938967172,1.940328100932372,0.037243107769423564,0,0.05
1757394888.1268542,0.091,-0.317,9.735,0.07490730938967172,1.940328100932372,0.037243107769423564,0,0.05
1757394888.1517835,0.105,-0.335,9.757,0.07509106138549382,2.0606891091586506,0.03794486215538847,0,0.05
1757394888.176974,0.105,-0.335,9.757,0.07509106138549382,2.0606891091586506,0.03794486215538847,0,0.05
1757394888.2020636,0.117,-0.335,9.768,0.07531859000273439,2.0804776772362223,0.03854636591478697,0,0.05
1757394888.2270577,0.117,-0.335,9.768,0.07531859000273439,2.0804776772362223,0.03854636591478697,0,0.05
1757394888.2520633,0.117,-0.343,9.765,0.07554543334973994,2.125427573437795,0.038546365914786974,0,0.05
1757394888.2770216,0.117,-0.343,9.765,0.07554543334973994,2.125427573437795,0.038546365914786974,0,0.05
1757394888.3020697,0.127,-0.349,9.765,0.07581183944477274,2.1780632319682924,0.039047619047619046,0,0.05
1757394888.3272746,0.127,-0.349,9.765,0.07581183944477274,2.1780632319682924,0.039047619047619046,0,0.05
1757394888.3525856,0.127,-0.349,9.765,0.07581183944477274,2.1780632319682924,0.039047619047619046,0,0.05
1757394888.3783262,0.135,-0.362,9.758,0.07611174350913268,2.2673566776589418,0.03944862155388471,0,0.05
1757394888.4036,0.135,-0.362,9.758,0.07611174350913268,2.2673566776589418,0.03944862155388471,0,0.05
1757394888.4296694,0.138,-0.363,9.744,0.07642386734522141,2.282311707430452,0.039598997493734335,0,0.05
1757394888.4570346,0.138,-0.363,9.744,0.07642386734522141,2.282311707430452,0.039598997493734335,0,0.05
1757394888.4847016,0.15,-0.363,9.755,0.07679099882147646,2.3056860371717565,0.04020050125313284,0,0.05
1757394888.512081,0.15,-0.363,9.755,0.07679099882147646,2.3056860371717565,0.04020050125313284,0,0.05
1757394888.5392914,0.337,-0.461,9.792,0.07861793688465757,3.337554455910743,0.049573934837092735,0,0.05
1757394888.5660932,0.337,-0.461,9.792,0.07861793688465757,3.337554455910743,0.049573934837092735,0,0.05
1757394888.5930786,0.598,-0.262,9.644,0.08411177087661394,3.8728838054040264,0.06265664160401002,0,0.05
1757394888.6198993,0.598,-0.262,9.644,0.08411177087661394,3.8728838054040264,0.06265664160401002,0,0.05
1757394888.6458094,0.576,-0.495,9.5,0.08890573659781466,4.570770003289727,0.0637593984962406,0,0.05
1757394888.672374,0.576,-0.495,9.5,0.08890573659781466,4.570770003289727,0.0637593984962406,0,0.05
1757394888.6986816,0.693,-0.512,9.59,0.09541935076283008,5.134006847403217,0.06962406015037595,0,0.05
1757394888.725348,0.693,-0.512,9.59,0.09541935076283008,5.134006847403217,0.06962406015037595,0,0.05
1757394888.752112,0.175,-0.625,9.73,0.09581970047959866,3.8162503057326473,0.0955889724310777,0,0.05
1757394888.7798877,0.175,-0.625,9.73,0.09581970047959866,3.8162503057326473,0.0955889724310777,0,0.05
1757394888.8063464,0.441,-0.63,9.723,0.09832404334647755,4.5222325273348485,0.10892230576441103,0,0.05
1757394888.8333857,0.441,-0.63,9.723,0.09832404334647755,4.5222325273348485,0.10892230576441103,0,0.05
1757394888.8595428,0.345,-0.66,9.99,0.09982574818151878,4.263382377651165,0.11373433583959901,0,0.05
1757394888.886327,0.345,-0.66,9.99,0.09982574818151878,4.263382377651165,0.11373433583959901,0,0.05
1757394888.912263,0.431,-0.515,9.871,0.1021253274168558,3.8920132128170195,0.1180451127819549,0,0.05
1757394888.9389482,0.431,-0.515,9.871,0.1021253274168558,3.8920132128170195,0.1180451127819549,0,0.05
1757394888.96659,0.458,-0.452,9.764,0.10466132284659888,3.7705362850537045,0.1193984962406015,0,0.05
1757394888.9935055,0.458,-0.452,9.764,0.10466132284659888,3.7705362850537045,0.1193984962406015,0,0.05
1757394889.0201771,0.426,-0.605,9.798,0.1068067530636523,4.318710398958572,0.12100250626566417,0,0.05
1757394889.0458744,0.426,-0.605,9.798,0.1068067530636523,4.318710398958572,0.12100250626566417,0,0.05
1757394889.0722816,0.543,-0.538,9.977,0.11020347090722687,4.381172978731229,0.12686716791979952,0,0.05
1757394889.0992763,0.543,-0.538,9.977,0.11020347090722687,4.381172978731229,0.12686716791979952,0,0.05
1757394889.1256323,0.227,-0.484,10.075,0.11078640485185896,3.0373176200523373,0.14270676691729325,0,0.05
1757394889.1519997,0.227,-0.484,10.075,0.11078640485185896,3.0373176200523373,0.14270676691729325,0,0.05
1757394889.1789145,0.353,-0.566,9.958,0.11218355494456396,3.8323494053755924,0.14902255639097745,0,0.05
1757394889.2057474,0.353,-0.566,9.958,0.11218355494456396,3.8323494053755924,0.14902255639097745,0,0.05
1757394889.2325025,0.353,-0.566,9.958,0.11218355494456396,3.8323494053755924,0.14902255639097745,0,0.05
1757394889.2597117,0.353,-0.566,9.958,0.11218355494456396,3.8323494053755924,0.14902255639097745,0,0.05
1757394889.2867155,0.614,-0.343,9.791,0.11630838318883123,4.108630535298491,0.16210526315789475,0,0.05
1757394889.3139446,0.614,-0.343,9.791,0.11630838318883123,4.108630535298491,0.16210526315789475,0,0.05
1757394889.3408492,0.369,-0.415,9.85,0.11776265324796313,3.2268161835418936,0.17438596491228073,0,0.05
1757394889.367909,0.411,-0.475,9.894,0.11954223103154801,3.63259597585163,0.17649122807017548,0,0.05
1757394889.3938277,0.411,-0.475,9.894,0.11954223103154801,3.63259597585163,0.17649122807017548,0,0.05
1757394889.4208622,0.506,-0.356,9.642,0.12219015917822515,3.671390801796815,0.18125313283208025,0,0.05
1757394889.4478679,0.409,-0.523,9.732,0.12388961820911387,3.9027779116414805,0.18611528822055143,0,0.05
1757394889.474612,0.409,-0.523,9.732,0.12388961820911387,3.9027779116414805,0.18611528822055143,0,0.05
1757394889.5015407,0.361,-0.641,9.863,0.12519760381093561,4.265695435136184,0.1885213032581454,0,0.05
1757394889.529545,0.361,-0.641,9.863,0.12519760381093561,4.265695435136184,0.1885213032581454,0,0.05
1757394889.5564988,0.361,-0.641,9.863,0.12519760381093561,4.265695435136184,0.1885213032581454,0,0.05
1757394889.5834317,0.361,-0.641,9.863,0.12519760381093561,4.265695435136184,0.1885213032581454,0,0.05
1757394889.6116328,0.361,-0.641,9.863,0.12519760381093561,4.265695435136184,0.1885213032581454,0,0.05
1757394889.6390324,0.361,-0.641,9.863,0.12519760381093561,4.265695435136184,0.1885213032581454,0,0.05
1757394889.6666055,0.361,-0.641,9.863,0.12519760381093561,4.265695435136184,0.1885213032581454,0,0.05
1757394889.6944737,0.361,-0.641,9.863,0.12519760381093561,4.265695435136184,0.1885213032581454,0,0.05
1757394889.7223134,0.273,-0.369,9.675,0.12593951921458174,2.716239729389098,0.1929323308270677,0,0.05
1757394889.749487,0.242,-0.288,9.789,0.1265194550256995,2.2007015882495513,0.19448621553884718,0,0.05
1757394889.7761858,0.371,-0.264,9.786,0.1278721040727805,2.664052001279637,0.200952380952381,0,0.05
1757394889.8032992,0.06,-0.27,9.875,0.12790729064443512,1.6043632958581031,0.21654135338345867,0,0.05
1757394889.8304806,0.29,-0.245,9.791,0.12872655126274454,2.2204844638010006,0.22807017543859645,0,0.05
1757394889.8571162,0.167,0.018,9.814,0.12899708330035992,0.9805253208609885,0.23423558897243107,0,0.05
1757394889.884307,-0.049,-0.335,9.762,0.12902034723251987,1.9863298108175467,0.245062656641604,0,0.05
1757394889.9113057,-0.049,-0.335,9.762,0.12902034723251987,1.9863298108175467,0.245062656641604,0,0.05
1757394889.9388125,-0.069,-0.26,9.973,0.1290664654354492,1.5450545073048259,0.24606516290726818,0,0.05
1757394889.966245,-0.069,-0.26,9.973,0.1290664654354492,1.5450545073048259,0.24606516290726818,0,0.05
1757394889.993375,0.018,-0.194,9.943,0.12906960331542047,1.1225681589645984,0.2504260651629072,0,0.05
1757394890.0197403,0.018,-0.194,9.943,0.12906960331542047,1.1225681589645984,0.2504260651629072,0,0.05
1757394890.0465906,0.146,-0.294,9.939,0.12927587748686914,1.8916238399868417,0.2568421052631579,0,0.05
1757394890.0734825,0.146,-0.294,9.939,0.12927587748686914,1.8916238399868417,0.2568421052631579,0,0.05
1757394890.1004958,-0.325,-0.397,9.994,0.13029318861705702,2.9388213481288172,0.2804511278195489,0,0.05
1757394890.1278565,-0.325,-0.397,9.994,0.13029318861705702,2.9388213481288172,0.2804511278195489,0,0.05
1757394890.1546578,0.317,-0.684,9.831,0.1312537142331599,4.3851234625477264,0.3126315789473684,0,0.05
1757394890.1816685,0.317,-0.684,9.831,0.1312537142331599,4.3851234625477264,0.3126315789473684,0,0.05
1757394890.2083497,0.01,-0.841,9.732,0.13125466658370666,4.939346522532581,0.32802005012531327,0,0.05
1757394890.23541,0.01,-0.841,9.732,0.13125466658370666,4.939346522532581,0.32802005012531327,0,0.05
1757394890.2624464,0.126,-0.73,9.778,0.13140577422624927,4.332527180333176,0.3338345864661654,0,0.05
1757394890.2891822,0.126,-0.73,9.778,0.13140577422624927,4.332527180333176,0.3338345864661654,0,0.05
1757394890.3165271,-0.06,-0.382,9.716,0.13144001483566564,2.279089810679386,0.34315789473684205,0,0.05
1757394890.3437276,-0.06,-0.382,9.716,0.13144001483566564,2.279089810679386,0.34315789473684205,0,0.05
1757394890.371628,0.245,-0.37,9.409,0.13200962086151147,2.700274314003392,0.3584461152882205,0,0.05
1757394890.3992069,0.245,-0.37,9.409,0.13200962086151147,2.700274314003392,0.3584461152882205,0,0.05
1757394890.425881,0.27,-0.41,9.283,0.13269811603786996,3.0271813173204487,0.3596992481203007,0,0.05
1757394890.4528697,0.27,-0.41,9.283,0.13269811603786996,3.0271813173204487,0.3596992481203007,0,0.05
1757394890.479921,0.131,-0.156,9.407,0.13285967221094594,1.2405434127971229,0.36666666666666664,0,0.05
1757394890.5066936,0.131,-0.156,9.407,0.13285967221094594,1.2405434127971229,0.36666666666666664,0,0.05
1757394890.5317135,0.222,-0.097,9.43,0.1333225506056646,1.4716636813153405,0.3712280701754385,0,0.05
1757394890.5573044,0.222,-0.097,9.43,0.1333225506056646,1.4716636813153405,0.3712280701754385,0,0.05
1757394890.58446,0.229,-0.174,9.432,0.13381332145941224,1.7465526434246814,0.37157894736842095,0,0.05
1757394890.6122732,0.229,-0.174,9.432,0.13381332145941224,1.7465526434246814,0.37157894736842095,0,0.05
1757394890.640059,0.254,0.022,9.489,0.13441463833972847,1.5390558930218432,0.3728320802005012,0,0.05
1757394890.6670792,0.254,0.022,9.489,0.13441463833972847,1.5390558930218432,0.3728320802005012,0,0.05
1757394890.6946642,0.085,-0.032,9.657,0.13448181103777565,0.5388504480271089,0.38130325814536337,0,0.05
1757394890.7228649,0.085,-0.032,9.657,0.13448181103777565,0.5388504480271089,0.38130325814536337,0,0.05
1757394890.749611,0.124,-0.044,9.383,0.13462465413140343,0.8033893572412656,0.38325814536340846,0,0.05
1757394890.7765515,0.124,-0.044,9.383,0.13462465413140343,0.8033893572412656,0.38325814536340846,0,0.05
1757394890.8026626,0.216,-0.01,9.459,0.13505716382332336,1.3095450668064725,0.38786967418546364,0,0.05
1757394890.830146,0.216,-0.01,9.459,0.13505716382332336,1.3095450668064725,0.38786967418546364,0,0.05
1757394890.8578851,0.082,-0.072,9.581,0.13511938239941745,0.6525479459329503,0.39458646616541354,0,0.05
1757394890.8844452,0.082,-0.072,9.581,0.13511938239941745,0.6525479459329503,0.39458646616541354,0,0.05
1757394890.911819,0.14,-0.299,9.593,0.13530058203865938,1.9711153880999126,0.39749373433583957,0,0.05
1757394890.9384823,0.14,-0.299,9.593,0.13530058203865938,1.9711153880999126,0.39749373433583957,0,0.05
1757394890.9649405,0.258,-0.274,9.549,0.13591415489197584,2.2570073764946845,0.40340852130325816,0,0.05
1757394890.990796,0.258,-0.274,9.549,0.13591415489197584,2.2570073764946845,0.40340852130325816,0,0.05
1757394891.01672,0.163,-0.075,9.699,0.13615829023603374,1.0598236512144348,0.40817042606516296,0,0.05
1757394891.043097,0.163,-0.075,9.699,0.13615829023603374,1.0598236512144348,0.40817042606516296,0,0.05
1757394891.070733,0.107,-0.323,9.727,0.1362633571434375,2.0034554330703567,0.4109774436090226,0,0.05
1757394891.097633,0.107,-0.323,9.727,0.1362633571434375,2.0034554330703567,0.4109774436090226,0,0.05
1757394891.1249633,0.305,-0.315,9.706,0.13711405836018423,2.586546881800513,0.4209022556390979,0,0.05
1757394891.1519468,0.305,-0.315,9.706,0.13711405836018423,2.586546881800513,0.4209022556390979,0,0.05
1757394891.1787622,0.184,-0.339,9.853,0.1374223598982349,2.2418179600476944,0.426967418546366,0,0.05
1757394891.2058127,0.184,-0.339,9.853,0.1374223598982349,2.2418179600476944,0.426967418546366,0,0.05
1757394891.2329254,0.46,-0.438,9.888,0.13933378987166037,3.6754415436744887,0.44080200501253136,0,0.05
1757394891.260486,0.46,-0.438,9.888,0.13933378987166037,3.6754415436744887,0.44080200501253136,0,0.05
1757394891.286752,0.142,-0.583,9.928,0.13951456913168603,3.4587255205667833,0.45674185463659167,0,0.05
1757394891.3139682,0.142,-0.583,9.928,0.13951456913168603,3.4587255205667833,0.45674185463659167,0,0.05
1757394891.340916,0.348,-0.399,9.919,0.14059543022445645,3.0553307803016323,0.46706766917293235,0,0.05
1757394891.3681104,0.348,-0.399,9.919,0.14059543022445645,3.0553307803016323,0.46706766917293235,0,0.05
1757394891.393377,0.25,-0.464,9.932,0.14115000885582688,3.0376779989604965,0.47197994987468683,0,0.05
1757394891.41937,0.25,-0.464,9.932,0.14115000885582688,3.0376779989604965,0.47197994987468683,0,0.05
1757394891.44678,0.337,-0.508,9.836,0.14215219836499188,3.5465500044645353,0.4763408521303259,0,0.05
1757394891.4738026,0.337,-0.508,9.836,0.14215219836499188,3.5465500044645353,0.4763408521303259,0,0.05
1757394891.4993048,0.219,-0.327,9.86,0.14257331447364197,2.2857405214324826,0.4822556390977445,0,0.05
1757394891.525756,0.219,-0.327,9.86,0.14257331447364197,2.2857405214324826,0.4822556390977445,0,0.05
1757394891.5525565,0.348,-0.339,9.891,0.1436311595720093,2.8119820551043735,0.4887218045112784,0,0.05
1757394891.5810072,0.348,-0.339,9.891,0.1436311595720093,2.8119820551043735,0.4887218045112784,0,0.05
1757394891.6075842,0.23,-0.336,9.729,0.14409080470314545,2.3965587169221694,0.49463659147869693,0,0.05
1757394891.633945,0.23,-0.336,9.729,0.14409080470314545,2.3965587169221694,0.49463659147869693,0,0.05
1757394891.6604571,0.26,-0.28,9.575,0.1446760519229081,2.2852299161234857,0.496140350877193,0,0.05
1757394891.6863234,0.26,-0.28,9.575,0.1446760519229081,2.2852299161234857,0.496140350877193,0,0.05
1757394891.7125745,0.216,-0.268,9.765,0.14507859938667728,2.0187992387482954,0.49834586466165415,0,0.05
1757394891.7398865,0.216,-0.268,9.765,0.14507859938667728,2.0187992387482954,0.49834586466165415,0,0.05
1757394891.767173,0.22,-0.225,9.65,0.14549501709680646,1.867729054965615,0.49854636591478707,0,0.05
1757394891.794,0.22,-0.225,9.65,0.14549501709680646,1.867729054965615,0.49854636591478707,0,0.05
1757394891.8206475,0.12,-0.288,9.71,0.14561868012037468,1.8403846415464808,0.5035588972431078,0,0.05
1757394891.8470902,0.12,-0.288,9.71,0.14561868012037468,1.8403846415464808,0.5035588972431078,0,0.05
1757394891.8735507,0.186,-0.276,9.829,0.14591535217378604,1.9393776713863224,0.5068671679197995,0,0.05
1757394891.8995478,0.186,-0.276,9.829,0.14591535217378604,1.9393776713863224,0.5068671679197995,0,0.05
1757394891.9256883,0.236,-0.255,9.759,0.14639170058442522,2.039038038240726,0.5093734335839598,0,0.05
1757394891.9525235,0.236,-0.255,9.759,0.14639170058442522,2.039038038240726,0.5093734335839598,0,0.05
1757394891.9800167,0.027,-0.457,9.727,0.14639792519021574,2.694611786970327,0.5198496240601505,0,0.05
1757394892.0077739,0.027,-0.457,9.727,0.14639792519021574,2.694611786970327,0.5198496240601505,0,0.05
1757394892.0344043,0.206,-0.439,9.75,0.14675981227842996,2.847339476834289,0.5288220551378446,0,0.05
1757394892.0619411,0.206,-0.439,9.75,0.14675981227842996,2.847339476834289,0.5288220551378446,0,0.05
1757394892.088664,0.228,-0.132,9.729,0.14720191065336075,1.551147416842537,0.5299248120300751,0,0.05
1757394892.1161447,0.228,-0.132,9.729,0.14720191065336075,1.551147416842537,0.5299248120300751,0,0.05
1757394892.1433942,0.2,-0.234,9.706,0.14754118916424658,1.8165198967943004,0.531328320802005,0,0.05
1757394892.1707175,0.2,-0.234,9.706,0.14754118916424658,1.8165198967943004,0.531328320802005,0,0.05
1757394892.1981335,0.461,-0.458,9.801,0.14933085749435715,3.7933235137496917,0.5444110275689223,0,0.05
1757394892.2259655,0.461,-0.458,9.801,0.14933085749435715,3.7933235137496917,0.5444110275689223,0,0.05
1757394892.2531083,0.015,-0.296,9.875,0.14933274088424145,1.719110575697708,0.5667669172932331,0,0.05
1757394892.2803187,0.015,-0.296,9.875,0.14933274088424145,1.719110575697708,0.5667669172932331,0,0.05
1757394892.3072584,0.154,-0.387,9.882,0.1495311255224142,2.413524806822826,0.573734335839599,0,0.05
1757394892.3348734,0.154,-0.387,9.882,0.1495311255224142,2.413524806822826,0.573734335839599,0,0.05
1757394892.3626106,0.14,-0.254,9.878,0.14969488134201514,1.681776061813567,0.574436090225564,0,0.05
1757394892.3893352,0.14,-0.254,9.878,0.14969488134201514,1.681776061813567,0.574436090225564,0,0.05
1757394892.4170265,-0.035,-0.075,9.893,0.14970511013322155,0.4793246649079931,0.5832080200501253,0,0.05
1757394892.4452455,-0.035,-0.075,9.893,0.14970511013322155,0.4793246649079931,0.5832080200501253,0,0.05
1757394892.4729707,0.024,-0.285,9.923,0.14970991951103307,1.6509682704516044,0.5861654135338347,0,0.05
1757394892.5003612,0.024,-0.285,9.923,0.14970991951103307,1.6509682704516044,0.5861654135338347,0,0.05
1757394892.528147,0.075,-0.253,9.697,0.14975687797226542,1.558794048946571,0.5887218045112782,0,0.05
1757394892.5552177,0.075,-0.253,9.697,0.14975687797226542,1.558794048946571,0.5887218045112782,0,0.05
1757394892.583674,0.048,-0.314,9.854,0.14977610790777013,1.8463128705029535,0.5900751879699248,0,0.05
1757394892.611185,0.048,-0.314,9.854,0.14977610790777013,1.8463128705029535,0.5900751879699248,0,0.05
1757394892.6381412,0.045,-0.477,9.877,0.1497930071799081,2.7771524209188683,0.5902255639097745,0,0.05
1757394892.6655014,0.045,-0.477,9.877,0.1497930071799081,2.7771524209188683,0.5902255639097745,0,0.05
1757394892.6921122,0.309,-0.45,9.68,0.15058767379835575,3.227615789494828,0.6034586466165415,0,0.05
1757394892.7188795,0.309,-0.45,9.68,0.15058767379835575,3.227615789494828,0.6034586466165415,0,0.05
1757394892.7463992,0.141,-0.437,9.685,0.15075261191767128,2.7144679089299175,0.6118796992481204,0,0.05
1757394892.774015,0.141,-0.437,9.685,0.15075261191767128,2.7144679089299175,0.6118796992481204,0,0.05
1757394892.8014596,0.167,-0.617,9.941,0.15098368289321862,3.6790238088360754,0.6131829573934838,0,0.05
1757394892.8286512,0.167,-0.617,9.941,0.15098368289321862,3.6790238088360754,0.6131829573934838,0,0.05
1757394892.856003,0.145,-0.567,9.781,0.15115764949217755,3.4242151722111047,0.6142857142857144,0,0.05
1757394892.884271,0.145,-0.567,9.781,0.15115764949217755,3.4242151722111047,0.6142857142857144,0,0.05
1757394892.9108365,0.139,-0.552,9.69,0.15131734038106803,3.3619348502976876,0.6145864661654137,0,0.05
1757394892.937574,0.139,-0.552,9.69,0.15131734038106803,3.3619348502976876,0.6145864661654137,0,0.05
1757394892.9645357,0.269,-0.518,9.871,0.15191392299588605,3.384017381638689,0.6211027568922306,0,0.05
1757394892.9912953,0.269,-0.518,9.871,0.15191392299588605,3.384017381638689,0.6211027568922306,0,0.05
1757394893.0184355,0.086,-0.725,9.765,0.15197476764252676,4.27577934531496,0.6302756892230577,0,0.05
1757394893.0459454,0.086,-0.725,9.765,0.15197476764252676,4.27577934531496,0.6302756892230577,0,0.05
1757394893.0732582,0.184,-0.609,9.586,0.15225298026639741,3.7969533100275514,0.6351879699248121,0,0.05
1757394893.0998065,0.184,-0.609,9.586,0.15225298026639741,3.7969533100275514,0.6351879699248121,0,0.05
1757394893.1267712,0.316,-0.386,9.786,0.15307060462414068,2.9181810526393313,0.6418045112781955,0,0.05
1757394893.1537945,0.316,-0.386,9.786,0.15307060462414068,2.9181810526393313,0.6418045112781955,0,0.05
1757394893.1810467,0.21,-0.447,9.688,0.15343030991300252,2.9182778226793262,0.6471177944862155,0,0.05
1757394893.208361,0.21,-0.447,9.688,0.15343030991300252,2.9182778226793262,0.6471177944862155,0,0.05
1757394893.234948,0.243,-0.324,9.573,0.15391063153661608,2.4225385221625193,0.6487719298245614,0,0.05
1757394893.2621377,0.243,-0.324,9.573,0.15391063153661608,2.4225385221625193,0.6487719298245614,0,0.05
1757394893.289467,0.31,-0.404,9.665,0.15468914797101962,3.0160187752869874,0.6521303258145363,0,0.05
1757394893.3166118,0.31,-0.404,9.665,0.15468914797101962,3.0160187752869874,0.6521303258145363,0,0.05
1757394893.3439379,0.187,-0.462,9.608,0.154971465115356,2.969529841973043,0.6582957393483708,0,0.05
1757394893.3717399,0.187,-0.462,9.608,0.154971465115356,2.969529841973043,0.6582957393483708,0,0.05
1757394893.3976831,0.211,-0.458,9.578,0.15533015644104656,3.0137511174131797,0.6594987468671679,0,0.05
1757394893.4252393,0.211,-0.458,9.578,0.15533015644104656,3.0137511174131797,0.6594987468671679,0,0.05
1757394893.4513416,0.174,-0.301,9.704,0.1555736079802741,2.0519083502304905,0.6613533834586466,0,0.05
1757394893.4783864,0.174,-0.301,9.704,0.1555736079802741,2.0519083502304905,0.6613533834586466,0,0.05
1757394893.5053232,0.114,-0.111,9.677,0.15567799298552124,0.9419956107214493,0.664360902255639,0,0.05
1757394893.5307863,0.114,-0.111,9.677,0.15567799298552124,0.9419956107214493,0.664360902255639,0,0.05
1757394893.5574057,0.161,-0.144,9.571,0.15588598397546843,1.2928555502450545,0.6667167919799498,0,0.05
1757394893.5846279,0.161,-0.144,9.571,0.15588598397546843,1.2928555502450545,0.6667167919799498,0,0.05
1757394893.6110165,0.318,-0.196,9.536,0.15669476698345736,2.2432814009274114,0.6745864661654134,0,0.05
1757394893.6379464,0.318,-0.196,9.536,0.15669476698345736,2.2432814009274114,0.6745864661654134,0,0.05
1757394893.664066,0.19,-0.238,9.757,0.1569824830992299,1.7877560927209464,0.681002506265664,0,0.05
1757394893.692118,0.19,-0.238,9.757,0.1569824830992299,1.7877560927209464,0.681002506265664,0,0.05
1757394893.7189763,0.066,-0.325,9.65,0.15701716466679685,1.9682636236263982,0.687218045112782,0,0.05
1757394893.7467496,0.066,-0.325,9.65,0.15701716466679685,1.9682636236263982,0.687218045112782,0,0.05
1757394893.772691,0.229,-0.243,9.635,0.15743408938346232,1.9847924681631814,0.6953884711779448,0,0.05
1757394893.7994137,0.229,-0.243,9.635,0.15743408938346232,1.9847924681631814,0.6953884711779448,0,0.05
1757394893.8263717,0.193,-0.184,9.885,0.1577295628599788,1.5452214149737225,0.6971929824561404,0,0.05
1757394893.8532066,0.193,-0.184,9.885,0.1577295628599788,1.5452214149737225,0.6971929824561404,0,0.05
1757394893.88023,0.048,-0.196,9.691,0.15774782090412534,1.1928756348452576,0.7044611528822055,0,0.05
1757394893.9072585,0.048,-0.196,9.691,0.15774782090412534,1.1928756348452576,0.7044611528822055,0,0.05
1757394893.9340596,0.193,-0.017,9.736,0.1580427078355721,1.1400405872531183,0.7117293233082704,0,0.05
1757394893.961238,0.193,-0.017,9.736,0.1580427078355721,1.1400405872531183,0.7117293233082704,0,0.05
1757394893.9881668,0.186,0.03,9.814,0.15831609993933024,1.0997980445786628,0.712080200501253,0,0.05
1757394894.0150087,0.186,0.03,9.814,0.15831609993933024,1.0997980445786628,0.712080200501253,0,0.05
1757394894.0418754,0.089,-0.313,9.766,0.15837862860878674,1.9084146354781346,0.7169423558897242,0,0.05
1757394894.0689986,0.089,-0.313,9.766,0.15837862860878674,1.9084146354781346,0.7169423558897242,0,0.05
1757394894.0958705,0.327,-0.279,9.738,0.15922032690583196,2.5274743725174904,0.7288721804511278,0,0.05
1757394894.1226442,0.327,-0.279,9.738,0.15922032690583196,2.5274743725174904,0.7288721804511278,0,0.05
1757394894.1493251,0.224,-0.277,9.829,0.15961376037171732,2.0756905613458105,0.7340350877192979,0,0.05
1757394894.1762795,0.224,-0.277,9.829,0.15961376037171732,2.0756905613458105,0.7340350877192979,0,0.05
1757394894.2034094,0.231,-0.454,9.826,0.1600311063512341,2.967609183164843,0.7343859649122805,0,0.05
1757394894.230575,0.231,-0.454,9.826,0.1600311063512341,2.967609183164843,0.7343859649122805,0,0.05
1757394894.2578068,0.249,-0.474,9.729,0.16051466443910972,3.150017593989506,0.7352882205513783,0,0.05
1757394894.284991,0.249,-0.474,9.729,0.16051466443910972,3.150017593989506,0.7352882205513783,0,0.05
1757394894.3118618,0.421,-0.478,9.596,0.1618890360710076,3.7976212452714972,0.7439097744360901,0,0.05
1757394894.3387845,0.421,-0.478,9.596,0.1618890360710076,3.7976212452714972,0.7439097744360901,0,0.05
1757394894.3657162,0.503,-0.546,9.583,0.16383095708687048,4.4297546273014,0.7480200501253133,0,0.05
1757394894.3922842,0.503,-0.546,9.583,0.16383095708687048,4.4297546273014,0.7480200501253133,0,0.05
1757394894.419507,0.467,-0.642,9.484,0.16548657045210646,4.784948283876774,0.7498245614035088,0,0.05
1757394894.4466805,0.467,-0.642,9.484,0.16548657045210646,4.784948283876774,0.7498245614035088,0,0.05
1757394894.4732857,0.324,-0.546,9.415,0.16627761424797988,3.85786820592555,0.7569924812030076,0,0.05
1757394894.499651,0.324,-0.546,9.415,0.16627761424797988,3.85786820592555,0.7569924812030076,0,0.05
1757394894.5256293,0.504,-0.465,9.496,0.16817635089393515,4.130369936886653,0.7660150375939853,0,0.05
1757394894.5527532,0.504,-0.465,9.496,0.16817635089393515,4.130369936886653,0.7660150375939853,0,0.05
1757394894.5797596,0.305,-0.541,9.529,0.16886635988260065,3.7289769860369466,0.7759899749373436,0,0.05
1757394894.6068804,0.305,-0.541,9.529,0.16886635988260065,3.7289769860369466,0.7759899749373436,0,0.05
1757394894.6338868,0.31,-0.427,9.616,0.16957622917142604,3.1408708397183,0.7762406015037595,0,0.05
1757394894.6614652,0.31,-0.427,9.616,0.16957622917142604,3.1408708397183,0.7762406015037595,0,0.05
1757394894.6888025,0.492,-0.473,9.659,0.17135126932707562,4.041715576350636,0.7853634085213033,0,0.05
1757394894.7156415,0.492,-0.473,9.659,0.17135126932707562,4.041715576350636,0.7853634085213033,0,0.05
1757394894.7423337,0.171,-0.687,9.662,0.17156444853173983,4.190733432230093,0.8014536340852132,0,0.05
1757394894.7697477,0.171,-0.687,9.662,0.17156444853173983,4.190733432230093,0.8014536340852132,0,0.05
1757394894.796371,0.317,-0.632,9.664,0.17229504490843606,4.184463861797888,0.8087719298245615,0,0.05
1757394894.8239174,0.317,-0.632,9.664,0.17229504490843606,4.184463861797888,0.8087719298245615,0,0.05
1757394894.8510876,0.266,-0.445,9.706,0.172807617019621,3.057518605066214,0.8113283208020051,0,0.05
1757394894.8789651,0.266,-0.445,9.706,0.172807617019621,3.057518605066214,0.8113283208020051,0,0.05
1757394894.9059844,0.448,-0.568,9.705,0.17425335721299604,4.262963920266535,0.8204511278195489,0,0.05
1757394894.9330919,0.448,-0.568,9.705,0.17425335721299604,4.262963920266535,0.8204511278195489,0,0.05
1757394894.9590952,0.27,-0.658,9.66,0.174775520311055,4.210943942179165,0.8293734335839598,0,0.05
1757394894.987174,0.27,-0.658,9.66,0.174775520311055,4.210943942179165,0.8293734335839598,0,0.05
1757394895.0140011,0.345,-0.49,9.589,0.1756247277577961,3.5760837384715165,0.8331328320802004,0,0.05
1757394895.0410616,0.345,-0.49,9.589,0.1756247277577961,3.5760837384715165,0.8331328320802004,0,0.05
1757394895.0686107,0.505,-0.455,9.573,0.17743057092846204,4.0615402649857,0.8411528822055137,0,0.05
1757394895.096866,0.505,-0.455,9.573,0.17743057092846204,4.0615402649857,0.8411528822055137,0,0.05
1757394895.1243095,0.283,-0.474,9.568,0.17799390439000995,3.302195433879241,0.8522807017543859,0,0.05
1757394895.1515443,0.283,-0.474,9.568,0.17799390439000995,3.302195433879241,0.8522807017543859,0,0.05
1757394895.1789148,0.283,-0.366,9.623,0.17855546057177865,2.7525195268689235,0.8522807017543856,0,0.05
1757394895.206564,0.283,-0.366,9.623,0.17855546057177865,2.7525195268689235,0.8522807017543856,0,0.05
1757394895.2333286,0.49,-0.267,9.638,0.18022847305573,3.3136204913650427,0.8626566416040099,0,0.05
1757394895.2605646,0.49,-0.267,9.638,0.18022847305573,3.3136204913650427,0.8626566416040099,0,0.05
1757394895.2870085,0.251,-0.237,9.625,0.1806648969778025,2.0540889518047254,0.8746365914786965,0,0.05
1757394895.3138275,0.251,-0.237,9.625,0.1806648969778025,2.0540889518047254,0.8746365914786965,0,0.05
1757394895.3408923,0.325,-0.167,9.721,0.18139423226773224,2.152636415781112,0.8783458646616541,0,0.05
1757394895.3682656,0.325,-0.167,9.721,0.18139423226773224,2.152636415781112,0.8783458646616541,0,0.05
1757394895.3958611,0.325,-0.167,9.721,0.18139423226773224,2.152636415781112,0.8783458646616541,0,0.05
1757394895.4223986,0.181,-0.194,9.784,0.1816198502366963,1.5533768864380633,0.8855639097744359,0,0.05
1757394895.4487422,0.181,-0.194,9.784,0.1816198502366963,1.5533768864380633,0.8855639097744359,0,0.05
1757394895.4757884,0.181,-0.194,9.784,0.1816198502366963,1.5533768864380633,0.8855639097744359,0,0.05
1757394895.502673,0.181,-0.194,9.784,0.1816198502366963,1.5533768864380633,0.8855639097744359,0,0.05
1757394895.5296,0.121,-0.46,9.793,0.1817205890921554,2.780682302357779,0.8885714285714285,0,0.05
1757394895.5579088,0.307,-0.248,9.672,0.18236774660010469,2.336596387111413,0.8978947368421052,0,0.05
1757394895.585984,0.197,-0.192,9.69,0.18263356071653425,1.6261204166909928,0.9034085213032581,0,0.05
1757394895.613532,0.194,-0.342,9.632,0.18289097161970572,2.3375980844396755,0.9035588972431077,0,0.05
1757394895.639721,0.194,-0.342,9.632,0.18289097161970572,2.3375980844396755,0.9035588972431077,0,0.05
1757394895.6657546,0.008,-0.283,9.522,0.18289140903825962,1.7030461617434658,0.9128822055137845,0,0.05
1757394895.6937733,0.008,-0.283,9.522,0.18289140903825962,1.7030461617434658,0.9128822055137845,0,0.05
1757394895.721647,0.303,-0.352,9.559,0.18351781929829047,2.7816784412392357,0.9276691729323308,0,0.05
1757394895.749527,0.303,-0.352,9.559,0.18351781929829047,2.7816784412392357,0.9276691729323308,0,0.05
1757394895.7759073,0.08,-0.391,9.574,0.1835614066191475,2.3870407117930426,0.9388471177944862,0,0.05
1757394895.8034678,0.08,-0.391,9.574,0.1835614066191475,2.3870407117930426,0.9388471177944862,0,0.05
1757394895.8302457,0.162,-0.444,9.652,0.18374003374332987,2.803371850471586,0.9429573934837093,0,0.05
1757394895.8576007,0.162,-0.444,9.652,0.18374003374332987,2.803371850471586,0.9429573934837093,0,0.05
1757394895.8846786,0.218,-0.364,9.783,0.18406305984634724,2.4833554406868035,0.9457644110275689,0,0.05
1757394895.91204,0.218,-0.364,9.783,0.18406305984634724,2.4833554406868035,0.9457644110275689,0,0.05
1757394895.9393153,0.218,-0.364,9.783,0.18406305984634724,2.4833554406868035,0.9457644110275689,0,0.05
1757394895.9666944,0.218,-0.364,9.783,0.18406305984634724,2.4833554406868035,0.9457644110275689,0,0.05
1757394895.9934988,0.111,-0.438,9.755,0.18414671460550144,2.652013325417121,0.9511278195488722,0,0.05
1757394896.0206058,0.069,-0.457,9.623,0.18417902975094638,2.7497254521739896,0.9532330827067669,0,0.05
1757394896.0481055,0.152,-0.372,9.814,0.18433576701226487,2.344791114752071,0.957393483709273,0,0.05
1757394896.0754764,0.152,-0.372,9.814,0.18433576701226487,2.344791114752071,0.957393483709273,0,0.05
1757394896.1029217,0.091,-0.398,9.859,0.18439191278361422,2.371318869426251,0.9604511278195488,0,0.05
1757394896.131121,0.067,-0.699,9.756,0.1844223413797797,4.116855687889345,0.961654135338346,0,0.05
1757394896.1582766,0.067,-0.699,9.756,0.1844223413797797,4.116855687889345,0.961654135338346,0,0.05
1757394896.185555,0.227,-0.525,9.818,0.18477127076469438,3.3341498713712916,0.9696741854636591,0,0.05
1757394896.2130263,0.227,-0.525,9.818,0.18477127076469438,3.3341498713712916,0.9696741854636591,0,0.05
1757394896.2397144,0.221,-0.395,9.837,0.18510139113469679,2.634442366252849,0.9699749373433584,0,0.05
1757394896.2673628,0.221,-0.395,9.837,0.18510139113469679,2.634442366252849,0.9699749373433584,0,0.05
1757394896.2941244,0.218,-0.694,9.82,0.18542204561486209,4.236548214645735,0.970125313283208,0,0.05
1757394896.321818,0.218,-0.694,9.82,0.18542204561486209,4.236548214645735,0.970125313283208,0,0.05
1757394896.3491275,0.432,-0.56,9.824,0.1866759089973851,4.117825070051581,0.9808521303258144,0,0.05
1757394896.376953,0.432,-0.56,9.824,0.1866759089973851,4.117825070051581,0.9808521303258144,0,0.05
1757394896.4040012,0.395,-0.517,9.927,0.18771776021463712,3.7498614805176738,0.9827067669172932,0,0.05
1757394896.431075,0.395,-0.517,9.927,0.18771776021463712,3.7498614805176738,0.9827067669172932,0,0.05
1757394896.4581916,0.331,-0.662,9.878,0.18844590735805328,4.285049450752605,0.9859147869674184,0,0.05
1757394896.485411,0.331,-0.662,9.878,0.18844590735805328,4.285049450752605,0.9859147869674184,0,0.05
1757394896.5118678,0.366,-0.594,9.958,0.18933237969243402,4.007864897020187,0.9876691729323309,0,0.05
1757394896.5381708,0.366,-0.594,9.958,0.18933237969243402,4.007864897020187,0.9876691729323309,0,0.05
1757394896.5654397,0.304,-0.421,9.981,0.18994154363908913,2.9782628814732455,0.9907769423558898,0,0.05
1757394896.5925183,0.304,-0.421,9.981,0.18994154363908913,2.9782628814732455,0.9907769423558898,0,0.05
1757394896.6194432,0.392,-0.503,9.89,0.19095012437806894,3.6893359522177893,0.995187969924812,0,0.05
1757394896.646301,0.392,-0.503,9.89,0.19095012437806894,3.6893359522177893,0.995187969924812,0,0.05
1757394896.6733794,0.392,-0.503,9.89,0.19095012437806894,3.6893359522177893,0.995187969924812,0,0.05
1757394896.700649,0.325,-0.476,9.944,0.19164032065304004,3.317235841107679,0.9985463659147868,0,0.05
1757394896.7277887,0.325,-0.476,9.944,0.19164032065304004,3.317235841107679,0.9985463659147868,0,0.05
1757394896.7542112,0.492,-0.454,9.895,0.19321276484746033,3.87054152502891,1.0069172932330825,0,0.05
1757394896.781459,0.492,-0.454,9.895,0.19321276484746033,3.87054152502891,1.0069172932330825,0,0.05
1757394896.8086405,0.492,-0.454,9.895,0.19321276484746033,3.87054152502891,1.0069172932330825,0,0.05
1757394896.8360212,0.492,-0.454,9.895,0.19321276484746033,3.87054152502891,1.0069172932330825,0,0.05
1757394896.86342,0.3,-0.414,9.982,0.1937941498085017,2.9320757848647996,1.0165413533834586,0,0.05
1757394896.890927,0.254,-0.685,10.011,0.19420984140871955,4.173892455252002,1.0188471177944862,0,0.05
1757394896.9181254,0.196,-0.495,10.024,0.19445694253484497,3.040220255054075,1.0217543859649123,0,0.05
1757394896.9452498,0.31,-0.341,9.923,0.19507371042762273,2.6590439778073036,1.0274686716791979,0,0.05
1757394896.9727705,0.31,-0.341,9.923,0.19507371042762273,2.6590439778073036,1.0274686716791979,0,0.05
1757394896.9993029,0.267,-0.399,9.845,0.19552998491280052,2.791830531500045,1.0296240601503759,0,0.05
1757394897.0257647,0.267,-0.399,9.845,0.19552998491280052,2.791830531500045,1.0296240601503759,0,0.05
1757394897.0527067,0.267,-0.399,9.845,0.19552998491280052,2.791830531500045,1.0296240601503759,0,0.05
1757394897.0796854,0.327,-0.266,9.934,0.1962123785595598,2.429760169742813,1.0326315789473683,0,0.05
1757394897.1068485,0.251,-0.243,9.832,0.19661332609973314,2.035012021999451,1.036441102756892,0,0.05
1757394897.134137,0.251,-0.243,9.832,0.19661332609973314,2.035012021999451,1.036441102756892,0,0.05
1757394897.1609397,0.31,-0.396,9.757,0.19722335054450324,2.950599904374938,1.0393984962406015,0,0.05
1757394897.1879258,0.31,-0.396,9.757,0.19722335054450324,2.950599904374938,1.0393984962406015,0,0.05
1757394897.2138484,0.498,-0.348,9.82,0.19878898359818634,3.5402561323410295,1.0488220551378447,0,0.05
1757394897.2408001,0.498,-0.348,9.82,0.19878898359818634,3.5402561323410295,1.0488220551378447,0,0.05
1757394897.2669888,0.096,-0.216,9.919,0.19884692605117132,1.365116329816797,1.0689724310776942,0,0.05
1757394897.2935312,0.096,-0.216,9.919,0.19884692605117132,1.365116329816797,1.0689724310776942,0,0.05
1757394897.3204963,0.276,-0.34,9.758,0.19932521165171255,2.5696124961287947,1.0779949874686716,0,0.05
1757394897.3478277,0.276,-0.34,9.758,0.19932521165171255,2.5696124961287947,1.0779949874686716,0,0.05
1757394897.374999,0.278,-0.198,9.7,0.19980928406858375,2.0151731255276886,1.078095238095238,0,0.05
1757394897.4019325,0.278,-0.198,9.7,0.19980928406858375,2.0151731255276886,1.078095238095238,0,0.05
1757394897.4289904,0.278,-0.198,9.7,0.19980928406858375,2.0151731255276886,1.078095238095238,0,0.05
1757394897.4560044,0.345,-0.101,9.659,0.20055251805948487,2.1314002951168107,1.081453634085213,0,0.05
1757394897.4829824,0.207,-0.345,9.682,0.20081940892254416,2.37955806915791,1.0883709273182955,0,0.05
1757394897.5100777,0.207,-0.345,9.682,0.20081940892254416,2.37955806915791,1.0883709273182955,0,0.05
1757394897.5362573,0.207,-0.345,9.682,0.20081940892254416,2.37955806915791,1.0883709273182955,0,0.05
1757394897.563053,0.382,-0.388,9.655,0.20172566767766567,3.227747090222948,1.0971428571428572,0,0.05
1757394897.5902786,0.189,-0.299,9.696,0.20194689277134226,2.089316849122824,1.1068170426065163,0,0.05
1757394897.616847,0.189,-0.299,9.696,0.20194689277134226,2.089316849122824,1.1068170426065163,0,0.05
1757394897.6434703,0.358,-0.266,9.671,0.2027386433317536,2.6404798980417294,1.1152882205513786,0,0.05
1757394897.6694689,0.358,-0.266,9.671,0.2027386433317536,2.6404798980417294,1.1152882205513786,0,0.05
1757394897.6959424,0.358,-0.266,9.671,0.2027386433317536,2.6404798980417294,1.1152882205513786,0,0.05
1757394897.7229378,0.206,-0.248,9.656,0.2030001169950402,1.912297375059137,1.122907268170426,0,0.05
1757394897.749838,0.206,-0.248,9.656,0.2030001169950402,1.912297375059137,1.122907268170426,0,0.05
1757394897.7766693,0.275,-0.297,9.66,0.20346525501913099,2.3993497172970755,1.1263659147869673,0,0.05
1757394897.8039317,0.275,-0.297,9.66,0.20346525501913099,2.3993497172970755,1.1263659147869673,0,0.05
1757394897.8294241,0.448,-0.306,9.673,0.20469457735856122,3.21019423291124,1.1350375939849624,0,0.05
1757394897.8558962,0.448,-0.306,9.673,0.20469457735856122,3.21019423291124,1.1350375939849624,0,0.05
1757394897.8829677,0.164,-0.489,9.594,0.20485875621998684,3.077228563486126,1.1492731829573934,0,0.05
1757394897.9091625,0.164,-0.489,9.594,0.20485875621998684,3.077228563486126,1.1492731829573934,0,0.05
1757394897.9352388,0.467,-0.348,9.623,0.2061851898173096,3.463428024915624,1.1644611528822055,0,0.05
1757394897.962295,0.467,-0.348,9.623,0.2061851898173096,3.463428024915624,1.1644611528822055,0,0.05
1757394897.9894307,0.192,-0.433,9.879,0.20640855723540147,2.745004935329779,1.1782456140350877,0,0.05
1757394898.0177767,0.192,-0.433,9.879,0.20640855723540147,2.745004935329779,1.1782456140350877,0,0.05
1757394898.044975,0.261,-0.434,9.747,0.2068206832016566,2.974305141523154,1.181704260651629,0,0.05
1757394898.0720859,0.261,-0.434,9.747,0.2068206832016566,2.974305141523154,1.181704260651629,0,0.05
1757394898.0993402,0.053,-0.448,9.696,0.20683765977210242,2.6638699466705886,1.1921303258145362,0,0.05
1757394898.1262884,0.053,-0.448,9.696,0.20683765977210242,2.6638699466705886,1.1921303258145362,0,0.05
1757394898.1524909,0.288,-0.364,9.883,0.20733831652639606,2.6889207500990433,1.2039097744360903,0,0.05
1757394898.179797,0.288,-0.364,9.883,0.20733831652639606,2.6889207500990433,1.2039097744360903,0,0.05
1757394898.2067828,0.14,-0.508,9.858,0.2074564472365224,3.059711609734668,1.211328320802005,0,0.05
1757394898.2332504,0.14,-0.508,9.858,0.2074564472365224,3.059711609734668,1.211328320802005,0,0.05
1757394898.2605555,0.07,-0.505,9.907,0.20748596940516242,2.94592412735643,1.2148370927318293,0,0.05
1757394898.287579,0.07,-0.505,9.907,0.20748596940516242,2.94592412735643,1.2148370927318293,0,0.05
1757394898.3146257,0.088,-0.506,9.935,0.20753261791824434,2.959301856150642,1.2157393483709273,0,0.05
1757394898.3419268,0.088,-0.506,9.935,0.20753261791824434,2.959301856150642,1.2157393483709273,0,0.05
1757394898.371959,0.158,-0.226,10.072,0.20768292539349498,1.5682651571332213,1.2192481203007517,0,0.05
1757394898.399162,0.029,-0.287,10.043,0.20768798713454759,1.6452334996893287,1.2257142857142858,0,0.05
1757394898.4266303,0.029,-0.287,10.043,0.20768798713454759,1.6452334996893287,1.2257142857142858,0,0.05
1757394898.454315,0.058,-0.309,10.064,0.20770823286523815,1.7893205026292334,1.227167919799499,0,0.05
1757394898.4813426,0.058,-0.309,10.064,0.20770823286523815,1.7893205026292334,1.227167919799499,0,0.05
1757394898.5082593,0.058,-0.309,10.064,0.20770823286523815,1.7893205026292334,1.227167919799499,0,0.05
1757394898.5353842,0.203,-0.262,9.844,0.20795608310410157,1.9283815159760902,1.234436090225564,0,0.05
1757394898.5623507,0.116,-0.433,9.823,0.2080369498430507,2.61285847443952,1.2387969924812032,0,0.05
1757394898.5892024,0.116,-0.433,9.823,0.2080369498430507,2.61285847443952,1.2387969924812032,0,0.05
1757394898.6155612,0.093,-0.209,9.727,0.2080889112855368,1.3472215950063402,1.2399498746867168,0,0.05
1757394898.6428447,0.093,-0.209,9.727,0.2080889112855368,1.3472215950063402,1.2399498746867168,0,0.05
1757394898.6697626,0.093,-0.209,9.727,0.2080889112855368,1.3472215950063402,1.2399498746867168,0,0.05
1757394898.6968403,-0.085,0.061,9.774,0.2081323076795143,0.6132837157541886,1.2488721804511278,0,0.05
1757394898.7243528,-0.085,0.061,9.774,0.2081323076795143,0.6132837157541886,1.2488721804511278,0,0.05
1757394898.75115,0.009,-0.079,9.707,0.20813279414835134,0.46930495106750986,1.2535839598997494,0,0.05
1757394898.7782774,0.009,-0.079,9.707,0.20813279414835134,0.46930495106750986,1.2535839598997494,0,0.05
1757394898.8054192,0.009,-0.079,9.707,0.20813279414835134,0.46930495106750986,1.2535839598997494,0,0.05
1757394898.8325694,-0.204,0.136,9.813,0.2083825808459047,1.4312354268278844,1.2642606516290726,0,0.05
1757394898.8599293,-0.021,-0.053,9.963,0.20838522620377867,0.3278456629463033,1.2734335839598996,0,0.05
1757394898.8874116,-0.149,-0.208,9.956,0.20851835650608797,1.472131982986637,1.2798496240601505,0,0.05
1757394898.914539,-0.149,-0.208,9.956,0.20851835650608797,1.472131982986637,1.2798496240601505,0,0.05
1757394898.9415972,-0.254,-0.212,9.916,0.20890475102304398,1.9109651118103606,1.2851127819548875,0,0.05
1757394898.9688473,-0.254,-0.212,9.916,0.20890475102304398,1.9109651118103606,1.2851127819548875,0,0.05
1757394898.995294,-0.111,-0.069,9.975,0.2089784618088668,0.7506789464817442,1.292280701754386,0,0.05
1757394899.0226846,-0.111,-0.069,9.975,0.2089784618088668,0.7506789464817442,1.292280701754386,0,0.05
1757394899.04991,0.005,-0.166,9.91,0.20897861134575468,0.9600930610671594,1.298095238095238,0,0.05
1757394899.0773742,0.005,-0.166,9.91,0.20897861134575468,0.9600930610671594,1.298095238095238,0,0.05
1757394899.1045156,0.005,-0.166,9.91,0.20897861134575468,0.9600930610671594,1.298095238095238,0,0.05
1757394899.1314352,0.005,-0.166,9.91,0.20897861134575468,0.9600930610671594,1.298095238095238,0,0.05
1757394899.1577456,0.005,-0.166,9.91,0.20897861134575468,0.9600930610671594,1.298095238095238,0,0.05
1757394899.1849515,0.005,-0.166,9.91,0.20897861134575468,0.9600930610671594,1.298095238095238,0,0.05
1757394899.2120926,-0.121,-0.223,9.877,0.2090661677555697,1.4714443442330192,1.304411027568922,0,0.05
1757394899.239696,-0.077,-0.189,10.007,0.20910161405402874,1.1683313655573542,1.3066165413533832,0,0.05
1757394899.2667773,0.052,-0.344,10.029,0.20911777781910368,1.986805428465751,1.3130827067669173,0,0.05
1757394899.2939367,0.052,-0.344,10.029,0.20911777781910368,1.986805428465751,1.3130827067669173,0,0.05
1757394899.3215535,0.052,-0.344,10.029,0.20911777781910368,1.986805428465751,1.3130827067669173,0,0.05
1757394899.3489494,0.052,-0.344,10.029,0.20911777781910368,1.986805428465751,1.3130827067669173,0,0.05
1757394899.3760834,0.052,-0.344,10.029,0.20911777781910368,1.986805428465751,1.3130827067669173,0,0.05
1757394899.403207,0.052,-0.344,10.029,0.20911777781910368,1.986805428465751,1.3130827067669173,0,0.05
1757394899.430451,0.066,-0.617,9.951,0.20914381415667066,3.568204066140343,1.313784461152882,0,0.05
1757394899.4577198,0.127,-0.487,9.982,0.20924019092898954,2.886378905549773,1.3168421052631578,0,0.05
1757394899.4851453,0.001,-0.473,10.049,0.20924019690298515,2.694892672414901,1.3231578947368419,0,0.05
1757394899.5118477,-0.109,-0.477,9.981,0.20931116190972712,2.806546096027452,1.328671679197995,0,0.05
1757394899.5391788,0.128,-0.385,10.01,0.20940898380919576,2.3210136378311295,1.3405513784461154,0,0.05
1757394899.566907,-0.01,-0.384,10.07,0.20940958072638416,2.1845454344263113,1.347468671679198,0,0.05
1757394899.594072,0.091,-0.415,9.996,0.2094590055356895,2.4337776148081756,1.3525313283208016,0,0.05
1757394899.6204848,0.091,-0.415,9.996,0.2094590055356895,2.4337776148081756,1.3525313283208016,0,0.05
1757394899.6464348,0.025,-0.232,9.903,0.209462735349274,1.3498031956001713,1.3558395989974934,0,0.05
1757394899.673394,0.025,-0.232,9.903,0.209462735349274,1.3498031956001713,1.3558395989974934,0,0.05
1757394899.6997795,0.025,-0.232,9.903,0.209462735349274,1.3498031956001713,1.3558395989974934,0,0.05
1757394899.726771,0.24,-0.05,9.932,0.20980619032812164,1.4139530261251128,1.3666165413533833,0,0.05
1757394899.7539918,0.153,-0.071,9.861,0.20994561200463324,0.9799421978361649,1.3709774436090225,0,0.05
1757394899.7812004,0.153,-0.071,9.861,0.20994561200463324,0.9799421978361649,1.3709774436090225,0,0.05
1757394899.808447,0.153,-0.071,9.861,0.20994561200463324,0.9799421978361649,1.3709774436090225,0,0.05
1757394899.8360155,0.063,-0.142,9.894,0.20996924179507817,0.8995404515268937,1.375488721804511,0,0.05
1757394899.863421,0.276,-0.052,9.847,0.21042224811079271,1.6337455601841708,1.3861654135338344,0,0.05
1757394899.8909142,0.276,-0.052,9.847,0.21042224811079271,1.6337455601841708,1.3861654135338344,0,0.05
1757394899.9180186,0.189,-0.242,9.921,0.2106343395555435,1.7727596947667068,1.3905263157894738,0,0.05
1757394899.9449308,0.189,-0.242,9.921,0.2106343395555435,1.7727596947667068,1.3905263157894738,0,0.05
1757394899.9717562,0.189,-0.242,9.921,0.2106343395555435,1.7727596947667068,1.3905263157894738,0,0.05
1757394899.9970229,0.051,-0.409,9.798,0.21064977450735617,2.4088119767244636,1.3974436090225566,0,0.05
1757394900.0244932,0.213,-0.226,9.797,0.21091882324723887,1.8156159195140948,1.4055639097744361,0,0.05
1757394900.0522146,0.213,-0.226,9.797,0.21091882324723887,1.8156159195140948,1.4055639097744361,0,0.05
1757394900.0794754,0.476,-0.236,9.613,0.2122573673633026,3.163413621794656,1.41874686716792,0,0.05
1757394900.106757,0.476,-0.236,9.613,0.2122573673633026,3.163413621794656,1.41874686716792,0,0.05
1757394900.1328638,0.2,-0.355,9.801,0.2124927998780194,2.380613927117982,1.4325814536340853,0,0.05
1757394900.1598558,0.2,-0.355,9.801,0.2124927998780194,2.380613927117982,1.4325814536340853,0,0.05
1757394900.1869924,0.318,-0.082,9.804,0.21308683675910156,1.918505399084827,1.4384962406015038,0,0.05
1757394900.2144682,0.318,-0.082,9.804,0.21308683675910156,1.918505399084827,1.4384962406015038,0,0.05
1757394900.2410486,0.224,-0.188,9.668,0.21338097384724816,1.7325566252191764,1.4432080200501254,0,0.05
1757394900.268574,0.224,-0.188,9.668,0.21338097384724816,1.7325566252191764,1.4432080200501254,0,0.05
1757394900.295807,0.222,-0.12,9.515,0.21366948776088737,1.5192428728377636,1.443308270676692,0,0.05
1757394900.3231013,0.222,-0.12,9.515,0.21366948776088737,1.5192428728377636,1.443308270676692,0,0.05
1757394900.350761,0.339,-0.184,9.536,0.21434073924478286,2.316261615278213,1.4491729323308271,0,0.05
1757394900.3783758,0.339,-0.184,9.536,0.21434073924478286,2.316261615278213,1.4491729323308271,0,0.05
1757394900.405723,0.276,-0.089,9.537,0.2147845257461533,1.7416757482337533,1.4523308270676691,0,0.05
1757394900.4330745,0.276,-0.089,9.537,0.2147845257461533,1.7416757482337533,1.4523308270676691,0,0.05
1757394900.4602158,0.223,-0.024,9.487,0.2150737431673146,1.3543110297155652,1.454987468671679,0,0.05
1757394900.4873974,0.223,-0.024,9.487,0.2150737431673146,1.3543110297155652,1.454987468671679,0,0.05
1757394900.5146096,0.406,-0.116,9.529,0.21602963917018422,2.537214738575215,1.464160401002506,0,0.05
1757394900.5406635,0.406,-0.116,9.529,0.21602963917018422,2.537214738575215,1.464160401002506,0,0.05
1757394900.5680435,0.27,-0.075,9.586,0.21645104527352135,1.674424301871489,1.4709774436090222,0,0.05
1757394900.5955997,0.27,-0.075,9.586,0.21645104527352135,1.674424301871489,1.4709774436090222,0,0.05
1757394900.622577,0.231,-0.357,9.659,0.21675898481954559,2.5207011976517433,1.4729323308270674,0,0.05
1757394900.6499243,0.231,-0.357,9.659,0.21675898481954559,2.5207011976517433,1.4729323308270674,0,0.05
1757394900.6772625,0.231,-0.357,9.659,0.21675898481954559,2.5207011976517433,1.4729323308270674,0,0.05
1757394900.7045157,0.231,-0.357,9.659,0.21675898481954559,2.5207011976517433,1.4729323308270674,0,0.05
1757394900.7316906,0.231,-0.357,9.659,0.21675898481954559,2.5207011976517433,1.4729323308270674,0,0.05
1757394900.7584639,0.273,-0.377,9.723,0.21718835143718002,2.740805836838138,1.4750375939849623,0,0.05
1757394900.78505,0.218,-0.272,9.773,0.21746169777687288,2.0427400520804104,1.4777944862155388,0,0.05
1757394900.8125901,0.28,-0.284,9.641,0.21791188586215302,2.36879804953915,1.4809022556390978,0,0.05
1757394900.840583,0.116,-0.281,9.697,0.21798905935849164,1.7956386793477224,1.4891228070175435,0,0.05
1757394900.8679075,0.116,-0.281,9.697,0.21798905935849164,1.7956386793477224,1.4891228070175435,0,0.05
1757394900.8950586,0.117,-0.177,9.683,0.2180675411426469,1.255267562425097,1.489172932330827,0,0.05
1757394900.922751,0.117,-0.177,9.683,0.2180675411426469,1.255267562425097,1.489172932330827,0,0.05
1757394900.9501138,0.098,-0.225,9.722,0.21812258594652686,1.4460310526710907,1.490125313283208,0,0.05
1757394900.977487,0.098,-0.225,9.722,0.21812258594652686,1.4460310526710907,1.490125313283208,0,0.05
1757394901.003657,0.041,-0.205,9.637,0.2181322190782462,1.242748337534921,1.4929824561403506,0,0.05
1757394901.0310404,0.041,-0.205,9.637,0.2181322190782462,1.242748337534921,1.4929824561403506,0,0.05
1757394901.0584338,-0.007,-0.192,9.728,0.21813249987106462,1.1314419693746214,1.4953884711779446,0,0.05
1757394901.086093,-0.007,-0.192,9.728,0.21813249987106462,1.1314419693746214,1.4953884711779446,0,0.05
1757394901.113413,0.071,0.02,9.812,0.2181613852174578,0.43072122626283954,1.4992982456140351,0,0.05
1757394901.141001,0.071,0.02,9.812,0.2181613852174578,0.43072122626283954,1.4992982456140351,0,0.05
1757394901.1684313,0.048,-0.301,9.746,0.21817458605437987,1.7913243676523083,1.5004511278195487,0,0.05
1757394901.1957576,0.048,-0.301,9.746,0.21817458605437987,1.7913243676523083,1.5004511278195487,0,0.05
1757394901.2232463,-0.135,-0.152,9.732,0.2182789786030712,1.196698708318795,1.509624060150376,0,0.05
1757394901.250919,-0.135,-0.152,9.732,0.2182789786030712,1.196698708318795,1.509624060150376,0,0.05
1757394901.2784164,0.264,-0.185,9.717,0.2186777366354426,1.9001278901110628,1.5296240601503759,0,0.05
1757394901.3060758,0.264,-0.185,9.717,0.2186777366354426,1.9001278901110628,1.5296240601503759,0,0.05
1757394901.3337233,0.034,-0.32,9.704,0.21868434443279197,1.8993296855562298,1.5411528822055136,0,0.05
1757394901.3616638,0.034,-0.32,9.704,0.21868434443279197,1.8993296855562298,1.5411528822055136,0,0.05
1757394901.3897338,0.104,-0.388,9.664,0.21874615996629518,2.3802014899211685,1.5446616541353382,0,0.05
1757394901.417163,0.104,-0.388,9.664,0.21874615996629518,2.3802014899211685,1.5446616541353382,0,0.05
1757394901.4445338,0.088,-0.277,9.694,0.21879040769649843,1.7173092037638145,1.5454636591478697,0,0.05
1757394901.4721415,0.088,-0.277,9.694,0.21879040769649843,1.7173092037638145,1.5454636591478697,0,0.05
1757394901.499444,0.352,-0.325,9.647,0.21949715829595606,2.843102242191363,1.5586967418546365,0,0.05
1757394901.5270207,0.352,-0.325,9.647,0.21949715829595606,2.843102242191363,1.5586967418546365,0,0.05
1757394901.5545208,0.0,-0.304,9.657,0.21949715829595606,1.8030616979437024,1.576340852130326,0,0.05
1757394901.582248,0.0,-0.304,9.657,0.21949715829595606,1.8030616979437024,1.576340852130326,0,0.05
1757394901.609638,0.289,-0.289,9.625,0.21997228234484453,2.4314979651009594,1.5908270676691727,0,0.05
1757394901.637389,0.289,-0.289,9.625,0.21997228234484453,2.4314979651009594,1.5908270676691727,0,0.05
1757394901.6648567,0.126,-0.364,9.619,0.2200624797642706,2.2931723757424916,1.5989974937343359,0,0.05
1757394901.6924348,0.126,-0.364,9.619,0.2200624797642706,2.2931723757424916,1.5989974937343359,0,0.05
1757394901.7196894,0.373,-0.37,9.582,0.2208513470640376,3.138406331458125,1.6113784461152885,0,0.05
1757394901.7465515,0.373,-0.37,9.582,0.2208513470640376,3.138406331458125,1.6113784461152885,0,0.05
1757394901.7722604,0.259,-0.219,9.548,0.22123069407295182,2.034491370093176,1.6170927318295738,0,0.05
1757394901.7997,0.259,-0.219,9.548,0.22123069407295182,2.034491370093176,1.6170927318295738,0,0.05
1757394901.8269374,0.084,-0.267,9.763,0.22127055836690068,1.6421999654046142,1.625864661654135,0,0.05
1757394901.8542864,0.084,-0.267,9.763,0.22127055836690068,1.6421999654046142,1.625864661654135,0,0.05
1757394901.8815472,0.238,-0.431,9.98,0.22159032018569766,2.8243006363666843,1.6335839598997492,0,0.05
1757394901.9094718,-0.195,-0.292,9.954,0.2218047170373074,2.0202593506606084,1.6552882205513786,0,0.05
1757394901.9371967,-0.195,-0.292,9.954,0.2218047170373074,2.0202593506606084,1.6552882205513786,0,0.05
1757394901.9644082,0.135,-0.193,9.957,0.22190740185942423,1.3550579984595799,1.671829573934837,0,0.05
1757394901.9913504,0.135,-0.193,9.957,0.22190740185942423,1.3550579984595799,1.671829573934837,0,0.05
1757394902.0188804,0.207,-0.294,9.906,0.22214863830327658,2.0787763124096976,1.6754385964912282,0,0.05
1757394902.0460107,0.207,-0.294,9.906,0.22214863830327658,2.0787763124096976,1.6754385964912282,0,0.05
1757394902.073722,0.207,-0.294,9.906,0.22214863830327658,2.0787763124096976,1.6754385964912282,0,0.05
1757394902.1003218,-0.091,-0.256,9.752,0.22219522947174183,1.5958600679669648,1.6903759398496239,0,0.05
1757394902.128188,0.35,-0.163,9.739,0.22288331027692496,2.2702546262310235,1.7124812030075187,0,0.05
1757394902.1560483,0.35,-0.163,9.739,0.22288331027692496,2.2702546262310235,1.7124812030075187,0,0.05
1757394902.184164,0.35,-0.163,9.739,0.22288331027692496,2.2702546262310235,1.7124812030075187,0,0.05
1757394902.2123177,0.231,-0.255,9.638,0.22318237497616158,2.0445676674461675,1.7184461152882204,0,0.05
1757394902.2389822,0.437,-0.392,9.612,0.2242494035666539,3.495007991526363,1.7287719298245614,0,0.05
1757394902.2665741,0.437,-0.392,9.612,0.2242494035666539,3.495007991526363,1.7287719298245614,0,0.05
1757394902.2941484,0.437,-0.392,9.612,0.2242494035666539,3.495007991526363,1.7287719298245614,0,0.05
1757394902.3215308,0.437,-0.392,9.612,0.2242494035666539,3.495007991526363,1.7287719298245614,0,0.05
1757394902.3478057,0.437,-0.392,9.612,0.2242494035666539,3.495007991526363,1.7287719298245614,0,0.05
1757394902.37517,0.437,-0.392,9.612,0.2242494035666539,3.495007991526363,1.7287719298245614,0,0.05
1757394902.4026701,0.437,-0.392,9.612,0.2242494035666539,3.495007991526363,1.7287719298245614,0,0.05
1757394902.4303513,0.404,-0.521,9.824,0.22515735608680432,3.8393429605458964,1.7304260651629073,0,0.05
1757394902.458507,0.404,-0.521,9.824,0.22515735608680432,3.8393429605458964,1.7304260651629073,0,0.05
1757394902.4852078,0.404,-0.521,9.824,0.22515735608680432,3.8393429605458964,1.7304260651629073,0,0.05
1757394902.511904,0.404,-0.521,9.824,0.22515735608680432,3.8393429605458964,1.7304260651629073,0,0.05
1757394902.5397656,0.204,-0.502,9.737,0.2253882760926131,3.1852428501114485,1.7404511278195487,0,0.05
1757394902.5674205,0.385,-0.369,9.633,0.22620883603431588,3.168634224769433,1.7495238095238095,0,0.05
1757394902.5944014,0.187,-0.422,9.756,0.2264019876237839,2.708762542429567,1.7594486215538847,0,0.05
1757394902.6218128,0.181,-0.422,9.664,0.22658279391869102,2.7203254261633725,1.7597493734335838,0,0.05
1757394902.6492739,0.155,-0.296,9.679,0.22671529502880922,1.9771133835646264,1.7610526315789476,0,0.05
1757394902.6767445,0.297,-0.368,9.709,0.2272011168546493,2.788515029101431,1.768170426065163,0,0.05
1757394902.7040963,0.297,-0.368,9.709,0.2272011168546493,2.788515029101431,1.768170426065163,0,0.05
1757394902.7316957,0.2,-0.364,9.669,0.22742107971777814,2.459595539182649,1.7730325814536338,0,0.05
1757394902.7591867,0.2,-0.364,9.669,0.22742107971777814,2.459595539182649,1.7730325814536338,0,0.05
1757394902.7868953,0.143,-0.426,9.652,0.2275334480906049,2.6655503115856947,1.7758897243107767,0,0.05
1757394902.8139753,0.143,-0.426,9.652,0.2275334480906049,2.6655503115856947,1.7758897243107767,0,0.05
1757394902.8415346,0.392,-0.275,9.648,0.22837607142605812,2.8413238427932277,1.7883709273182955,0,0.05
1757394902.8681266,0.392,-0.275,9.648,0.22837607142605812,2.8413238427932277,1.7883709273182955,0,0.05
1757394902.8944273,0.133,-0.353,9.736,0.22847287038070846,2.218831311931911,1.8013533834586466,0,0.05
1757394902.922302,0.133,-0.353,9.736,0.22847287038070846,2.218831311931911,1.8013533834586466,0,0.05
1757394902.949567,0.191,-0.291,9.605,0.2286723748072775,2.0754795809976483,1.8042606516290727,0,0.05
1757394902.9768982,0.191,-0.291,9.605,0.2286723748072775,2.0754795809976483,1.8042606516290727,0,0.05
1757394903.0036263,0.215,-0.152,9.731,0.22892491673035506,1.549946372098181,1.8054636591478699,0,0.05
1757394903.032302,0.215,-0.152,9.731,0.22892491673035506,1.549946372098181,1.8054636591478699,0,0.05
1757394903.0602713,0.278,-0.179,9.741,0.2293465227554148,1.9440710058926134,1.8086215538847117,0,0.05
1757394903.0880141,0.278,-0.179,9.741,0.2293465227554148,1.9440710058926134,1.8086215538847117,0,0.05
1757394903.1157424,-0.117,-0.245,9.725,0.22942111934170317,1.5991721478997307,1.828421052631579,0,0.05
1757394903.14265,-0.117,-0.245,9.725,0.22942111934170317,1.5991721478997307,1.828421052631579,0,0.05
1757394903.1690617,0.113,-0.147,9.71,0.22949068063866995,1.0939335201151892,1.8399498746867167,0,0.05
1757394903.1968675,0.113,-0.147,9.71,0.22949068063866995,1.0939335201151892,1.8399498746867167,0,0.05
1757394903.224849,0.093,-0.077,9.74,0.22953778556046062,0.7102159221481017,1.840952380952381,0,0.05
1757394903.2511418,0.093,-0.077,9.74,0.22953778556046062,0.7102159221481017,1.840952380952381,0,0.05
1757394903.2786095,0.109,-0.206,9.749,0.2296024771207837,1.369454909036975,1.8417543859649124,0,0.05
1757394903.3064528,0.109,-0.206,9.749,0.2296024771207837,1.369454909036975,1.8417543859649124,0,0.05
1757394903.3340425,0.164,-0.3,9.628,0.2297488574509131,2.0337797653052623,1.8445112781954889,0,0.05
1757394903.3615513,0.164,-0.3,9.628,0.2297488574509131,2.0337797653052623,1.8445112781954889,0,0.05
1757394903.3892798,0.151,-0.353,9.594,0.2298728779129891,2.29168388559066,1.8451629072681706,0,0.05
1757394903.4167929,0.151,-0.353,9.594,0.2298728779129891,2.29168388559066,1.8451629072681706,0,0.05
1757394903.444428,0.296,-0.282,9.615,0.23034882244109695,2.434736815677511,1.8524310776942357,0,0.05
1757394903.4726264,0.296,-0.282,9.615,0.23034882244109695,2.434736815677511,1.8524310776942357,0,0.05
1757394903.5003853,0.263,-0.347,9.731,0.23072386634243108,2.5619435395526926,1.8540852130325813,0,0.05
1757394903.5281804,0.263,-0.347,9.731,0.23072386634243108,2.5619435395526926,1.8540852130325813,0,0.05
1757394903.5556824,0.199,-0.195,9.603,0.23093831427461317,1.6618717037498896,1.8572932330827066,0,0.05
1757394903.583465,0.199,-0.195,9.603,0.23093831427461317,1.6618717037498896,1.8572932330827066,0,0.05
1757394903.6105509,0.272,-0.259,9.621,0.23133842093348872,2.2355870304519914,1.860952380952381,0,0.4
1757394903.6383283,0.272,-0.259,9.621,0.23133842093348872,2.2355870304519914,1.860952380952381,0,0.4
1757394903.6655426,0.367,-0.279,9.592,0.23206505014758255,2.75162672395126,1.8657142857142854,0,0.4
1757394903.6934245,0.122,-0.156,9.59,0.23214520779029663,1.183030921144399,1.8779949874686714,0,0.4
1757394903.7203903,0.122,-0.156,9.59,0.23214520779029663,1.183030921144399,1.8779949874686714,0,0.4
1757394903.7465453,0.018,-0.425,9.739,0.2321469523814603,2.5009810978713394,1.8832080200501249,0,0.4
1757394903.773611,0.018,-0.425,9.739,0.2321469523814603,2.5009810978713394,1.8832080200501249,0,0.4
1757394903.8010654,0.073,-0.339,9.775,0.23217564471752847,2.0317315390477058,1.8859649122807018,0,0.4
1757394903.8289716,0.073,-0.339,9.775,0.23217564471752847,2.0317315390477058,1.8859649122807018,0,0.4
1757394903.8568718,-0.184,-0.141,9.841,0.23235784901741538,1.3493971922760908,1.898847117794486,0,0.4
1757394903.8841949,-0.184,-0.141,9.841,0.23235784901741538,1.3493971922760908,1.898847117794486,0,0.4
1757394903.9123607,0.13,-0.358,9.945,0.23244874703899784,2.193236542195881,1.914586466165413,0,0.4
1757394903.9404132,0.13,-0.358,9.945,0.23244874703899784,2.193236542195881,1.914586466165413,0,0.4
1757394903.9674,-0.064,-0.286,9.922,0.23247077235644054,1.691895405616856,1.9243107769423555,0,0.4
1757394903.994328,-0.064,-0.286,9.922,0.23247077235644054,1.691895405616856,1.9243107769423555,0,0.4
1757394904.0219648,0.092,-0.252,9.923,0.23251627899998745,1.5486154363064546,1.932130325814536,0,0.4
1757394904.04978,0.092,-0.252,9.923,0.23251627899998745,1.5486154363064546,1.932130325814536,0,0.4
1757394904.0766122,0.005,-0.192,10.081,0.2325164133991405,1.0914778319017922,1.9364912280701754,0,0.4
1757394904.1038964,0.005,-0.192,10.081,0.2325164133991405,1.0914778319017922,1.9364912280701754,0,0.4
1757394904.1315017,0.06,-0.274,9.909,0.23253576606621185,1.6214291757250139,1.9392481203007519,0,0.15000000000000002
1757394904.1592329,0.06,-0.274,9.909,0.23253576606621185,1.6214291757250139,1.9392481203007519,0,0.15000000000000002
1757394904.1867313,0.22,-0.251,9.879,0.23279579570945863,1.9350359107329975,1.9472681704260653,0,0.15000000000000002
1757394904.2141812,0.22,-0.251,9.879,0.23279579570945863,1.9350359107329975,1.9472681704260653,0,0.15000000000000002
1757394904.2403946,0.306,-0.157,10.006,0.23329803363937726,1.9685934179006186,1.9515789473684213,0,0.15000000000000002
1757394904.2670133,0.306,-0.157,10.006,0.23329803363937726,1.9685934179006186,1.9515789473684213,0,0.15000000000000002
1757394904.2923942,0.195,-0.376,10.014,0.23350168093613374,2.4219696228361913,1.9571428571428573,0,0.15000000000000002
1757394904.3190832,0.195,-0.376,10.014,0.23350168093613374,2.4219696228361913,1.9571428571428573,0,0.15000000000000002
1757394904.3464687,0.127,-0.368,10.031,0.23358800803979643,2.2225051271454874,1.9605513784461153,0,0.15000000000000002
1757394904.3735516,0.127,-0.368,10.031,0.23358800803979643,2.2225051271454874,1.9605513784461153,0,0.15000000000000002
1757394904.400531,0.306,-0.351,10.169,0.2340885462811028,2.6218497426449847,1.96952380952381,0,0.15000000000000002
1757394904.4280393,0.306,-0.351,10.169,0.2340885462811028,2.6218497426449847,1.96952380952381,0,0.15000000000000002
1757394904.4554987,0.084,-0.544,10.149,0.23412622129953747,3.1044856835555112,1.9806516290726819,0,0.15000000000000002
1757394904.4830263,0.084,-0.544,10.149,0.23412622129953747,3.1044856835555112,1.9806516290726819,0,0.15000000000000002
1757394904.5099769,0.263,-0.524,10.041,0.23449522383195784,3.3417274152323504,1.9896240601503763,0,0.15000000000000002
1757394904.5374403,0.263,-0.524,10.041,0.23449522383195784,3.3417274152323504,1.9896240601503763,0,0.15000000000000002
1757394904.5650892,0.281,-0.337,9.943,0.2349157561765494,2.5268107482618043,1.9905263157894735,0,0.15000000000000002
1757394904.5914497,0.281,-0.337,9.943,0.2349157561765494,2.5268107482618043,1.9905263157894735,0,0.15000000000000002
1757394904.6188605,0.448,-0.368,9.838,0.2359812969283795,3.372610303950883,1.9988972431077694,0,0.15000000000000002
1757394904.6457093,0.448,-0.368,9.838,0.2359812969283795,3.372610303950883,1.9988972431077694,0,0.15000000000000002
1757394904.673393,0.061,-0.26,9.776,0.23600100635378657,1.5648119460544625,2.0182957393483707,0,0.15000000000000002
1757394904.700999,0.061,-0.26,9.776,0.23600100635378657,1.5648119460544625,2.0182957393483707,0,0.15000000000000002
1757394904.7283502,0.358,-0.298,9.738,0.23667886470912436,2.7385445540477895,2.033182957393483,0,0.15000000000000002
1757394904.7557096,0.358,-0.298,9.738,0.23667886470912436,2.7385445540477895,2.033182957393483,0,0.15000000000000002
1757394904.7825046,0.417,-0.356,9.61,0.23759547028510455,3.2654362969393107,2.036140350877193,0,0.15000000000000002
1757394904.81009,0.417,-0.356,9.61,0.23759547028510455,3.2654362969393107,2.036140350877193,0,0.15000000000000002
1757394904.8376217,0.238,-0.571,9.646,0.23789329015337948,3.6694565665783636,2.045112781954887,0,0.15000000000000002
1757394904.8648636,0.238,-0.571,9.646,0.23789329015337948,3.6694565665783636,2.045112781954887,0,0.15000000000000002
1757394904.8917544,0.303,-0.539,9.871,0.23837520844248883,3.5843762594693276,2.0483709273182957,0,0.15000000000000002
1757394904.9191997,0.303,-0.539,9.871,0.23837520844248883,3.5843762594693276,2.0483709273182957,0,0.15000000000000002
1757394904.9468303,0.383,-0.338,9.681,0.23914318409689206,3.02039928105948,2.0523809523809526,0,0.15000000000000002
1757394904.973543,0.383,-0.338,9.681,0.23914318409689206,3.02039928105948,2.0523809523809526,0,0.15000000000000002
1757394905.0009656,0.303,-0.435,9.757,0.239622588668097,3.1099896951653627,2.056390977443609,0,0.4
1757394905.0279942,0.303,-0.435,9.757,0.239622588668097,3.1099896951653627,2.056390977443609,0,0.4
1757394905.0555825,0.117,-0.195,9.795,0.23969398720034676,1.3299773527055778,2.065714285714286,0,0.4
1757394905.0824153,0.117,-0.195,9.795,0.23969398720034676,1.3299773527055778,2.065714285714286,0,0.4
1757394905.1100276,0.232,-0.307,9.682,0.23997451427182845,2.275972332882014,2.071478696741855,0,0.4
1757394905.1373827,0.232,-0.307,9.682,0.23997451427182845,2.275972332882014,2.071478696741855,0,0.4
1757394905.1650593,0.464,-0.18,9.642,0.2410933584734345,2.9548112789846774,2.083107769423559,0,0.4
1757394905.1926122,0.464,-0.18,9.642,0.2410933584734345,2.9548112789846774,2.083107769423559,0,0.4
1757394905.2205155,-0.028,-0.256,9.731,0.24109742325458397,1.5159541279957944,2.107769423558897,0,0.4
1757394905.2487872,-0.028,-0.256,9.731,0.24109742325458397,1.5159541279957944,2.107769423558897,0,0.4
1757394905.2758732,0.224,-0.127,9.69,0.24135742685900513,1.5221932796065465,2.1204010025062656,0,0.4
1757394905.3029535,0.224,-0.127,9.69,0.24135742685900513,1.5221932796065465,2.1204010025062656,0,0.4
1757394905.330259,0.108,-0.169,9.637,0.2414178276349947,1.192246648969797,2.1262155388471173,0,0.4
1757394905.356444,0.108,-0.169,9.637,0.2414178276349947,1.192246648969797,2.1262155388471173,0,0.4
1757394905.3829215,0.348,-0.37,9.618,0.242044061071533,3.0230672574254864,2.1382456140350876,0,0.4
1757394905.4098473,0.348,-0.37,9.618,0.242044061071533,3.0230672574254864,2.1382456140350876,0,0.4
1757394905.437607,0.203,-0.208,9.649,0.2422567852506922,1.725313381968961,2.1455137844611527,0,0.4
1757394905.4649935,0.203,-0.208,9.649,0.2422567852506922,1.725313381968961,2.1455137844611527,0,0.4
1757394905.4927819,0.361,-0.309,9.541,0.24292828674322797,2.851240979573671,2.1534335839598997,0,0.4
1757394905.519198,0.361,-0.309,9.541,0.24292828674322797,2.851240979573671,2.1534335839598997,0,0.4
1757394905.546889,0.296,-0.42,9.498,0.24337870182084545,3.096581078639193,2.1566917293233083,0,0.4
1757394905.5739083,0.296,-0.42,9.498,0.24337870182084545,3.096581078639193,2.1566917293233083,0,0.4
1757394905.600373,0.577,-0.36,9.604,0.24508266972595188,4.0505649696164,2.17077694235589,0,0.4
1757394905.627255,0.577,-0.36,9.604,0.24508266972595188,4.0505649696164,2.17077694235589,0,0.4
1757394905.653254,0.238,-0.309,9.612,0.24537140216414788,2.323651398015272,2.1877694235588976,0,0.4
1757394905.6810532,0.238,-0.309,9.612,0.24537140216414788,2.323651398015272,2.1877694235588976,0,0.4
1757394905.7086506,0.217,-0.386,9.612,0.24561117136645066,2.637692091532186,2.1888220551378446,0,0.4
1757394905.7366838,0.217,-0.386,9.612,0.24561117136645066,2.637692091532186,2.1888220551378446,0,0.4
1757394905.7643714,0.296,-0.296,9.618,0.24605667538191278,2.492129284230995,2.1927819548872183,0,0.4
1757394905.792335,0.296,-0.296,9.618,0.24605667538191278,2.492129284230995,2.1927819548872183,0,0.4
1757394905.8197153,0.12,-0.19,9.779,0.24612981838858938,1.3164290121352924,2.2016040100250627,0,0.4
1757394905.8463297,0.12,-0.19,9.779,0.24612981838858938,1.3164290121352924,2.2016040100250627,0,0.4
1757394905.8735578,-0.044,-0.331,9.674,0.24613965040196184,1.9768592957324587,2.2098245614035084,0,0.4
1757394905.9004924,-0.044,-0.331,9.674,0.24613965040196184,1.9768592957324587,2.2098245614035084,0,0.4
1757394905.9284332,0.024,-0.186,9.674,0.24614257555327562,1.1106077105900791,2.2132330827067666,0,0.4
1757394905.956055,0.024,-0.186,9.674,0.24614257555327562,1.1106077105900791,2.2132330827067666,0,0.4
1757394905.9824245,0.074,0.05,9.685,0.24617038306831307,0.5283275656424193,2.2157393483709273,0,0.4
1757394906.010074,0.074,0.05,9.685,0.24617038306831307,0.5283275656424193,2.2157393483709273,0,0.4
1757394906.0375087,-0.161,0.17,9.653,0.24630196913544966,1.389468337778307,2.227518796992481,0,0.4
1757394906.064867,-0.161,0.17,9.653,0.24630196913544966,1.389468337778307,2.227518796992481,0,0.4
1757394906.0933735,-0.012,-0.04,9.823,0.2463026999446007,0.2435841986854908,2.234987468671679,0,0.4
1757394906.1210246,-0.012,-0.04,9.823,0.2463026999446007,0.2435841986854908,2.234987468671679,0,0.4
1757394906.1481159,-0.16,0.131,9.715,0.24643258713084193,1.2193775043691915,2.2424060150375937,0,0.4
1757394906.1761441,-0.16,0.131,9.715,0.24643258713084193,1.2193775043691915,2.2424060150375937,0,0.4
1757394906.2044156,0.139,0.008,9.667,0.2465305711265846,0.825151683128581,2.257393483709273,0,0.4
1757394906.231627,-0.244,-0.214,9.84,0.2468322557932816,1.8890797410897826,2.276591478696742,0,0.4
1757394906.2595496,-0.244,-0.214,9.84,0.2468322557932816,1.8890797410897826,2.276591478696742,0,0.4
1757394906.2870142,0.16,-0.201,9.681,0.24696186446494123,1.5201125850068322,2.2968421052631576,0,0.4
1757394906.315464,0.16,-0.201,9.681,0.24696186446494123,1.5201125850068322,2.2968421052631576,0,0.4
1757394906.3429496,-0.071,-0.232,9.585,0.2469873782200216,1.449994518355693,2.3084210526315787,0,0.4
1757394906.3711846,-0.071,-0.232,9.585,0.2469873782200216,1.449994518355693,2.3084210526315787,0,0.4
1757394906.3987384,0.186,-0.274,9.616,0.2471624061219667,1.9724429366439347,2.3213032581453628,0,0.4
1757394906.4250739,0.186,-0.274,9.616,0.2471624061219667,1.9724429366439347,2.3213032581453628,0,0.4
1757394906.452608,-0.027,-0.311,9.608,0.24716609294156835,1.8609204568589395,2.3223558897243106,0,0.4
1757394906.4801953,-0.027,-0.311,9.608,0.24716609294156835,1.8609204568589395,2.3223558897243106,0,0.4
1757394906.5065951,0.222,-0.361,9.484,0.24722889697606146,2.558594614319623,2.334586466165413,0,0.4
1757394906.5342205,0.222,-0.361,9.484,0.24722889697606146,2.558594614319623,2.334586466165413,0,0.4
1757394906.5610487,0.096,-0.493,9.504,0.247098654387271,3.025108039032408,2.3401002506265667,0,0.4
1757394906.5872324,0.096,-0.493,9.504,0.247098654387271,3.025108039032408,2.3401002506265667,0,0.4
1757394906.6145487,0.26,-0.551,9.51,0.24729262524385964,3.6656717091680364,2.3481704260651624,0,0.4
1757394906.6428456,0.26,-0.551,9.51,0.24729262524385964,3.6656717091680364,2.3481704260651624,0,0.4
1757394906.6703498,0.158,-0.471,9.619,0.2472657730054849,2.9565414983741434,2.352531328320802,0,0.4
1757394906.6977487,0.158,-0.471,9.619,0.2472657730054849,2.9565414983741434,2.352531328320802,0,0.4
1757394906.7242594,0.353,-0.488,9.6,0.24776739595838673,3.5899472179385685,2.362005012531328,0,0.4
1757394906.7514663,0.353,-0.488,9.6,0.24776739595838673,3.5899472179385685,2.362005012531328,0,0.4
1757394906.778864,0.211,-0.532,9.571,0.24787388426375218,3.422031269346711,2.3685714285714283,0,0.4
1757394906.806578,0.211,-0.532,9.571,0.24787388426375218,3.422031269346711,2.3685714285714283,0,0.4
1757394906.8334544,0.334,-0.511,9.54,0.24833433612772923,3.661413808026672,2.3737844611528818,0,0.4
1757394906.8605394,0.334,-0.511,9.54,0.24833433612772923,3.661413808026672,2.3737844611528818,0,0.4
1757394906.8877466,0.253,-0.573,9.633,0.24858025364054964,3.7203201004297592,2.377243107769423,0,0.4
1757394906.9155428,0.253,-0.573,9.633,0.24858025364054964,3.7203201004297592,2.377243107769423,0,0.4
1757394906.9426491,0.499,-0.683,9.561,0.24976757695906007,5.055822806088378,2.3885714285714283,0,0.4
1757394906.9699264,0.499,-0.683,9.561,0.24976757695906007,5.055822806088378,2.3885714285714283,0,0.4
1757394906.996665,0.371,-0.46,9.494,0.25041414197285267,3.5618534802250963,2.394887218045113,0,0.4
1757394907.0233836,0.371,-0.46,9.494,0.25041414197285267,3.5618534802250963,2.394887218045113,0,0.4
1757394907.0499704,0.266,-0.459,9.571,0.2507276011930079,3.1725738452482206,2.3996992481203003,0,0.4
1757394907.0774813,0.266,-0.459,9.571,0.2507276011930079,3.1725738452482206,2.3996992481203003,0,0.4
1757394907.1037707,0.553,-0.358,9.542,0.2522000049563838,3.9493534209250885,2.4136340852130327,0,0.4
1757394907.13151,0.553,-0.358,9.542,0.2522000049563838,3.9493534209250885,2.4136340852130327,0,0.4
1757394907.15879,0.329,-0.413,9.692,0.2526792878334115,3.118417596059756,2.4246616541353383,0,0.4
1757394907.1864269,0.329,-0.413,9.692,0.2526792878334115,3.118417596059756,2.4246616541353383,0,0.4
1757394907.2138822,0.29,-0.395,9.788,0.25304258534879065,2.866057613575064,2.4264661654135335,0,0.4
1757394907.241318,0.29,-0.395,9.788,0.25304258534879065,2.866057613575064,2.4264661654135335,0,0.4
1757394907.2686863,0.269,-0.241,9.666,0.25334435557162116,2.139846292803147,2.427017543859649,0,0.4
1757394907.2961006,0.269,-0.241,9.666,0.25334435557162116,2.139846292803147,2.427017543859649,0,0.4
1757394907.323377,0.382,-0.29,9.633,0.253997111204045,2.8502908757133163,2.43187969924812,0,0.4
1757394907.3503268,0.382,-0.29,9.633,0.253997111204045,2.8502908757133163,2.43187969924812,0,0.4
1757394907.377628,0.218,-0.168,9.773,0.2541451996398909,1.6131158136003143,2.4397994987468667,0,0.4
1757394907.405296,0.218,-0.168,9.773,0.2541451996398909,1.6131158136003143,2.4397994987468667,0,0.4
1757394907.4326756,0.35,-0.147,9.844,0.25465353423818804,2.208418795278476,2.4461654135338344,0,0.4
1757394907.4604087,0.35,-0.147,9.844,0.25465353423818804,2.208418795278476,2.4461654135338344,0,0.4
1757394907.4875622,0.237,-0.254,9.739,0.25482881018440595,2.042917441697184,2.451528822055138,0,0.4
1757394907.5149972,0.237,-0.254,9.739,0.25482881018440595,2.042917441697184,2.451528822055138,0,0.4
1757394907.542557,0.184,-0.271,10.061,0.25488597450624856,1.864755483951656,2.4538847117794482,0,0.4
1757394907.5699334,0.184,-0.271,10.061,0.25488597450624856,1.864755483951656,2.4538847117794482,0,0.4
1757394907.5953434,0.04,-0.268,10.096,0.2547759751232443,1.5374041989836134,2.460350877192982,0,0.4
1757394907.6219618,0.04,-0.268,10.096,0.2547759751232443,1.5374041989836134,2.460350877192982,0,0.4
1757394907.6492934,0.222,-0.372,9.875,0.2548759649319645,2.511899585876453,2.4682706766917293,0,0.4
1757394907.6773436,0.222,-0.372,9.875,0.2548759649319645,2.511899585876453,2.4682706766917293,0,0.4
1757394907.7043984,0.27,-0.28,9.766,0.2550488531634675,2.280845579111538,2.4705764411027564,0,0.4
1757394907.7318156,0.27,-0.28,9.766,0.2550488531634675,2.280845579111538,2.4705764411027564,0,0.4
1757394907.7590554,0.215,-0.325,9.718,0.2550871223719457,2.2962571912669176,2.4730827067669168,0,0.4
1757394907.7864249,0.215,-0.325,9.718,0.2550871223719457,2.2962571912669176,2.4730827067669168,0,0.4
1757394907.8137722,0.078,-0.235,9.59,0.2549189037713759,1.4790050752381652,2.479598997493734,0,0.4
1757394907.8411431,0.078,-0.235,9.59,0.2549189037713759,1.4790050752381652,2.479598997493734,0,0.4
1757394907.868525,0.261,-0.352,9.613,0.2550407614480477,2.6100091515599875,2.487619047619048,0,0.4
1757394907.8961866,0.261,-0.352,9.613,0.2550407614480477,2.6100091515599875,2.487619047619048,0,0.4
1757394907.9235923,0.392,-0.24,9.723,0.25553189135604976,2.7065240992730826,2.493233082706767,0,0.4
1757394907.9515312,0.392,-0.24,9.723,0.25553189135604976,2.7065240992730826,2.493233082706767,0,0.4
1757394907.9789827,0.184,-0.367,9.649,0.2553917334214246,2.436331609474591,2.503107769423559,0,0.4
1757394908.006074,0.184,-0.367,9.649,0.2553917334214246,2.436331609474591,2.503107769423559,0,0.4
1757394908.0329795,0.207,-0.356,9.714,0.255268011117727,2.4274946715387093,2.5039097744360905,0,0.4
1757394908.0591128,0.207,-0.356,9.714,0.255268011117727,2.4274946715387093,2.5039097744360905,0,0.4
1757394908.0853908,0.405,-0.174,9.675,0.25575482400142524,2.6086087837846317,2.5131829573934836,0,0.4
1757394908.1129692,0.405,-0.174,9.675,0.25575482400142524,2.6086087837846317,2.5131829573934836,0,0.4
1757394908.1404502,0.458,-0.352,9.461,0.25643072651302923,3.493848743577122,2.515338345864662,0,0.4
1757394908.167947,0.458,-0.352,9.461,0.25643072651302923,3.493848743577122,2.515338345864662,0,0.4
1757394908.1952467,0.15,-0.208,9.488,0.2562183541434922,1.5482330887569065,2.5303258145363405,0,0.4
1757394908.2225828,0.15,-0.208,9.488,0.2562183541434922,1.5482330887569065,2.5303258145363405,0,0.4
1757394908.2501092,0.457,-0.083,9.56,0.25689117832265085,2.781548843951833,2.545363408521303,0,0.4
1757394908.2773528,0.457,-0.083,9.56,0.25689117832265085,2.781548843951833,2.545363408521303,0,0.4
1757394908.3039927,0.266,-0.247,9.496,0.25687281872553197,2.189124990124926,2.554736842105263,0,0.4
1757394908.3307292,0.266,-0.247,9.496,0.25687281872553197,2.189124990124926,2.554736842105263,0,0.4
1757394908.3573432,0.18,-0.303,9.497,0.25665701334660623,2.125266925398321,2.558847117794486,0,0.4
1757394908.3843231,0.18,-0.303,9.497,0.25665701334660623,2.125266925398321,2.558847117794486,0,0.4
1757394908.4115179,0.349,-0.215,9.636,0.2568655728197144,2.435860001392818,2.5671177944862156,0,0.4
1757394908.439386,0.349,-0.215,9.636,0.2568655728197144,2.435860001392818,2.5671177944862156,0,0.4
1757394908.4666615,0.224,-0.253,9.605,0.2567363238811368,2.0148870814173496,2.5733834586466164,0,0.4
1757394908.4935632,0.224,-0.253,9.605,0.2567363238811368,2.0148870814173496,2.5733834586466164,0,0.4
1757394908.519513,0.235,-0.395,9.708,0.25663160366564364,2.7106100806254494,2.573734335839599,0,0.4
1757394908.5467875,0.235,-0.395,9.708,0.25663160366564364,2.7106100806254494,2.573734335839599,0,0.4
1757394908.5735562,0.049,-0.34,9.958,0.2562800421414044,1.975700797514842,2.5824561403508772,0,0.4
1757394908.6010995,0.049,-0.34,9.958,0.2562800421414044,1.975700797514842,2.5824561403508772,0,0.4
1757394908.628543,0.004,-0.399,9.908,0.25594764601378933,2.306198722104463,2.5844611528822057,0,0.4
1757394908.655872,0.004,-0.399,9.908,0.25594764601378933,2.306198722104463,2.5844611528822057,0,0.4
1757394908.6833227,0.064,-0.448,9.754,0.255647408553265,2.6564003331616965,2.5865664160401,0,0.4
1757394908.7106194,0.064,-0.448,9.754,0.255647408553265,2.6564003331616965,2.5865664160401,0,0.4
1757394908.7374704,0.189,-0.389,9.749,0.255545084084981,2.5400804992410695,2.5923809523809527,0,0.4
1757394908.7644138,0.189,-0.389,9.749,0.255545084084981,2.5400804992410695,2.5923809523809527,0,0.4
1757394908.7917452,0.061,-0.328,9.77,0.2553066587459089,1.9557650667655413,2.5986466165413535,0,0.4
1757394908.8194077,0.061,-0.328,9.77,0.2553066587459089,1.9557650667655413,2.5986466165413535,0,0.4
1757394908.8456542,0.049,-0.299,9.63,0.255068231067689,1.8021011869873083,2.599047619047619,0,0.4
1757394908.8717282,0.049,-0.299,9.63,0.255068231067689,1.8021011869873083,2.599047619047619,0,0.4
1757394908.898846,0.227,-0.369,9.709,0.25507923278855926,2.55494000348835,2.6075689223057648,0,0.4
1757394908.926253,0.227,-0.369,9.709,0.25507923278855926,2.55494000348835,2.6075689223057648,0,0.4
1757394908.953562,0.223,-0.307,9.683,0.2550985054836661,2.2440814544164107,2.607719298245614,0,0.4
1757394908.9802434,0.223,-0.307,9.683,0.2550985054836661,2.2440814544164107,2.607719298245614,0,0.4
1757394909.0078928,0.069,-0.469,9.639,0.2548994458605197,2.8155527728753516,2.615037593984962,0,0.4
1757394909.0357974,0.069,-0.469,9.639,0.2548994458605197,2.8155527728753516,2.615037593984962,0,0.4
1757394909.0634146,0.159,-0.511,9.653,0.25481732182094685,3.1732477996820645,2.61859649122807,0,0.4
1757394909.090965,0.159,-0.511,9.653,0.25481732182094685,3.1732477996820645,2.61859649122807,0,0.4
1757394909.1185095,0.245,-0.418,9.666,0.2549420326270268,2.8695539046777676,2.6228070175438596,0,0.4
1757394909.1459253,0.245,-0.418,9.666,0.2549420326270268,2.8695539046777676,2.6228070175438596,0,0.4
1757394909.1725986,0.245,-0.418,9.666,0.2549420326270268,2.8695539046777676,2.6228070175438596,0,0.4
1757394909.2003915,0.312,-0.432,9.35,0.2552458422775971,3.2619413989346087,2.6256641604010023,0,0.4
1757394909.2279127,0.233,-0.428,9.58,0.2553565203788617,2.911991349943379,2.629473684210526,0,0.4
1757394909.255774,0.132,-0.416,9.608,0.25528143293236194,2.6008534889101362,2.6331829573934833,0,0.4
1757394909.2832708,0.132,-0.416,9.608,0.25528143293236194,2.6008534889101362,2.6331829573934833,0,0.4
1757394909.3105743,0.254,-0.345,9.595,0.25548113433285047,2.5565591342871463,2.6388972431077695,0,0.4
1757394909.3378818,0.254,-0.345,9.595,0.25548113433285047,2.5565591342871463,2.6388972431077695,0,0.4
1757394909.3647087,0.111,-0.196,9.632,0.25543712044258565,1.3396439914711498,2.645363408521303,0,0.4
1757394909.3918042,0.111,-0.196,9.632,0.25543712044258565,1.3396439914711498,2.645363408521303,0,0.4
1757394909.4194677,0.262,-0.297,9.78,0.2556876463578168,2.318958423679049,2.652531328320802,0,0.4
1757394909.4470136,0.262,-0.297,9.78,0.2556876463578168,2.318958423679049,2.652531328320802,0,0.4
1757394909.4736369,0.051,-0.247,9.82,0.25562518459651035,1.4712225674330628,2.6622556390977445,0,0.4
1757394909.501354,0.051,-0.247,9.82,0.25562518459651035,1.4712225674330628,2.6622556390977445,0,0.4
1757394909.5292487,0.276,-0.16,9.794,0.2559415021054616,1.8656565339959568,2.673333333333333,0,0.4
1757394909.5565832,0.276,-0.16,9.794,0.2559415021054616,1.8656565339959568,2.673333333333333,0,0.4
1757394909.583101,0.147,-0.188,9.865,0.2559952196819308,1.3857955012332035,2.6793984962406014,0,0.4
1757394909.6103544,0.147,-0.188,9.865,0.2559952196819308,1.3857955012332035,2.6793984962406014,0,0.4
1757394909.636992,0.352,-0.229,9.769,0.2565555495404455,2.461426152318829,2.689473684210526,0,0.4
1757394909.66474,0.352,-0.229,9.769,0.2565555495404455,2.461426152318829,2.689473684210526,0,0.4
1757394909.6919062,0.146,-0.333,9.797,0.2566116472415077,2.1254661054925177,2.6993984962406015,0,0.4
1757394909.7183828,0.146,-0.333,9.797,0.2566116472415077,2.1254661054925177,2.6993984962406015,0,0.4
1757394909.7462227,0.164,-0.445,9.818,0.2567023081314229,2.765522259306609,2.699598997493734,0,0.4
1757394909.7736948,0.164,-0.445,9.818,0.2567023081314229,2.765522259306609,2.699598997493734,0,0.4
1757394909.8014927,0.055,-0.372,9.787,0.2566633495456646,2.200381517289193,2.7044611528822053,0,0.4
1757394909.8284001,0.055,-0.372,9.787,0.2566633495456646,2.200381517289193,2.7044611528822053,0,0.4
1757394909.8552308,0.321,-0.366,9.679,0.2570981427393049,2.8793717888870245,2.717794486215539,0,0.4
1757394909.8822033,0.321,-0.366,9.679,0.2570981427393049,2.8793717888870245,2.717794486215539,0,0.4
1757394909.9098098,0.159,-0.372,9.673,0.2571544963635674,2.3948941583635355,2.7254135338345864,0,0.4
1757394909.9365354,0.159,-0.372,9.673,0.2571544963635674,2.3948941583635355,2.7254135338345864,0,0.4
1757394909.9628196,0.306,-0.227,9.752,0.25753097386528095,2.2373765033770763,2.7323809523809524,0,0.4
1757394909.9903495,0.306,-0.227,9.752,0.25753097386528095,2.2373765033770763,2.7323809523809524,0,0.4
1757394910.018058,0.22,-0.322,9.623,0.25767739520571065,2.3206856997908023,2.736541353383459,0,0.4
1757394910.045704,0.22,-0.322,9.623,0.25767739520571065,2.3206856997908023,2.736541353383459,0,0.4
1757394910.072697,0.274,-0.251,9.711,0.2579490647395334,2.191328679371316,2.7386466165413528,0,0.4
1757394910.099619,0.274,-0.251,9.711,0.2579490647395334,2.191328679371316,2.7386466165413528,0,0.4
1757394910.126033,0.327,-0.242,9.632,0.2583578767910899,2.418454607664172,2.731929824561403,0,0.4
1757394910.1536114,0.327,-0.242,9.632,0.2583578767910899,2.418454607664172,2.731929824561403,0,0.4
1757394910.1812086,0.207,-0.231,9.622,0.25801548887615255,1.8463627025277762,2.7248621553884713,0,0.4
1757394910.208773,0.207,-0.231,9.622,0.25801548887615255,1.8463627025277762,2.7248621553884713,0,0.4
1757394910.2357671,0.358,-0.268,9.505,0.25690152296162044,2.693719281563021,2.731328320802005,0,0.4
1757394910.2633998,0.358,-0.268,9.505,0.25690152296162044,2.693719281563021,2.731328320802005,0,0.4
1757394910.2915556,0.272,-0.299,9.612,0.25564411297739675,2.4080148059511477,2.729774436090225,0,0.4
1757394910.3190782,0.272,-0.299,9.612,0.25564411297739675,2.4080148059511477,2.729774436090225,0,0.4
1757394910.3458526,0.177,-0.304,9.551,0.25343956380170796,2.109314580012321,2.708571428571428,0,0.4
1757394910.3729856,0.177,-0.304,9.551,0.25343956380170796,2.109314580012321,2.708571428571428,0,0.4
1757394910.4001977,0.278,-0.349,9.569,0.2536695882442355,2.6696903503415004,2.7003007518796993,0,0.4
1757394910.4278076,0.278,-0.349,9.569,0.2536695882442355,2.6696903503415004,2.7003007518796993,0,0.4
1757394910.4544067,0.028,-0.319,9.73,0.25271331088804955,1.8849954589394042,2.708020050125313,0,0.4
1757394910.4822984,0.028,-0.319,9.73,0.25271331088804955,1.8849954589394042,2.708020050125313,0,0.4
1757394910.5097106,0.146,-0.226,9.723,0.2522295482293857,1.585100549748486,2.7096240601503756,0,0.4
1757394910.5355434,0.146,-0.226,9.723,0.2522295482293857,1.585100549748486,2.7096240601503756,0,0.4
1757394910.5628977,-0.118,-0.289,9.734,0.2513765154106485,1.8368016276319468,2.721503759398496,0,0.4
1757394910.5888224,-0.118,-0.289,9.734,0.2513765154106485,1.8368016276319468,2.721503759398496,0,0.4
1757394910.6153045,0.199,-0.253,9.803,0.25052893046512614,1.8806520844938446,2.7357894736842105,0,0.4
1757394910.6427622,0.199,-0.253,9.803,0.25052893046512614,1.8806520844938446,2.7357894736842105,0,0.4
1757394910.6695876,0.006,-0.187,9.807,0.24962200423840844,1.0929462827217218,2.7395989974937343,0,0.4
1757394910.696193,0.006,-0.187,9.807,0.24962200423840844,1.0929462827217218,2.7395989974937343,0,0.4
1757394910.722745,-0.081,-0.348,9.87,0.24817418278298006,2.0732505899853684,2.7281203007518795,0,0.4
1757394910.750137,-0.081,-0.348,9.87,0.24817418278298006,2.0732505899853684,2.7281203007518795,0,0.4
1757394910.7778325,0.014,-0.183,10.043,0.24791549467510093,1.0469576273797085,2.7265664160401006,0,0.4
1757394910.8053844,0.014,-0.183,10.043,0.24791549467510093,1.0469576273797085,2.7265664160401006,0,0.4
1757394910.8324153,-0.029,-0.164,10.01,0.24729066399684402,0.9531872615160166,2.715639097744361,0,0.4
1757394910.8598723,-0.029,-0.164,10.01,0.24729066399684402,0.9531872615160166,2.715639097744361,0,0.4
1757394910.8873134,-0.031,-0.181,9.894,0.24538252790286436,1.0633041934125356,2.703458646616541,0,0.4
1757394910.91472,-0.031,-0.181,9.894,0.24538252790286436,1.0633041934125356,2.703458646616541,0,0.4
1757394910.9425535,-0.109,-0.083,9.882,0.2447486159307137,0.7942954894305615,2.7052631578947373,0,0.4
1757394910.9703674,-0.109,-0.083,9.882,0.2447486159307137,0.7942954894305615,2.7052631578947373,0,0.4
1757394910.998078,0.132,-0.127,9.757,0.24397365124127646,1.0755261920456562,2.7125814536340855,0,0.4
1757394911.0257237,0.132,-0.127,9.757,0.24397365124127646,1.0755261920456562,2.7125814536340855,0,0.4
1757394911.0538185,0.08,-0.239,9.738,0.24269126992951354,1.4825678662232271,2.710325814536341,0,0.4
1757394911.0815237,0.08,-0.239,9.738,0.24269126992951354,1.4825678662232271,2.710325814536341,0,0.4
1757394911.1086469,0.073,-0.312,9.737,0.24185568527533108,1.8848156956659012,2.708270676691729,0,0.45
1757394911.1356435,0.073,-0.312,9.737,0.24185568527533108,1.8848156956659012,2.708270676691729,0,0.45
1757394911.1621823,0.215,-0.357,9.515,0.24142065466732543,2.50786278588258,2.7109774436090235,0,0.45
1757394911.1893487,0.215,-0.357,9.515,0.24142065466732543,2.50786278588258,2.7109774436090235,0,0.45
1757394911.2160287,0.293,-0.377,9.427,0.2414792589437031,2.8995101631899782,2.713333333333333,0,0.45
1757394911.2436795,0.293,-0.377,9.427,0.2414792589437031,2.8995101631899782,2.713333333333333,0,0.45
1757394911.2716002,0.302,-0.404,9.616,0.2416481584866725,3.0026586422324377,2.707318295739348,0,0.45
1757394911.2991133,0.302,-0.404,9.616,0.2416481584866725,3.0026586422324377,2.707318295739348,0,0.45
1757394911.3266087,0.209,-0.409,9.889,0.24116163148394895,2.659257366079487,2.6963909774436092,0,0.45
1757394911.3543298,0.209,-0.409,9.889,0.24116163148394895,2.659257366079487,2.6963909774436092,0,0.45
1757394911.3824754,0.136,-0.175,9.795,0.2412388287568981,1.2962169334993408,2.6885213032581454,0,0.45
1757394911.4100454,0.136,-0.175,9.795,0.2412388287568981,1.2962169334993408,2.6885213032581454,0,0.45
1757394911.4378474,0.439,-0.364,9.657,0.2418010028928747,3.3795816561024874,2.6975438596491226,0,0.45
1757394911.4649816,0.439,-0.364,9.657,0.2418010028928747,3.3795816561024874,2.6975438596491226,0,0.45
1757394911.4912066,0.221,-0.129,9.693,0.24190929085093033,1.5122532381522402,2.697644110275689,0,0.45
1757394911.5175118,0.221,-0.129,9.693,0.24190929085093033,1.5122532381522402,2.697644110275689,0,0.45
1757394911.5450485,0.23,-0.086,9.734,0.24217009001939116,1.4450518950397826,2.6970927318295743,0,0.45
1757394911.5726397,0.23,-0.086,9.734,0.24217009001939116,1.4450518950397826,2.6970927318295743,0,0.45
1757394911.6002877,0.162,-0.095,9.692,0.2422809526149342,1.1100727840856406,2.696140350877193,0,0.45
1757394911.6278121,0.162,-0.095,9.692,0.2422809526149342,1.1100727840856406,2.696140350877193,0,0.45
1757394911.6553347,0.077,-0.121,9.778,0.2423098687631191,0.8403469005262373,2.693984962406015,0,0.45
1757394911.6827652,0.077,-0.121,9.778,0.2423098687631191,0.8403469005262373,2.693984962406015,0,0.45
1757394911.7098567,-0.154,-0.196,9.811,0.24232224928800905,1.4553706269650402,2.681954887218045,0,0.45
1757394911.737052,-0.154,-0.196,9.811,0.24232224928800905,1.4553706269650402,2.681954887218045,0,0.45
1757394911.7638528,-0.042,-0.2,9.832,0.24178589702461972,1.1907463923688002,2.655388471177945,0,0.45
1757394911.7902572,-0.042,-0.2,9.832,0.24178589702461972,1.1907463923688002,2.655388471177945,0,0.45
1757394911.8181236,0.001,-0.3,9.75,0.2412658284962875,1.762400808519827,2.642155388471178,0,0.45
1757394911.8454728,0.001,-0.3,9.75,0.2412658284962875,1.762400808519827,2.642155388471178,0,0.45
1757394911.8728716,-0.055,-0.203,9.719,0.24128098246650106,1.2396850938116857,2.6391478696741855,0,0.45
1757394911.9001977,-0.055,-0.203,9.719,0.24128098246650106,1.2396850938116857,2.6391478696741855,0,0.45
1757394911.927807,0.067,-0.094,9.682,0.2412219828290946,0.6830784532872012,2.63593984962406,0,0.45
1757394911.9549747,0.013,-0.158,9.536,0.24120420290699746,0.9524420252727209,2.6233583959899742,0,0.45
1757394911.9822931,0.013,-0.158,9.536,0.24120420290699746,0.9524420252727209,2.6233583959899742,0,0.45
1757394912.009133,0.013,-0.158,9.536,0.24120420290699746,0.9524420252727209,2.6233583959899742,0,0.45
1757394912.0365267,0.108,-0.257,9.717,0.24095344986117134,1.6433049367009265,2.6268671679197992,0,0.45
1757394912.063808,0.265,-0.149,9.657,0.2409395722997781,1.8031591822911082,2.627769423558897,0,0.45
1757394912.0905387,0.265,-0.149,9.657,0.2409395722997781,1.8031591822911082,2.627769423558897,0,0.45
1757394912.1186223,-0.001,-0.425,9.549,0.240850529374548,2.5484044293726607,2.6365413533834583,0,0.4
1757394912.1453648,-0.001,-0.425,9.549,0.240850529374548,2.5484044293726607,2.6365413533834583,0,0.4
1757394912.1719775,0.213,-0.454,9.584,0.24083020989900747,2.9952700748111027,2.6469172932330824,0,0.4
1757394912.1985004,0.213,-0.454,9.584,0.24083020989900747,2.9952700748111027,2.6469172932330824,0,0.4
1757394912.225133,0.327,-0.365,9.593,0.2411128573925497,2.924393045344597,2.651378446115287,0,0.45
1757394912.252115,0.327,-0.365,9.593,0.2411128573925497,2.924393045344597,2.651378446115287,0,0.45
1757394912.2797205,0.116,-0.349,9.638,0.24084800186009434,2.185269121624899,2.6534837092731824,0,0.4
1757394912.3072326,0.116,-0.349,9.638,0.24084800186009434,2.185269121624899,2.6534837092731824,0,0.4
1757394912.3352568,0.314,-0.556,9.714,0.2413217509881776,3.7608635731450297,2.6614536340852126,0,0.45
1757394912.3622549,0.314,-0.556,9.714,0.2413217509881776,3.7608635731450297,2.6614536340852126,0,0.45
1757394912.3889894,0.214,-0.313,9.623,0.24147926929655888,2.256389833674673,2.6618546365914786,0,0.45
1757394912.416427,0.214,-0.313,9.623,0.24147926929655888,2.256389833674673,2.6618546365914786,0,0.45
1757394912.4444277,0.338,-0.372,9.5,0.24182888061602567,3.028551992042744,2.6613533834586462,0,0.45
1757394912.4720957,0.338,-0.372,9.5,0.24182888061602567,3.028551992042744,2.6613533834586462,0,0.45
1757394912.4989989,0.309,-0.384,9.646,0.24228722624191312,2.925126549096463,2.6598997493734333,0,0.45
1757394912.5259466,0.309,-0.384,9.646,0.24228722624191312,2.925126549096463,2.6598997493734333,0,0.45
1757394912.5534532,0.325,-0.209,9.699,0.2427306377448055,2.2814171131742342,2.6547869674185463,0,0.45
1757394912.5806227,0.325,-0.209,9.699,0.2427306377448055,2.2814171131742342,2.6547869674185463,0,0.45
1757394912.6076252,0.325,-0.209,9.699,0.2427306377448055,2.2814171131742342,2.6547869674185463,0,0.45
1757394912.6350605,0.194,-0.214,9.657,0.24258162028480226,1.713236293689885,2.656591478696742,0,0.45
1757394912.6626513,0.352,-0.22,9.67,0.24308266083783103,2.457974088087862,2.661704260651629,0,0.45
1757394912.6896596,0.352,-0.22,9.67,0.24308266083783103,2.457974088087862,2.661704260651629,0,0.45
1757394912.716496,0.295,-0.21,9.692,0.24347098389746571,2.1396858784275383,2.6546365914786967,0,0.45
1757394912.742853,0.295,-0.21,9.692,0.24347098389746571,2.1396858784275383,2.6546365914786967,0,0.45
1757394912.7702003,0.357,-0.168,9.564,0.2436476554371086,2.362346064634223,2.6516791979949876,0,0.45
1757394912.7973952,0.357,-0.168,9.564,0.2436476554371086,2.362346064634223,2.6516791979949876,0,0.45
1757394912.8251,0.305,-0.278,9.601,0.24395102479801148,2.4612612294186627,2.640451127819549,0,0.45
1757394912.8525376,0.305,-0.278,9.601,0.24395102479801148,2.4612612294186627,2.640451127819549,0,0.45
1757394912.8800516,0.206,-0.375,9.742,0.2430826865492481,2.514741941628203,2.6294736842105264,0,0.45
1757394912.9080818,0.206,-0.375,9.742,0.2430826865492481,2.514741941628203,2.6294736842105264,0,0.45
1757394912.9348025,0.32,-0.354,9.707,0.243505200149812,2.814393947337099,2.6248621553884712,0,0.45
1757394912.9621952,0.32,-0.354,9.707,0.243505200149812,2.814393947337099,2.6248621553884712,0,0.45
1757394912.9893408,0.245,-0.297,9.754,0.24319145749799684,2.2604161207906235,2.623709273182958,0,0.45
1757394913.0157006,0.245,-0.297,9.754,0.24319145749799684,2.2604161207906235,2.623709273182958,0,0.45
1757394913.0421078,0.245,-0.297,9.754,0.24319145749799684,2.2604161207906235,2.623709273182958,0,0.45
1757394913.0693808,0.184,-0.397,9.825,0.24304418322601348,2.5500452214494307,2.6224060150375945,0,0.45
1757394913.0972254,0.184,-0.397,9.825,0.24304418322601348,2.5500452214494307,2.6224060150375945,0,0.45
1757394913.1245906,0.184,-0.397,9.825,0.24304418322601348,2.5500452214494307,2.6224060150375945,0,0.45
1757394913.1526124,0.27,-0.377,9.677,0.2428349285008234,2.743458062508918,2.6208020050125316,0,0.45
1757394913.1790023,0.267,-0.371,9.604,0.2429549803976037,2.724854335756492,2.614486215538847,0,0.45
1757394913.2045681,0.309,-0.487,9.772,0.2428231146328537,3.3777647861511606,2.6106766917293234,0,0.45
1757394913.2302423,0.309,-0.487,9.772,0.2428231146328537,3.3777647861511606,2.6106766917293234,0,0.45
1757394913.2563465,0.377,-0.53,9.666,0.24328201228204277,3.849521453507685,2.612581453634085,0,0.45
1757394913.2821982,0.377,-0.53,9.666,0.24328201228204277,3.849521453507685,2.612581453634085,0,0.45
1757394913.3083699,0.377,-0.53,9.666,0.24328201228204277,3.849521453507685,2.612581453634085,0,0.45
1757394913.3360527,0.377,-0.53,9.666,0.24328201228204277,3.849521453507685,2.612581453634085,0,0.45
1757394913.3623884,0.32,-0.484,9.557,0.24346075145698537,3.474253374524675,2.6132330827067665,0,0.45
1757394913.390259,0.425,-0.458,9.744,0.24414761927981193,3.6689345908056104,2.6182957393483712,0,0.45
1757394913.4169455,0.258,-0.435,9.715,0.2442405985908158,2.9800865848854814,2.621654135338346,0,0.45
1757394913.4449205,0.258,-0.435,9.715,0.2442405985908158,2.9800865848854814,2.621654135338346,0,0.45
1757394913.4717205,0.351,-0.277,9.693,0.2447967983859266,2.641165610996409,2.6230075187969923,0,0.4
1757394913.4989314,0.351,-0.277,9.693,0.2447967983859266,2.641165610996409,2.6230075187969923,0,0.4
1757394913.5264359,0.259,-0.434,9.617,0.24496261959735816,3.008330685999023,2.6251127819548867,0,0.4
1757394913.5547185,0.259,-0.434,9.617,0.24496261959735816,3.008330685999023,2.6251127819548867,0,0.4
1757394913.5821264,0.174,-0.657,9.733,0.24483287156752462,3.994452244293967,2.6188972431077695,0,0.4
1757394913.6087291,0.174,-0.657,9.733,0.24483287156752462,3.994452244293967,2.6188972431077695,0,0.4
1757394913.6358802,0.277,-0.409,9.693,0.2452205843725196,2.917377866039492,2.6150877192982454,0,0.4
1757394913.6624165,0.277,-0.409,9.693,0.2452205843725196,2.917377866039492,2.6150877192982454,0,0.4
1757394913.6892943,0.264,-0.271,9.596,0.2453595015482384,2.2577896244330518,2.614636591478696,0,0.4
1757394913.7155347,0.264,-0.271,9.596,0.2453595015482384,2.2577896244330518,2.614636591478696,0,0.4
1757394913.7430592,0.198,-0.34,9.798,0.24529438436295276,2.2995508206066915,2.6165413533834587,0,0.4
1757394913.7704167,0.198,-0.34,9.798,0.24529438436295276,2.2995508206066915,2.6165413533834587,0,0.4
1757394913.7983568,0.128,-0.251,9.647,0.24517400963397404,1.6729237173761102,2.6069674185463656,0,0.4
1757394913.8249583,0.128,-0.251,9.647,0.24517400963397404,1.6729237173761102,2.6069674185463656,0,0.4
1757394913.8514414,0.163,-0.229,9.642,0.24422410814659556,1.6698349684641753,2.5863659147869673,0,0.4
1757394913.8779633,0.163,-0.229,9.642,0.24422410814659556,1.6698349684641753,2.5863659147869673,0,0.4
1757394913.9044383,0.363,-0.159,9.639,0.24489645771223395,2.354317874163325,2.5894235588972427,0,0.4
1757394913.9316533,0.363,-0.159,9.639,0.24489645771223395,2.354317874163325,2.5894235588972427,0,0.4
1757394913.958029,0.204,-0.253,9.72,0.24498780581898355,1.91504049801082,2.5966917293233083,0,0.4
1757394913.9854603,0.204,-0.253,9.72,0.24498780581898355,1.91504049801082,2.5966917293233083,0,0.4
1757394914.0127065,0.08,-0.204,9.838,0.24492044626776263,1.2759598248665918,2.5941353383458647,0,0.4
1757394914.0400014,0.08,-0.204,9.838,0.24492044626776263,1.2759598248665918,2.5941353383458647,0,0.4
1757394914.0671055,0.227,-0.118,9.77,0.24517704827328352,1.5000081198443798,2.5985463659147867,0,0.4
1757394914.0935216,0.227,-0.118,9.77,0.24517704827328352,1.5000081198443798,2.5985463659147867,0,0.4
1757394914.1205497,0.156,-0.156,9.805,0.24529815531308016,1.288965686795617,2.5995488721804505,0,0.4
1757394914.1477385,0.156,-0.156,9.805,0.24529815531308016,1.288965686795617,2.5995488721804505,0,0.4
1757394914.175079,0.161,-0.084,9.699,0.2454015586747566,1.0726313962695282,2.59844611528822,0,0.4
1757394914.2015135,0.161,-0.084,9.699,0.2454015586747566,1.0726313962695282,2.59844611528822,0,0.4
1757394914.229018,0.194,-0.086,9.64,0.24558146306266684,1.2610609590221145,2.599949874686717,0,0.4
1757394914.2568247,0.194,-0.086,9.64,0.24558146306266684,1.2610609590221145,2.599949874686717,0,0.4
1757394914.2843142,0.186,-0.174,9.704,0.24574719225252603,1.5034908508113085,2.5871177944862156,0,0.45
1757394914.3117788,0.186,-0.174,9.704,0.24574719225252603,1.5034908508113085,2.5871177944862156,0,0.45
1757394914.3384516,0.157,-0.153,9.665,0.24538663879681796,1.2993590023460624,2.5801503759398496,0,0.4
1757394914.3652124,0.157,-0.153,9.665,0.24538663879681796,1.2993590023460624,2.5801503759398496,0,0.4
1757394914.3924782,0.157,-0.153,9.665,0.24538663879681796,1.2993590023460624,2.5801503759398496,0,0.4
1757394914.4192986,0.401,-0.219,9.524,0.24610343861880518,2.7466044817380455,2.591077694235589,0,0.45
1757394914.4456768,0.323,-0.29,9.621,0.2464913842307678,2.5833417079558556,2.593884711779449,0,0.45
1757394914.4728394,0.323,-0.29,9.621,0.2464913842307678,2.5833417079558556,2.593884711779449,0,0.45
1757394914.5002916,0.334,-0.352,9.58,0.24695005567928102,2.899644120021317,2.5941353383458647,0,0.45
1757394914.5283487,0.334,-0.352,9.58,0.24695005567928102,2.899644120021317,2.5941353383458647,0,0.45
1757394914.5558193,0.41,-0.466,9.589,0.24770199333069565,3.703553041401707,2.5914285714285716,0,0.45
1757394914.583213,0.41,-0.466,9.589,0.24770199333069565,3.703553041401707,2.5914285714285716,0,0.45
1757394914.6105075,0.447,-0.569,9.7,0.24834431239712335,4.266135620533122,2.584110275689223,0,0.45
1757394914.637808,0.447,-0.569,9.7,0.24834431239712335,4.266135620533122,2.584110275689223,0,0.45
1757394914.6658437,0.21,-0.438,9.822,0.2485289872429371,2.8312191688994126,2.5910776942355893,0,0.45
1757394914.6932888,0.21,-0.438,9.822,0.2485289872429371,2.8312191688994126,2.5910776942355893,0,0.45
1757394914.7196999,0.212,-0.297,9.706,0.24858474912994963,2.1530461326404873,2.584561403508772,0,0.45
1757394914.7469978,0.212,-0.297,9.706,0.24858474912994963,2.1530461326404873,2.584561403508772,0,0.45
1757394914.7742188,0.234,-0.422,9.796,0.2483578617640279,2.8200172478460486,2.5803508771929824,0,0.45
1757394914.8022451,0.234,-0.422,9.796,0.2483578617640279,2.8200172478460486,2.5803508771929824,0,0.45
1757394914.8297067,0.162,-0.286,9.928,0.24826797518004612,1.896245426360539,2.582305764411027,0,0.45
1757394914.8571098,0.162,-0.286,9.928,0.24826797518004612,1.896245426360539,2.582305764411027,0,0.45
1757394914.8854773,0.135,-0.185,9.791,0.2480623459939053,1.3399516923061998,2.580300751879699,0,0.45
1757394914.91271,0.135,-0.185,9.791,0.2480623459939053,1.3399516923061998,2.580300751879699,0,0.45
1757394914.940027,0.156,-0.296,9.817,0.2477004592244431,1.9520533759700727,2.575187969924812,0,0.45
1757394914.9665163,0.156,-0.296,9.817,0.2477004592244431,1.9520533759700727,2.575187969924812,0,0.45
1757394914.994473,0.079,-0.366,10.046,0.24755544328493362,2.13450825253478,2.577844611528822,0,0.45
1757394915.0220854,0.079,-0.366,10.046,0.24755544328493362,2.13450825253478,2.577844611528822,0,0.45
1757394915.0496802,0.213,-0.312,9.956,0.24755972511699073,2.1730074428918162,2.582706766917293,0,0.45
1757394915.0773628,0.213,-0.312,9.956,0.24755972511699073,2.1730074428918162,2.582706766917293,0,0.45
1757394915.1030614,0.12,-0.422,9.912,0.24747954966016888,2.5344006905909677,2.5843609022556393,0,0.45
1757394915.1305108,0.12,-0.422,9.912,0.24747954966016888,2.5344006905909677,2.5843609022556393,0,0.45
1757394915.1581717,0.233,-0.423,10.009,0.24768802958560596,2.7623347397427573,2.5876691729323307,0,0.45
1757394915.1850715,0.233,-0.423,10.009,0.24768802958560596,2.7623347397427573,2.5876691729323307,0,0.45
1757394915.2122898,0.257,-0.441,9.907,0.24789045967927045,2.9493445469029917,2.581002506265664,0,0.45
1757394915.2392673,0.257,-0.441,9.907,0.24789045967927045,2.9493445469029917,2.581002506265664,0,0.45
1757394915.2676325,0.181,-0.501,9.734,0.24754549581844545,3.1323870866420793,2.578395989974937,0,0.45
1757394915.2954686,0.181,-0.501,9.734,0.24754549581844545,3.1323870866420793,2.578395989974937,0,0.45
1757394915.3233595,0.387,-0.416,9.799,0.2481188122654145,3.3184742818116493,2.5825062656641604,0,0.45
1757394915.351391,0.387,-0.416,9.799,0.2481188122654145,3.3184742818116493,2.5825062656641604,0,0.45
1757394915.3786626,0.322,-0.392,9.742,0.24861871409851674,2.980868536693529,2.577593984962406,0,0.45
1757394915.4063253,0.322,-0.392,9.742,0.24861871409851674,2.980868536693529,2.577593984962406,0,0.45
1757394915.4329584,0.361,-0.35,9.609,0.2490099696799307,2.995401849324648,2.5777443609022557,0,0.45
1757394915.4596608,0.361,-0.35,9.609,0.2490099696799307,2.995401849324648,2.5777443609022557,0,0.45
1757394915.4871297,0.396,-0.428,9.809,0.24960945995694955,3.401939476246638,2.5722305764411026,0,0.45
1757394915.514588,0.396,-0.428,9.809,0.24960945995694955,3.401939476246638,2.5722305764411026,0,0.45
1757394915.5416963,0.38,-0.432,9.808,0.25032004014860654,3.3571790624960407,2.565764411027569,0,0.45
1757394915.5679896,0.38,-0.432,9.808,0.25032004014860654,3.3571790624960407,2.565764411027569,0,0.45
1757394915.5952458,0.34,-0.256,9.672,0.25071098898931415,2.5195829345262792,2.567418546365915,0,0.1
1757394915.6234028,0.34,-0.256,9.672,0.25071098898931415,2.5195829345262792,2.567418546365915,0,0.1
1757394915.6507447,0.356,-0.385,9.732,0.25116996237607714,3.0841560048770438,2.563358395989975,0,0.1
1757394915.6780233,0.356,-0.385,9.732,0.25116996237607714,3.0841560048770438,2.563358395989975,0,0.1
1757394915.7055626,0.212,-0.467,9.934,0.25135414756872426,2.9554130391643962,2.5586466165413535,0,0.1
1757394915.7330513,0.183,-0.455,9.762,0.25098866010240384,2.8760010785858188,2.5549373433583957,0,0.1
1757394915.7607877,0.183,-0.455,9.762,0.25098866010240384,2.8760010785858188,2.5549373433583957,0,0.1
1757394915.7886093,0.122,-0.393,9.492,0.25081283360306744,2.482354773576449,2.557644110275689,0,0.1
1757394915.8160355,0.122,-0.393,9.492,0.25081283360306744,2.482354773576449,2.557644110275689,0,0.1
1757394915.8433652,0.24,-0.404,9.609,0.2508339590246903,2.799715221410432,2.56265664160401,0,0.1
1757394915.8708286,0.24,-0.404,9.609,0.2508339590246903,2.799715221410432,2.56265664160401,0,0.1
1757394915.8983378,0.24,-0.404,9.609,0.2508339590246903,2.799715221410432,2.56265664160401,0,0.1
1757394915.9264286,0.247,-0.368,9.539,0.2508290154667119,2.6602030350332737,2.5543859649122806,0,0.1
1757394915.9539952,0.145,-0.455,9.486,0.2500493051380067,2.881960806304107,2.5553884711779444,0,0.45
1757394915.981475,0.145,-0.455,9.486,0.2500493051380067,2.881960806304107,2.5553884711779444,0,0.45
1757394916.0089111,0.183,-0.48,9.707,0.2489495029117351,3.0293071447053506,2.555488721804511,0,0.45
1757394916.0361872,0.183,-0.48,9.707,0.2489495029117351,3.0293071447053506,2.555488721804511,0,0.45
1757394916.063064,0.158,-0.454,9.625,0.24797790728208027,2.8591857213972833,2.5495739348370927,0,0.45
1757394916.08966,0.158,-0.454,9.625,0.24797790728208027,2.8591857213972833,2.5495739348370927,0,0.45
1757394916.1172183,0.277,-0.525,9.568,0.24783547970377445,3.5500527827308264,2.546516290726817,0,0.45
1757394916.1446419,0.277,-0.525,9.568,0.24783547970377445,3.5500527827308264,2.546516290726817,0,0.45
1757394916.1723628,0.188,-0.495,9.755,0.2467301055809769,3.106950824224713,2.5410025062656643,0,0.45
1757394916.2001886,0.188,-0.495,9.755,0.2467301055809769,3.106950824224713,2.5410025062656643,0,0.45
1757394916.2277484,0.341,-0.45,9.719,0.24684789851242403,3.3247532857463082,2.548421052631579,0,0.45
1757394916.255646,0.341,-0.45,9.719,0.24684789851242403,3.3247532857463082,2.548421052631579,0,0.45
1757394916.2827976,0.075,-0.345,9.648,0.24638932099423466,2.095741603065688,2.5526315789473686,0,0.45
1757394916.3093746,0.075,-0.345,9.648,0.24638932099423466,2.095741603065688,2.5526315789473686,0,0.45
1757394916.3362334,0.16,-0.318,9.717,0.2452886819647413,2.098097594431904,2.540802005012531,0,0.45
1757394916.363781,0.16,-0.318,9.717,0.2452886819647413,2.098097594431904,2.540802005012531,0,0.45
1757394916.3912642,0.06,-0.299,9.773,0.24515797967841063,1.7873007705098563,2.5384962406015035,0,0.45
1757394916.4186728,0.06,-0.299,9.773,0.24515797967841063,1.7873007705098563,2.5384962406015035,0,0.45
1757394916.4452972,0.052,-0.086,9.697,0.24465889008985553,0.5937865761048048,2.536340852130326,0,0.45
1757394916.472757,0.052,-0.086,9.697,0.24465889008985553,0.5937865761048048,2.536340852130326,0,0.45
1757394916.500244,0.015,-0.271,9.768,0.2442982705628511,1.5916178269914725,2.5290726817042604,0,0.45
1757394916.5277789,0.015,-0.271,9.768,0.2442982705628511,1.5916178269914725,2.5290726817042604,0,0.45
1757394916.55445,-0.02,-0.152,9.915,0.24327121695753487,0.8858622502819099,2.521904761904762,0,0.45
1757394916.5808861,-0.02,-0.152,9.915,0.24327121695753487,0.8858622502819099,2.521904761904762,0,0.45
1757394916.6075888,0.051,-0.197,9.781,0.24290973117600703,1.1918712359948052,2.521704260651629,0,0.45
1757394916.634676,0.051,-0.197,9.781,0.24290973117600703,1.1918712359948052,2.521704260651629,0,0.45
1757394916.6624172,0.027,-0.321,9.83,0.2423002218323376,1.8769367248209932,2.5148872180451125,0,0.45
1757394916.689968,0.027,-0.321,9.83,0.2423002218323376,1.8769367248209932,2.5148872180451125,0,0.45
