timestamp,ax,ay,az,rms,tilt_now,jerk,tilt_crosses,freq
1757393339.0905602,-0.041,-0.353,9.768,0.00205,2.0835789528601976,0.0020551378446115286,0,0.45
1757393339.1196373,-0.031,-0.363,9.771,0.0025700194551792795,2.135339968083923,0.002556390977443609,0,0.05
1757393339.1468487,-0.038,-0.368,9.783,0.0031960913628993775,2.1656817836710895,0.002907268170426065,0,0.05
1757393339.1724505,-0.037,-0.365,9.788,0.0036928985905383322,2.1465364569085046,0.002957393483709273,0,0.05
1757393339.1980505,-0.034,-0.364,9.78,0.004065402809070707,2.1407667332115388,0.0031077694235588965,0,0.05
1757393339.2245119,-0.037,-0.362,9.775,0.004466542286825459,2.131918929853675,0.0032581453634085203,0,0.05
1757393339.2498915,-0.055,-0.368,9.769,0.00524523593368306,2.181260576923724,0.0041604010025062645,0,0.05
1757393339.2752142,-0.06,-0.366,9.76,0.006042557405602366,2.176224363931392,0.004411027568922305,0,0.05
1757393339.3003178,-0.079,-0.363,9.747,0.007219071962517066,2.1827137295472907,0.005363408521303258,0,0.05
1757393339.3254735,-0.087,-0.358,9.752,0.008428374695040557,2.1635412350392964,0.005764411027568921,0,0.05
1757393339.3506184,-0.091,-0.35,9.763,0.009578100020358945,2.1213540607654187,0.005964912280701753,0,0.05
1757393339.3759828,-0.092,-0.343,9.772,0.010625441167311594,2.0812680911692842,0.006015037593984961,0,0.05
1757393339.4015985,-0.106,-0.335,9.757,0.011873921003611234,2.062450749264489,0.006716791979949873,0,0.05
1757393339.4271407,-0.105,-0.336,9.768,0.012982777052695621,2.0639611822840798,0.006766917293233081,0,0.05
1757393339.4525757,-0.106,-0.332,9.779,0.014022927654380879,2.0410848410124056,0.006817042606516289,0,0.05
1757393339.4783003,-0.106,-0.332,9.779,0.014022927654380879,2.0410848410124056,0.006817042606516289,0,0.05
1757393339.5037572,-0.127,-0.32,9.753,0.01539366752921473,2.021698673910895,0.007869674185463657,0,0.05
1757393339.5293612,-0.127,-0.32,9.753,0.01539366752921473,2.021698673910895,0.007869674185463657,0,0.05
1757393339.5543835,-0.132,-0.311,9.753,0.01674888055960756,1.9839888505129004,0.008120300751879698,0,0.05
1757393339.5793781,-0.132,-0.311,9.753,0.01674888055960756,1.9839888505129004,0.008120300751879698,0,0.05
1757393339.6044874,-0.161,-0.316,9.749,0.018582989533441598,2.0833954452569237,0.009573934837092731,0,0.05
1757393339.629729,-0.161,-0.316,9.749,0.018582989533441598,2.0833954452569237,0.009573934837092731,0,0.05
1757393339.6550457,-0.161,-0.316,9.749,0.018582989533441598,2.0833954452569237,0.009573934837092731,0,0.05
1757393339.6802251,-0.17,-0.308,9.748,0.020434713112740293,2.0668827318182426,0.010025062656641603,0,0.05
1757393339.7054935,-0.17,-0.308,9.748,0.020434713112740293,2.0668827318182426,0.010025062656641603,0,0.05
1757393339.7305868,-0.178,-0.308,9.749,0.02228873033620354,2.089765544489356,0.010426065162907266,0,0.05
1757393339.755954,-0.178,-0.308,9.749,0.02228873033620354,2.089765544489356,0.010426065162907266,0,0.05
1757393339.7816088,-0.196,-0.317,9.766,0.024348049203170262,2.1855167911283773,0.011328320802005012,0,0.05
1757393339.8073475,-0.196,-0.317,9.766,0.024348049203170262,2.1855167911283773,0.011328320802005012,0,0.05
1757393339.832837,-0.209,-0.3,9.769,0.026495848731452252,2.1434072982985812,0.011979949874686716,0,0.05
1757393339.8583293,-0.209,-0.3,9.769,0.026495848731452252,2.1434072982985812,0.011979949874686716,0,0.05
1757393339.8836098,-0.222,-0.3,9.763,0.02872699079263263,2.1891652698812334,0.012631578947368419,0,0.05
1757393339.9087806,-0.222,-0.3,9.763,0.02872699079263263,2.1891652698812334,0.012631578947368419,0,0.05
1757393339.9341235,-0.222,-0.302,9.767,0.030796915429958244,2.197697930136136,0.012631578947368419,0,0.05
1757393339.9597456,-0.222,-0.302,9.767,0.030796915429958244,2.197697930136136,0.012631578947368419,0,0.05
1757393339.9855976,-0.221,-0.308,9.785,0.03271929858661399,2.218608161880335,0.012681704260651626,0,0.05
1757393340.0113566,-0.221,-0.308,9.785,0.03271929858661399,2.218608161880335,0.012681704260651626,0,0.05
1757393340.036661,-0.231,-0.314,9.788,0.03469805470051599,2.2806548880782835,0.013182957393483706,0,0.05
1757393340.0621893,-0.231,-0.314,9.788,0.03469805470051599,2.2806548880782835,0.013182957393483706,0,0.05
1757393340.0880706,-0.231,-0.314,9.788,0.03469805470051599,2.2806548880782835,0.013182957393483706,0,0.05
1757393340.1134796,-0.232,-0.317,9.786,0.03658572125843633,2.298717345716558,0.01323308270676692,0,0.05
1757393340.1389787,-0.232,-0.317,9.786,0.03658572125843633,2.298717345716558,0.01323308270676692,0,0.05
1757393340.1643884,-0.245,-0.308,9.787,0.03858208781286985,2.3027638605060017,0.01388471177944862,0,0.05
1757393340.1900892,-0.245,-0.308,9.787,0.03858208781286985,2.3027638605060017,0.01388471177944862,0,0.05
1757393340.2159178,-0.256,-0.306,9.786,0.04064993849933847,2.334588369433525,0.01443609022556391,0,0.05
1757393340.2414339,-0.256,-0.306,9.786,0.04064993849933847,2.334588369433525,0.01443609022556391,0,0.05
1757393340.266655,-0.248,-0.303,9.785,0.04249914705026443,2.2914988854721563,0.014837092731829577,0,0.05
1757393340.2918446,-0.248,-0.303,9.785,0.04249914705026443,2.2914988854721563,0.014837092731829577,0,0.05
1757393340.3170745,-0.242,-0.304,9.793,0.044188092287402496,2.27215963470925,0.015137844611528827,0,0.05
1757393340.3429499,-0.242,-0.304,9.793,0.044188092287402496,2.27215963470925,0.015137844611528827,0,0.05
1757393340.3681455,-0.242,-0.304,9.793,0.044188092287402496,2.27215963470925,0.015137844611528827,0,0.05
1757393340.3936608,-0.24,-0.297,9.789,0.045788508383654516,2.2338619819423053,0.015238095238095243,0,0.05
1757393340.4188375,-0.24,-0.301,9.766,0.04733484445944658,2.257390450735972,0.015238095238095238,0,0.05
1757393340.4445755,-0.24,-0.301,9.766,0.04733484445944658,2.257390450735972,0.015238095238095238,0,0.05
1757393340.4696443,-0.238,-0.309,9.753,0.048807760653404295,2.290094189277276,0.015338345864661655,0,0.05
1757393340.4945974,-0.238,-0.309,9.753,0.048807760653404295,2.290094189277276,0.015338345864661655,0,0.05
1757393340.5201225,-0.238,-0.309,9.753,0.048807760653404295,2.290094189277276,0.015338345864661655,0,0.05
1757393340.5453558,-0.247,-0.314,9.761,0.05034600282048218,2.3437389452042963,0.015789473684210527,0,0.05
1757393340.5704243,-0.247,-0.314,9.761,0.05034600282048218,2.3437389452042963,0.015789473684210527,0,0.05
1757393340.5954857,-0.244,-0.318,9.761,0.05180308871100255,2.3514636577074537,0.015939849624060153,0,0.05
1757393340.6209526,-0.244,-0.318,9.761,0.05180308871100255,2.3514636577074537,0.015939849624060153,0,0.05
1757393340.6459746,-0.241,-0.305,9.738,0.05318611190903129,2.285931427675874,0.01609022556390978,0,0.05
1757393340.6713922,-0.241,-0.305,9.738,0.05318611190903129,2.285931427675874,0.01609022556390978,0,0.05
1757393340.6973002,-0.253,-0.312,9.743,0.054669781415330354,2.3608726739851966,0.016691729323308275,0,0.05
1757393340.722983,-0.253,-0.312,9.743,0.054669781415330354,2.3608726739851966,0.016691729323308275,0,0.05
1757393340.7479837,-0.253,-0.312,9.743,0.054669781415330354,2.3608726739851966,0.016691729323308275,0,0.05
1757393340.7729318,-0.253,-0.332,9.741,0.056114236161601626,2.453684324292259,0.016691729323308275,0,0.05
1757393340.7986038,-0.249,-0.343,9.752,0.057478778692661874,2.48868143715553,0.016892230576441108,0,0.05
1757393340.8238246,-0.249,-0.343,9.752,0.057478778692661874,2.48868143715553,0.016892230576441108,0,0.05
1757393340.8487818,-0.247,-0.333,9.759,0.05879058172870889,2.4327172808326383,0.016992481203007524,0,0.05
1757393340.873944,-0.247,-0.333,9.759,0.05879058172870889,2.4327172808326383,0.016992481203007524,0,0.05
1757393340.89948,-0.246,-0.332,9.748,0.06006348724474796,2.427251826769843,0.017042606516290734,0,0.05
1757393340.9247515,-0.246,-0.332,9.748,0.06006348724474796,2.427251826769843,0.017042606516290734,0,0.05
1757393340.9499571,-0.246,-0.332,9.748,0.06006348724474796,2.427251826769843,0.017042606516290734,0,0.05
1757393340.9753923,-0.239,-0.328,9.738,0.06124071358173417,2.386464647874778,0.017393483709273187,0,0.05
1757393341.0005872,-0.239,-0.328,9.738,0.06124071358173417,2.386464647874778,0.017393483709273187,0,0.05
1757393341.025815,-0.238,-0.329,9.74,0.06238617635341984,2.3872770888437964,0.017443609022556393,0,0.05
1757393341.0510745,-0.238,-0.329,9.74,0.06238617635341984,2.3872770888437964,0.017443609022556393,0,0.05
1757393341.0763707,-0.234,-0.331,9.753,0.06347381349816632,2.3799934919466073,0.017644110275689222,0,0.05
1757393341.101964,-0.234,-0.331,9.753,0.06347381349816632,2.3799934919466073,0.017644110275689222,0,0.05
1757393341.1274235,-0.245,-0.329,9.75,0.06464508875390303,2.40912956051923,0.01819548872180451,0,0.05
1757393341.1528103,-0.245,-0.329,9.75,0.06464508875390303,2.40912956051923,0.01819548872180451,0,0.05
1757393341.1781988,-0.25,-0.335,9.761,0.06584252045600927,2.452113545382164,0.01844611528822055,0,0.05
1757393341.2036211,-0.25,-0.335,9.761,0.06584252045600927,2.452113545382164,0.01844611528822055,0,0.05
1757393341.2288451,-0.251,-0.337,9.761,0.06702790463680033,2.465010147626611,0.018496240601503757,0,0.05
1757393341.254306,-0.251,-0.337,9.761,0.06702790463680033,2.465010147626611,0.018496240601503757,0,0.05
1757393341.279558,-0.261,-0.341,9.774,0.06828647377043275,2.5156713723023985,0.018997493734335836,0,0.05
1757393341.3047829,-0.261,-0.341,9.774,0.06828647377043275,2.5156713723023985,0.018997493734335836,0,0.05
1757393341.3299985,-0.261,-0.341,9.774,0.06828647377043275,2.5156713723023985,0.018997493734335836,0,0.05
1757393341.3553438,-0.249,-0.339,9.765,0.06941213870786579,2.466453454092763,0.019598997493734335,0,0.05
1757393341.3810077,-0.249,-0.339,9.765,0.06941213870786579,2.466453454092763,0.019598997493734335,0,0.05
1757393341.406203,-0.257,-0.344,9.774,0.0705915540273764,2.5155555588641496,0.02,0,0.05
1757393341.4310968,-0.257,-0.344,9.774,0.0705915540273764,2.5155555588641496,0.02,0,0.05
1757393341.456105,-0.25,-0.345,9.777,0.07168973078482022,2.4952298509394764,0.02035087719298246,0,0.05
1757393341.4816673,-0.25,-0.345,9.777,0.07168973078482022,2.4952298509394764,0.02035087719298246,0,0.05
1757393341.5067048,-0.248,-0.332,9.766,0.07275422668134134,2.429774745634137,0.020451127819548873,0,0.05
1757393341.532326,-0.248,-0.332,9.766,0.07275422668134134,2.429774745634137,0.020451127819548873,0,0.05
1757393341.5578353,-0.23,-0.341,9.775,0.07365750131520889,2.409492270456436,0.021353383458646614,0,0.05
1757393341.5830126,-0.23,-0.341,9.775,0.07365750131520889,2.409492270456436,0.021353383458646614,0,0.05
1757393341.6081429,-0.236,-0.346,9.772,0.07459669898862818,2.4541613542262546,0.021654135338345863,0,0.05
1757393341.6332817,-0.236,-0.346,9.772,0.07459669898862818,2.4541613542262546,0.021654135338345863,0,0.05
1757393341.658318,-0.241,-0.341,9.775,0.07556368175254564,2.4460640636806104,0.021904761904761903,0,0.05
1757393341.6835432,-0.241,-0.341,9.775,0.07556368175254564,2.4460640636806104,0.021904761904761903,0,0.05
1757393341.7088509,-0.239,-0.346,9.769,0.07650276138807018,2.4648532033515362,0.022005012531328316,0,0.05
1757393341.7340693,-0.239,-0.346,9.769,0.07650276138807018,2.4648532033515362,0.022005012531328316,0,0.05
1757393341.7590518,-0.239,-0.346,9.769,0.07650276138807018,2.4648532033515362,0.022005012531328316,0,0.05
1757393341.7841237,-0.233,-0.333,9.761,0.0773847207141048,2.3842601319184094,0.02230576441102757,0,0.05
1757393341.8093016,-0.233,-0.333,9.761,0.0773847207141048,2.3842601319184094,0.02230576441102757,0,0.05
1757393341.8347569,-0.229,-0.327,9.742,0.07822721713061254,2.346577362390612,0.022506265664160394,0,0.05
1757393341.8600125,-0.229,-0.327,9.742,0.07822721713061254,2.346577362390612,0.022506265664160394,0,0.05
1757393341.8850803,-0.222,-0.341,9.746,0.07901080622294648,2.3907179742810256,0.02285714285714286,0,0.05
1757393341.9105809,-0.222,-0.341,9.746,0.07901080622294648,2.3907179742810256,0.02285714285714286,0,0.05
1757393341.9359016,-0.2,-0.332,9.748,0.07964111689322294,2.276921555846368,0.023959899749373435,0,0.05
1757393341.9611182,-0.2,-0.332,9.748,0.07964111689322294,2.276921555846368,0.023959899749373435,0,0.05
1757393341.9864297,-0.196,-0.337,9.744,0.08024180643529905,2.2911532962832046,0.024160401002506268,0,0.05
1757393342.0115964,-0.196,-0.337,9.744,0.08024180643529905,2.2911532962832046,0.024160401002506268,0,0.05
1757393342.0365872,-0.191,-0.343,9.746,0.08080810602903647,2.306774127608867,0.024411027568922307,0,0.05
1757393342.06177,-0.191,-0.343,9.746,0.08080810602903647,2.306774127608867,0.024411027568922307,0,0.05
1757393342.087212,-0.18,-0.352,9.746,0.08130774870822584,2.32296796152759,0.024962406015037596,0,0.05
1757393342.1127274,-0.18,-0.352,9.746,0.08130774870822584,2.32296796152759,0.024962406015037596,0,0.05
1757393342.1379666,-0.18,-0.352,9.746,0.08130774870822584,2.32296796152759,0.024962406015037596,0,0.05
1757393342.1640036,-0.177,-0.345,9.751,0.08178797283219581,2.2772054160074453,0.025112781954887222,0,0.05
1757393342.1911056,-0.177,-0.345,9.751,0.08178797283219581,2.2772054160074453,0.025112781954887222,0,0.05
1757393342.2182107,-0.172,-0.343,9.747,0.0822388746275142,2.2543951809541727,0.02536340852130326,0,0.05
1757393342.2458608,-0.172,-0.343,9.747,0.0822388746275142,2.2543951809541727,0.02536340852130326,0,0.05
1757393342.2728264,-0.171,-0.341,9.745,0.08268213228987265,2.2417306493132636,0.025413533834586468,0,0.05
1757393342.3003042,-0.171,-0.341,9.745,0.08268213228987265,2.2417306493132636,0.025413533834586468,0,0.05
1757393342.3272114,-0.172,-0.348,9.75,0.083128184149541,2.2799642384607526,0.025463659147869674,0,0.05
1757393342.353968,-0.172,-0.348,9.75,0.083128184149541,2.2799642384607526,0.025463659147869674,0,0.05
1757393342.379789,-0.169,-0.347,9.757,0.08355655270533843,2.265318949612595,0.025614035087719294,0,0.05
1757393342.4053047,-0.169,-0.347,9.757,0.08355655270533843,2.265318949612595,0.025614035087719294,0,0.05
1757393342.432215,0.056,-0.384,9.76,0.08360345387602118,2.2769058051154007,0.0368922305764411,0,0.05
1757393342.4604201,0.056,-0.384,9.76,0.08360345387602118,2.2769058051154007,0.0368922305764411,0,0.05
1757393342.4869566,0.204,-0.399,9.726,0.08422337858338384,2.638041139775879,0.04431077694235589,0,0.05
1757393342.5145621,0.204,-0.399,9.726,0.08422337858338384,2.638041139775879,0.04431077694235589,0,0.05
1757393342.5424414,0.162,-0.157,9.765,0.08461198201200584,1.3234336251483418,0.04641604010025062,0,0.05
1757393342.569803,0.162,-0.157,9.765,0.08461198201200584,1.3234336251483418,0.04641604010025062,0,0.05
1757393342.5967367,-0.072,-0.138,9.854,0.08468853228153148,0.904966994709175,0.0581453634085213,0,0.05
1757393342.6236231,-0.072,-0.138,9.854,0.08468853228153148,0.904966994709175,0.0581453634085213,0,0.05
1757393342.6503613,0.203,-0.308,9.82,0.08529460709798715,2.151260364936611,0.07192982456140351,0,0.05
1757393342.6774886,0.203,-0.308,9.82,0.08529460709798715,2.151260364936611,0.07192982456140351,0,0.05
1757393342.7041678,0.061,-0.35,9.822,0.08534912126085423,2.0715680858284595,0.07904761904761905,0,0.05
1757393342.730582,0.061,-0.35,9.822,0.08534912126085423,2.0715680858284595,0.07904761904761905,0,0.05
1757393342.7567503,-0.043,-0.397,9.79,0.08537619691693932,2.335728833164134,0.08426065162907267,0,0.05
1757393342.7842796,-0.043,-0.397,9.79,0.08537619691693932,2.335728833164134,0.08426065162907267,0,0.05
1757393342.8110905,0.025,-0.268,9.654,0.0853853471035868,1.5970519384164596,0.08766917293233081,0,0.05
1757393342.8383274,0.025,-0.268,9.654,0.0853853471035868,1.5970519384164596,0.08766917293233081,0,0.05
1757393342.8651824,0.025,-0.27,9.652,0.08539449630977397,1.6091948088893102,0.08766917293233081,0,0.05
1757393342.8920677,0.025,-0.27,9.652,0.08539449630977397,1.6091948088893102,0.08766917293233081,0,0.05
1757393342.9189112,-0.016,-0.402,9.74,0.08539824354165605,2.3653021849023883,0.08972431077694235,0,0.05
1757393342.945704,-0.016,-0.402,9.74,0.08539824354165605,2.3653021849023883,0.08972431077694235,0,0.05
1757393342.9721978,-0.066,-0.342,9.73,0.0854619798506915,2.050173354617535,0.09223057644110275,0,0.05
1757393342.9987864,-0.066,-0.342,9.73,0.0854619798506915,2.050173354617535,0.09223057644110275,0,0.05
1757393343.0257761,-0.085,-0.405,9.757,0.08556759024303535,2.428630295554801,0.09318295739348371,0,0.05
1757393343.052804,-0.085,-0.405,9.757,0.08556759024303535,2.428630295554801,0.09318295739348371,0,0.05
1757393343.079847,-0.075,-0.453,9.903,0.08564972270824933,2.6546987492650613,0.0936842105263158,0,0.05
1757393343.1068819,-0.075,-0.453,9.903,0.08564972270824933,2.6546987492650613,0.0936842105263158,0,0.05
1757393343.133267,-0.101,-0.437,9.952,0.08579847026608341,2.58047759164959,0.09498746867167922,0,0.05
1757393343.1583657,-0.101,-0.437,9.952,0.08579847026608341,2.58047759164959,0.09498746867167922,0,0.05
1757393343.1843696,-0.177,-0.425,9.892,0.0862536955730014,2.6646860954400235,0.09879699248120301,0,0.05
1757393343.2116811,-0.177,-0.425,9.892,0.0862536955730014,2.6646860954400235,0.09879699248120301,0,0.05
1757393343.2383177,-0.18,-0.529,9.955,0.08672196953483009,3.2127049561058216,0.09894736842105264,0,0.05
1757393343.26535,-0.18,-0.529,9.955,0.08672196953483009,3.2127049561058216,0.09894736842105264,0,0.05
1757393343.2926402,-0.212,-0.244,9.807,0.08736738521897058,1.8877559640706476,0.1005513784461153,0,0.05
1757393343.3200238,-0.212,-0.244,9.807,0.08736738521897058,1.8877559640706476,0.1005513784461153,0,0.05
1757393343.3471816,-0.003,-0.312,9.714,0.08736751398546258,1.8397123161854534,0.11102756892230578,0,0.05
1757393343.3740277,-0.003,-0.312,9.714,0.08736751398546258,1.8397123161854534,0.11102756892230578,0,0.05
1757393343.4002917,-0.319,-0.493,9.7,0.08881151389318842,3.4642653328033326,0.12686716791979952,0,0.05
1757393343.4273632,-0.319,-0.493,9.7,0.08881151389318842,3.4642653328033326,0.12686716791979952,0,0.05
1757393343.4538534,-0.253,-0.411,9.602,0.08970790098982363,2.8774534735263444,0.13017543859649125,0,0.05
1757393343.4809017,-0.253,-0.411,9.602,0.08970790098982363,2.8774534735263444,0.13017543859649125,0,0.05
1757393343.508288,-0.183,-0.476,9.747,0.09017333308689437,2.9949998766566965,0.1336842105263158,0,0.05
1757393343.5356607,-0.183,-0.476,9.747,0.09017333308689437,2.9949998766566965,0.1336842105263158,0,0.05
1757393343.5625463,-0.133,-0.493,9.675,0.09041820889621735,3.0211415087488898,0.1361904761904762,0,0.05
1757393343.5896266,-0.133,-0.493,9.675,0.09041820889621735,3.0211415087488898,0.1361904761904762,0,0.05
1757393343.6164358,-0.067,-0.481,9.644,0.09048024646297113,2.8828143395288715,0.1394987468671679,0,0.05
1757393343.6427274,-0.067,-0.481,9.644,0.09048024646297113,2.8828143395288715,0.1394987468671679,0,0.05
1757393343.6689327,-0.145,-0.317,9.734,0.09077024567555163,2.0509680604255554,0.14340852130325815,0,0.05
1757393343.6958807,-0.145,-0.317,9.734,0.09077024567555163,2.0509680604255554,0.14340852130325815,0,0.05
1757393343.7228365,-0.106,-0.237,9.751,0.09092484533943404,1.5251653783931203,0.14536340852130325,0,0.05
1757393343.7501843,-0.106,-0.237,9.751,0.09092484533943404,1.5251653783931203,0.14536340852130325,0,0.05
1757393343.7775426,0.011,-0.214,9.732,0.09092650878594206,1.2613543712740494,0.1512280701754386,0,0.05
1757393343.8043804,0.011,-0.214,9.732,0.09092650878594206,1.2613543712740494,0.1512280701754386,0,0.05
1757393343.8312662,-0.256,-0.114,9.858,0.09182303632531436,1.628321671477947,0.16461152882205515,0,0.05
1757393343.8581767,-0.256,-0.114,9.858,0.09182303632531436,1.628321671477947,0.16461152882205515,0,0.05
1757393343.8844013,-0.072,-0.103,9.835,0.09189357975397411,0.7320773179217367,0.17383458646616545,0,0.05
1757393343.911844,-0.072,-0.103,9.835,0.09189357975397411,0.7320773179217367,0.17383458646616545,0,0.05
1757393343.9389546,-0.224,-0.11,9.887,0.09257359234684587,1.4458600311598928,0.1814536340852131,0,0.05
1757393343.966251,-0.224,-0.11,9.887,0.09257359234684587,1.4458600311598928,0.1814536340852131,0,0.05
1757393343.9931664,-0.148,-0.158,9.736,0.09286888607063186,1.2738219122725427,0.18526315789473688,0,0.05
1757393344.0208917,-0.148,-0.158,9.736,0.09286888607063186,1.2738219122725427,0.18526315789473688,0,0.05
1757393344.0483742,-0.159,-0.165,9.797,0.09320854306339092,1.3398457944833513,0.18581453634085215,0,0.05
1757393344.0757303,-0.159,-0.165,9.797,0.09320854306339092,1.3398457944833513,0.18581453634085215,0,0.05
1757393344.1029453,-0.277,-0.218,9.911,0.09423192134303535,2.0369275329553003,0.19172932330827064,0,0.05
1757393344.1292229,-0.277,-0.218,9.911,0.09423192134303535,2.0369275329553003,0.19172932330827064,0,0.05
1757393344.1559637,-0.344,-0.115,9.933,0.09578880414745765,2.091283251465855,0.1950877192982456,0,0.05
1757393344.1835127,-0.344,-0.115,9.933,0.09578880414745765,2.091283251465855,0.1950877192982456,0,0.05
1757393344.2107654,-0.262,-0.148,9.99,0.09668042718151383,1.7253026233470552,0.19919799498746865,0,0.05
1757393344.237888,-0.262,-0.148,9.99,0.09668042718151383,1.7253026233470552,0.19919799498746865,0,0.05
1757393344.264943,-0.272,-0.24,9.971,0.09763229486189497,2.0835022370812846,0.19969924812030074,0,0.05
1757393344.2922175,-0.272,-0.24,9.971,0.09763229486189497,2.0835022370812846,0.19969924812030074,0,0.05
1757393344.319356,-0.376,-0.043,9.887,0.09942587691340721,2.192075672523123,0.20491228070175435,0,0.05
1757393344.3465786,-0.376,-0.043,9.887,0.09942587691340721,2.192075672523123,0.20491228070175435,0,0.05
1757393344.3738217,-0.219,-0.121,9.906,0.10002703384585589,1.4468585819477902,0.21278195488721802,0,0.05
1757393344.4006987,-0.219,-0.121,9.906,0.10002703384585589,1.4468585819477902,0.21278195488721802,0,0.05
1757393344.4275687,-0.456,-0.182,9.925,0.10259262887751733,2.832049266346034,0.2246616541353383,0,0.05
1757393344.454892,-0.456,-0.182,9.925,0.10259262887751733,2.832049266346034,0.2246616541353383,0,0.05
1757393344.481741,-0.315,-0.046,9.995,0.10379455669735288,1.8242553906269245,0.2317293233082707,0,0.05
1757393344.5089118,-0.315,-0.046,9.995,0.10379455669735288,1.8242553906269245,0.2317293233082707,0,0.05
1757393344.5342,-0.269,-0.007,10.011,0.10466237385039573,1.539713379117574,0.2340350877192982,0,0.05
1757393344.5607262,-0.269,-0.007,10.011,0.10466237385039573,1.539713379117574,0.2340350877192982,0,0.05
1757393344.5861034,-0.269,-0.007,10.011,0.10466237385039573,1.539713379117574,0.2340350877192982,0,0.05
1757393344.613012,-0.227,-0.142,9.97,0.10527599441468125,1.5383723725851493,0.23614035087719296,0,0.05
1757393344.640145,-0.279,-0.228,9.869,0.10619622168420118,2.09091220161178,0.23874686716791976,0,0.05
1757393344.6662567,-0.279,-0.228,9.869,0.10619622168420118,2.09091220161178,0.23874686716791976,0,0.05
1757393344.693135,-0.02,-0.089,9.775,0.10620092984527019,0.5346640958429243,0.2517293233082707,0,0.05
1757393344.7203434,-0.02,-0.089,9.775,0.10620092984527019,0.5346640958429243,0.2517293233082707,0,0.05
1757393344.746424,-0.087,-0.279,9.78,0.10628998071314154,1.71162617635264,0.25508771929824564,0,0.05
1757393344.773509,-0.087,-0.279,9.78,0.10628998071314154,1.71162617635264,0.25508771929824564,0,0.05
1757393344.8002498,-0.078,-0.312,9.762,0.10636150619467553,1.886886812386368,0.2555388471177945,0,0.05
1757393344.8274114,-0.078,-0.312,9.762,0.10636150619467553,1.886886812386368,0.2555388471177945,0,0.05
1757393344.8525803,-0.103,-0.258,9.82,0.1064861141182267,1.6204216008705827,0.2567919799498748,0,0.05
1757393344.8792255,-0.103,-0.258,9.82,0.1064861141182267,1.6204216008705827,0.2567919799498748,0,0.05
1757393344.905879,0.124,-0.213,9.695,0.10666645442687218,1.4562520710744367,0.2681704260651629,0,0.05
1757393344.9330807,0.124,-0.213,9.695,0.10666645442687218,1.4562520710744367,0.2681704260651629,0,0.05
1757393344.9595897,-0.059,-0.294,9.797,0.10670723967941445,1.7531330021999032,0.27734335839599,0,0.05
1757393344.986883,-0.059,-0.294,9.797,0.10670723967941445,1.7531330021999032,0.27734335839599,0,0.05
1757393345.01356,0.014,-0.276,9.708,0.1067095356563789,1.63058212507649,0.28100250626566414,0,0.05
1757393345.0404859,0.014,-0.276,9.708,0.1067095356563789,1.63058212507649,0.28100250626566414,0,0.05
1757393345.0673144,-0.031,-0.285,9.467,0.1067207922571792,1.7345086875939602,0.28325814536340854,0,0.05
1757393345.0938504,-0.031,-0.285,9.467,0.1067207922571792,1.7345086875939602,0.28325814536340854,0,0.05
1757393345.1207407,-0.034,-0.209,9.519,0.10673433140278718,1.27431841961058,0.2834085213032581,0,0.05
1757393345.1474626,-0.034,-0.209,9.519,0.10673433140278718,1.27431841961058,0.2834085213032581,0,0.05
1757393345.1745527,0.047,-0.329,9.622,0.1067601985760611,1.9781878353162268,0.287468671679198,0,0.05
1757393345.2010295,0.047,-0.329,9.622,0.1067601985760611,1.9781878353162268,0.287468671679198,0,0.05
1757393345.2284288,-0.168,-0.411,9.776,0.10709014894004024,2.600494648580525,0.2982456140350877,0,0.05
1757393345.255795,-0.168,-0.411,9.776,0.10709014894004024,2.600494648580525,0.2982456140350877,0,0.05
1757393345.2824728,-0.147,-0.366,9.699,0.10734208168281441,2.3286938318325396,0.2992982456140351,0,0.05
1757393345.308662,-0.147,-0.366,9.699,0.10734208168281441,2.3286938318325396,0.2992982456140351,0,0.05
1757393345.3351207,-0.123,-0.336,9.795,0.10751811475281735,2.0920522248132585,0.3005012531328321,0,0.05
1757393345.3617039,-0.123,-0.336,9.795,0.10751811475281735,2.0920522248132585,0.3005012531328321,0,0.05
1757393345.388203,-0.072,-0.435,9.798,0.10757836678440512,2.576620617031108,0.3030576441102757,0,0.05
1757393345.415112,-0.072,-0.435,9.798,0.10757836678440512,2.576620617031108,0.3030576441102757,0,0.05
1757393345.4424248,-0.308,-0.492,9.874,0.10867504313318675,3.3643295351632676,0.31488721804511277,0,0.05
1757393345.4697804,-0.308,-0.492,9.874,0.10867504313318675,3.3643295351632676,0.31488721804511277,0,0.05
1757393345.4968157,-0.091,-0.453,9.876,0.10877025098803442,2.6786363118211707,0.3257644110275689,0,0.05
1757393345.5239115,-0.091,-0.453,9.876,0.10877025098803442,2.6786363118211707,0.3257644110275689,0,0.05
1757393345.5508668,-0.092,-0.425,9.935,0.10886747677796156,2.506171549816382,0.3258145363408521,0,0.05
1757393345.5779223,-0.092,-0.425,9.935,0.10886747677796156,2.506171549816382,0.3258145363408521,0,0.05
1757393345.6047704,-0.154,-0.479,9.942,0.1091394406252845,2.897166694414665,0.328922305764411,0,0.05
1757393345.6312673,-0.154,-0.479,9.942,0.1091394406252845,2.897166694414665,0.328922305764411,0,0.05
1757393345.6581068,-0.054,-0.43,10.039,0.10917283315917015,2.4718886657823695,0.33393483709273186,0,0.05
1757393345.684942,-0.054,-0.43,10.039,0.10917283315917015,2.4718886657823695,0.33393483709273186,0,0.05
1757393345.712493,-0.111,-0.375,9.995,0.10931381431456869,2.2407190629599545,0.3367919799498746,0,0.05
1757393345.7398443,-0.111,-0.375,9.995,0.10931381431456869,2.2407190629599545,0.3367919799498746,0,0.05
1757393345.7661476,-0.053,-0.368,9.906,0.1093459304226728,2.149445170089375,0.33969924812030067,0,0.05
1757393345.7929907,-0.053,-0.368,9.906,0.1093459304226728,2.149445170089375,0.33969924812030067,0,0.05
1757393345.8197038,-0.052,-0.376,9.998,0.1093768371274284,2.174216661396559,0.3397493734335839,0,0.05
1757393345.8462176,-0.052,-0.376,9.998,0.1093768371274284,2.174216661396559,0.3397493734335839,0,0.05
1757393345.8725247,-0.052,-0.376,9.998,0.1093768371274284,2.174216661396559,0.3397493734335839,0,0.05
1757393345.8986177,-0.041,-0.294,9.938,0.10939604654648175,1.7108990388452283,0.34030075187969916,0,0.05
1757393345.925564,-0.207,-0.543,10.064,0.10988456443013277,3.304717000112443,0.3486215538847117,0,0.05
1757393345.9533348,-0.207,-0.543,10.064,0.10988456443013277,3.304717000112443,0.3486215538847117,0,0.05
1757393345.9807293,-0.12,-0.375,9.974,0.11004825078119143,2.26062589213845,0.3529824561403509,0,0.05
1757393346.007981,-0.12,-0.375,9.974,0.11004825078119143,2.26062589213845,0.3529824561403509,0,0.05
1757393346.0346365,-0.035,-0.561,10.1,0.11006216425275309,3.1853702779820274,0.3572431077694235,0,0.05
1757393346.061305,-0.035,-0.561,10.1,0.11006216425275309,3.1853702779820274,0.3572431077694235,0,0.05
1757393346.0884619,-0.13,-0.531,9.942,0.11025393417016918,3.147359560369885,0.36200501253132833,0,0.05
1757393346.1150014,-0.13,-0.531,9.942,0.11025393417016918,3.147359560369885,0.36200501253132833,0,0.05
1757393346.1424325,-0.041,-0.578,9.941,0.11027299080010482,3.3359469574411653,0.36646616541353383,0,0.05
1757393346.1699035,-0.041,-0.578,9.941,0.11027299080010482,3.3359469574411653,0.36646616541353383,0,0.05
1757393346.197171,-0.1,-0.469,10.011,0.11038628764479762,2.742460768755317,0.3694235588972431,0,0.05
1757393346.2244296,-0.1,-0.469,10.011,0.11038628764479762,2.742460768755317,0.3694235588972431,0,0.05
1757393346.2509398,-0.154,-0.35,9.85,0.110654518660559,2.223134961100237,0.3721303258145363,0,0.05
1757393346.2783062,-0.154,-0.35,9.85,0.110654518660559,2.223134961100237,0.3721303258145363,0,0.05
1757393346.3056114,-0.194,-0.382,9.843,0.11107885712411701,2.4923562649366655,0.3741353383458647,0,0.05
1757393346.3323162,-0.194,-0.382,9.843,0.11107885712411701,2.4923562649366655,0.3741353383458647,0,0.05
1757393346.3595228,0.037,-0.361,9.685,0.11109426177800544,2.1458348103349,0.3857142857142858,0,0.05
1757393346.3869877,0.037,-0.361,9.685,0.11109426177800544,2.1458348103349,0.3857142857142858,0,0.05
1757393346.4140706,-0.103,-0.349,9.686,0.11121356706805155,2.151465433259343,0.39273182957393493,0,0.05
1757393346.4412146,-0.103,-0.349,9.686,0.11121356706805155,2.151465433259343,0.39273182957393493,0,0.05
1757393346.4683783,-0.049,-0.492,9.593,0.11124055016045184,2.9504781920051597,0.3954385964912282,0,0.05
1757393346.4952304,-0.049,-0.492,9.593,0.11124055016045184,2.9504781920051597,0.3954385964912282,0,0.05
1757393346.5216906,0.054,-0.489,9.672,0.11127331216423819,2.9118774444599462,0.4006015037593986,0,0.05
1757393346.548678,0.054,-0.489,9.672,0.11127331216423819,2.9118774444599462,0.4006015037593986,0,0.05
1757393346.5747638,-0.008,-0.352,9.712,0.11127403111238489,2.0762450061423157,0.4037092731829575,0,0.05
1757393346.601451,-0.008,-0.352,9.712,0.11127403111238489,2.0762450061423157,0.4037092731829575,0,0.05
1757393346.6283782,0.009,-0.398,9.73,0.11127494102447326,2.3429429274939317,0.40456140350877207,0,0.05
1757393346.655357,0.009,-0.398,9.73,0.11127494102447326,2.3429429274939317,0.40456140350877207,0,0.05
1757393346.682248,0.03,-0.597,9.848,0.11128505065820835,3.4734741525890316,0.4056140350877193,0,0.05
1757393346.7097282,0.03,-0.597,9.848,0.11128505065820835,3.4734741525890316,0.4056140350877193,0,0.05
1757393346.7367978,0.035,-0.527,9.76,0.11129880951744273,3.097531392819376,0.4058646616541353,0,0.05
1757393346.7638125,0.035,-0.527,9.76,0.11129880951744273,3.097531392819376,0.4058646616541353,0,0.05
1757393346.7906015,0.125,-0.483,9.722,0.11147415619774835,2.9377231771172734,0.41037593984962406,0,0.05
1757393346.8176627,0.125,-0.483,9.722,0.11147415619774835,2.9377231771172734,0.41037593984962406,0,0.05
1757393346.8436956,0.182,-0.557,9.795,0.11184497083016295,3.4236074065650857,0.4132330827067669,0,0.05
1757393346.869684,0.182,-0.557,9.795,0.11184497083016295,3.4236074065650857,0.4132330827067669,0,0.05
1757393346.8958902,0.072,-0.581,9.911,0.11190289317082021,3.380542163172357,0.41874686716791976,0,0.05
1757393346.923292,0.072,-0.581,9.911,0.11190289317082021,3.380542163172357,0.41874686716791976,0,0.05
1757393346.9503503,-0.027,-0.39,9.813,0.11191103609564161,2.281361572633204,0.42370927318295726,0,0.05
1757393346.9772973,-0.027,-0.39,9.813,0.11191103609564161,2.281361572633204,0.42370927318295726,0,0.05
1757393347.004338,0.015,-0.418,9.931,0.11191354922439016,2.4117305444211907,0.425814536340852,0,0.05
1757393347.0315356,0.015,-0.418,9.931,0.11191354922439016,2.4117305444211907,0.425814536340852,0,0.05
1757393347.0585153,0.044,-0.353,9.823,0.11193517096962867,2.074011868201277,0.4272681704260651,0,0.05
1757393347.0855174,0.044,-0.353,9.823,0.11193517096962867,2.074011868201277,0.4272681704260651,0,0.05
1757393347.1118386,-0.063,-0.252,9.615,0.11197948472823045,1.547507388789164,0.4326315789473683,0,0.05
1757393347.1389124,-0.063,-0.252,9.615,0.11197948472823045,1.547507388789164,0.4326315789473683,0,0.05
1757393347.1659107,0.016,-0.308,9.664,0.11198234235807,1.827907669377897,0.4365914786967418,0,0.05
1757393347.1928935,0.016,-0.308,9.664,0.11198234235807,1.827907669377897,0.4365914786967418,0,0.05
1757393347.2198315,0.026,-0.309,9.768,0.11198988793636683,1.8182835320963306,0.43709273182957387,0,0.05
1757393347.2475607,0.026,-0.309,9.768,0.11198988793636683,1.8182835320963306,0.43709273182957387,0,0.05
1757393347.2747447,-0.138,-0.236,9.757,0.11220225042306414,1.6049786481317705,0.44531328320802005,0,0.05
1757393347.3018894,-0.138,-0.236,9.757,0.11220225042306414,1.6049786481317705,0.44531328320802005,0,0.05
1757393347.3284242,-0.087,-0.231,9.695,0.11228654193624453,1.4584669499912715,0.44786967418546364,0,0.05
1757393347.355132,-0.087,-0.231,9.695,0.11228654193624453,1.4584669499912715,0.44786967418546364,0,0.05
1757393347.3815236,-0.152,-0.224,9.771,0.11254344716597231,1.5869574115805956,0.45112781954887216,0,0.05
1757393347.4077606,-0.152,-0.224,9.771,0.11254344716597231,1.5869574115805956,0.45112781954887216,0,0.05
1757393347.43477,-0.152,-0.224,9.771,0.11254344716597231,1.5869574115805956,0.45112781954887216,0,0.05
1757393347.461837,-0.036,-0.202,9.638,0.11255784068646661,1.2195824356370109,0.4569423558897243,0,0.05
1757393347.4893546,-0.099,-0.277,9.608,0.1126666321498961,1.7536275105483967,0.4601002506265664,0,0.05
1757393347.5164104,-0.099,-0.277,9.608,0.1126666321498961,1.7536275105483967,0.4601002506265664,0,0.05
1757393347.5435169,-0.121,-0.328,9.643,0.11282895240141158,2.076348815445925,0.46120300751879695,0,0.05
1757393347.569797,-0.121,-0.328,9.643,0.11282895240141158,2.076348815445925,0.46120300751879695,0,0.05
1757393347.5966957,-0.072,-0.308,9.537,0.11288636985925271,1.8995725837991397,0.46365914786967416,0,0.05
1757393347.6237326,-0.072,-0.308,9.537,0.11288636985925271,1.8995725837991397,0.46365914786967416,0,0.05
1757393347.6500137,-0.116,-0.338,9.554,0.11303527104404183,2.1420541211020705,0.4658646616541353,0,0.05
1757393347.6770864,-0.116,-0.338,9.554,0.11303527104404183,2.1420541211020705,0.4658646616541353,0,0.05
1757393347.7041633,-0.049,-0.38,9.616,0.11306181937329683,2.2817234960967325,0.4692230576441102,0,0.05
1757393347.7309752,-0.049,-0.38,9.616,0.11306181937329683,2.2817234960967325,0.4692230576441102,0,0.05
1757393347.7579834,-0.214,-0.394,9.711,0.11356700665246046,2.643522167136794,0.47749373433583947,0,0.05
1757393347.7846727,-0.214,-0.394,9.711,0.11356700665246046,2.643522167136794,0.47749373433583947,0,0.05
1757393347.8118408,-0.033,-0.428,9.546,0.11357899233573081,2.5747767085498414,0.48656641604010015,0,0.05
1757393347.839115,-0.033,-0.428,9.546,0.11357899233573081,2.5747767085498414,0.48656641604010015,0,0.05
1757393347.8660877,-0.037,-0.424,9.66,0.11359405794318646,2.5227714006172426,0.4867669172932331,0,0.05
1757393347.8931966,-0.037,-0.424,9.66,0.11359405794318646,2.5227714006172426,0.4867669172932331,0,0.05
1757393347.920338,0.013,-0.387,9.667,0.11359591762030888,2.293795322979735,0.48927318295739347,0,0.05
1757393347.9475398,0.013,-0.387,9.667,0.11359591762030888,2.293795322979735,0.48927318295739347,0,0.05
1757393347.9736476,-0.124,-0.392,9.764,0.1137649880235567,2.4111993492283164,0.49614035087719305,0,0.05
1757393348.0015168,-0.124,-0.392,9.764,0.1137649880235567,2.4111993492283164,0.49614035087719305,0,0.05
1757393348.029045,0.056,-0.563,9.68,0.11379943980529957,3.345027486244994,0.5051629072681705,0,0.05
1757393348.0564082,0.056,-0.563,9.68,0.11379943980529957,3.345027486244994,0.5051629072681705,0,0.05
1757393348.083562,-0.05,-0.602,9.711,0.1138268970850036,3.5594980977429187,0.5104761904761905,0,0.05
1757393348.1094522,-0.05,-0.602,9.711,0.1138268970850036,3.5594980977429187,0.5104761904761905,0,0.05
1757393348.1354806,0.035,-0.424,9.662,0.11384034873453261,2.521248442346487,0.5147368421052633,0,0.05
1757393348.162352,0.035,-0.424,9.662,0.11384034873453261,2.521248442346487,0.5147368421052633,0,0.05
1757393348.1894171,0.088,-0.469,9.735,0.11392534836461989,2.806244417252296,0.5173934837092732,0,0.05
1757393348.2167475,0.088,-0.469,9.735,0.11392534836461989,2.806244417252296,0.5173934837092732,0,0.05
1757393348.2439272,0.003,-0.643,9.777,0.11392544711345222,3.7627705000194283,0.5216541353383458,0,0.05
1757393348.2711911,0.003,-0.643,9.777,0.11392544711345222,3.7627705000194283,0.5216541353383458,0,0.05
1757393348.2985752,0.003,-0.643,9.777,0.11392544711345222,3.7627705000194283,0.5216541353383458,0,0.05
1757393348.3257546,-0.056,-0.496,9.678,0.11395985038600218,2.9524636677865828,0.5246115288220551,0,0.05
1757393348.3533669,-0.065,-0.48,9.864,0.11400618404279655,2.8113051672778995,0.525062656641604,0,0.05
1757393348.3799229,-0.065,-0.48,9.864,0.11400618404279655,2.8113051672778995,0.525062656641604,0,0.05
1757393348.4080188,-0.218,-0.394,9.918,0.11452606690181934,2.599510267175224,0.5327318295739347,0,0.05
1757393348.435483,-0.218,-0.394,9.918,0.11452606690181934,2.599510267175224,0.5327318295739347,0,0.05
1757393348.4625733,-0.224,-0.343,9.723,0.11507241198480198,2.412647535648873,0.5330325814536341,0,0.05
1757393348.489789,-0.224,-0.343,9.723,0.11507241198480198,2.412647535648873,0.5330325814536341,0,0.05
1757393348.5170047,-0.117,-0.317,9.741,0.11522101587818082,1.9867178758767643,0.5383959899749373,0,0.05
1757393348.5443785,-0.117,-0.317,9.741,0.11522101587818082,1.9867178758767643,0.5383959899749373,0,0.05
1757393348.5719132,-0.274,-0.431,9.785,0.11603263549536398,2.9878066488474864,0.5462656641604009,0,0.05
1757393348.599024,-0.274,-0.431,9.785,0.11603263549536398,2.9878066488474864,0.5462656641604009,0,0.05
1757393348.624677,-0.271,-0.496,9.763,0.11682112394597136,3.3133023159857844,0.5464160401002506,0,0.05
1757393348.6508732,-0.271,-0.496,9.763,0.11682112394597136,3.3133023159857844,0.5464160401002506,0,0.05
1757393348.6779454,-0.293,-0.431,9.928,0.11773613506481348,3.004936491414551,0.5475187969924811,0,0.05
1757393348.7041473,-0.293,-0.431,9.928,0.11773613506481348,3.004936491414551,0.5475187969924811,0,0.05
1757393348.730491,-0.293,-0.431,9.928,0.11773613506481348,3.004936491414551,0.5475187969924811,0,0.05
1757393348.7575529,-0.242,-0.33,9.885,0.11835627359798043,2.3706026771750954,0.5500751879699248,0,0.05
1757393348.7847116,-0.313,-0.335,9.867,0.11938647327063481,2.6603293650723314,0.5536340852130325,0,0.05
1757393348.8128283,-0.313,-0.335,9.867,0.11938647327063481,2.6603293650723314,0.5536340852130325,0,0.05
1757393348.8388352,-0.181,-0.261,9.909,0.119728996070292,1.8359082593575162,0.5602506265664159,0,0.05
1757393348.8651671,-0.181,-0.261,9.909,0.119728996070292,1.8359082593575162,0.5602506265664159,0,0.05
1757393348.892278,-0.13,-0.293,9.859,0.11990530638799937,1.8621969385738903,0.5628070175438595,0,0.05
1757393348.9193943,-0.13,-0.293,9.859,0.11990530638799937,1.8621969385738903,0.5628070175438595,0,0.05
1757393348.9464192,-0.145,-0.362,9.732,0.12012428980018987,2.294608535759747,0.5635588972431078,0,0.05
1757393348.9732137,-0.145,-0.362,9.732,0.12012428980018987,2.294608535759747,0.5635588972431078,0,0.05
1757393349.0000038,-0.252,-0.384,9.774,0.12078329768639372,2.6904875044374825,0.5689223057644109,0,0.05
1757393349.0266132,-0.252,-0.384,9.774,0.12078329768639372,2.6904875044374825,0.5689223057644109,0,0.05
1757393349.0542958,-0.038,-0.405,9.831,0.12079824088123137,2.369384776591159,0.5796491228070175,0,0.05
1757393349.0807822,-0.038,-0.405,9.831,0.12079824088123137,2.369384776591159,0.5796491228070175,0,0.05
1757393349.1066155,-0.038,-0.405,9.831,0.12079824088123137,2.369384776591159,0.5796491228070175,0,0.05
1757393349.1329255,-0.216,-0.465,9.834,0.12128006843665615,2.984550795743466,0.5885714285714285,0,0.05
1757393349.1600175,-0.216,-0.465,9.834,0.12128006843665615,2.984550795743466,0.5885714285714285,0,0.05
1757393349.1868742,-0.21,-0.451,9.774,0.12173374634833187,2.9138295398170224,0.5888721804511278,0,0.05
1757393349.2139528,-0.21,-0.451,9.774,0.12173374634833187,2.9138295398170224,0.5888721804511278,0,0.05
1757393349.240177,-0.163,-0.493,9.778,0.12200626008529235,3.039760045540664,0.5912280701754387,0,0.05
1757393349.267072,-0.163,-0.493,9.778,0.12200626008529235,3.039760045540664,0.5912280701754387,0,0.05
1757393349.2934892,-0.114,-0.451,9.683,0.12213933641542352,2.750454964421857,0.5936842105263158,0,0.05
1757393349.3208938,-0.114,-0.451,9.683,0.12213933641542352,2.750454964421857,0.5936842105263158,0,0.05
1757393349.3473969,-0.224,-0.557,9.764,0.1226517733259491,3.518486698875923,0.5991979949874686,0,0.05
1757393349.3747656,-0.224,-0.557,9.764,0.1226517733259491,3.518486698875923,0.5991979949874686,0,0.05
1757393349.401747,-0.23,-0.514,9.793,0.12318972156799446,3.2909727744295854,0.5994987468671679,0,0.05
1757393349.4277108,-0.23,-0.514,9.793,0.12318972156799446,3.2909727744295854,0.5994987468671679,0,0.05
1757393349.4551165,-0.226,-0.436,9.761,0.12370690158596649,2.8802204176094937,0.5996992481203007,0,0.05
1757393349.4814613,-0.226,-0.436,9.761,0.12370690158596649,2.8802204176094937,0.5996992481203007,0,0.05
1757393349.5085385,-0.175,-0.306,9.676,0.12401596671396792,2.0864220815950696,0.6022556390977444,0,0.05
1757393349.5356967,-0.175,-0.306,9.676,0.12401596671396792,2.0864220815950696,0.6022556390977444,0,0.05
1757393349.5627356,-0.211,-0.175,9.78,0.1244639003888276,1.6055469732256622,0.6040601503759399,0,0.05
1757393349.5892363,-0.211,-0.175,9.78,0.1244639003888276,1.6055469732256622,0.6040601503759399,0,0.05
1757393349.6150715,-0.219,-0.206,9.696,0.12494464774451125,1.7761019652597874,0.6044611528822055,0,0.05
1757393349.6421366,-0.219,-0.206,9.696,0.12494464774451125,1.7761019652597874,0.6044611528822055,0,0.05
1757393349.669347,-0.169,-0.256,9.555,0.1252300582927278,1.8387839037284492,0.6069674185463659,0,0.05
1757393349.6959531,-0.169,-0.256,9.555,0.1252300582927278,1.8387839037284492,0.6069674185463659,0,0.05
1757393349.7228,-0.169,-0.256,9.555,0.1252300582927278,1.8387839037284492,0.6069674185463659,0,0.05
1757393349.7498803,-0.174,-0.237,9.6,0.12553189833663794,1.7542262528013464,0.607218045112782,0,0.05
1757393349.777666,-0.254,-0.275,9.698,0.1261726892001593,2.2105863857422303,0.6112280701754386,0,0.05
1757393349.805115,-0.254,-0.275,9.698,0.1261726892001593,2.2105863857422303,0.6112280701754386,0,0.05
1757393349.832293,-0.291,-0.375,9.831,0.12700885795880537,2.7642300336597274,0.6130827067669173,0,0.05
1757393349.858784,-0.291,-0.375,9.831,0.12700885795880537,2.7642300336597274,0.6130827067669173,0,0.05
1757393349.8850107,-0.312,-0.373,9.794,0.12796331505552677,2.8424760368835575,0.6141353383458645,0,0.05
1757393349.9121404,-0.312,-0.373,9.794,0.12796331505552677,2.8424760368835575,0.6141353383458645,0,0.05
1757393349.940148,-0.181,-0.142,9.695,0.12828293923979134,1.3593264230847206,0.6207017543859649,0,0.05
1757393349.9681478,-0.181,-0.142,9.695,0.12828293923979134,1.3593264230847206,0.6207017543859649,0,0.05
1757393349.9958155,-0.187,-0.151,9.735,0.1286232288507795,1.414326367064616,0.6210025062656641,0,0.05
1757393350.0236974,-0.187,-0.151,9.735,0.1286232288507795,1.414326367064616,0.6210025062656641,0,0.05
1757393350.0512984,-0.127,-0.195,9.621,0.12877988002789878,1.3855844968730826,0.6240100250626566,0,0.05
1757393350.0783703,-0.35,-0.063,9.826,0.12996348525643656,2.0727570372739548,0.6351879699248121,0,0.05
1757393350.105712,-0.35,-0.063,9.826,0.12996348525643656,2.0727570372739548,0.6351879699248121,0,0.05
1757393350.132896,-0.132,-0.09,9.783,0.13013096287970824,0.935591665136867,0.6461152882205514,0,0.05
1757393350.160261,-0.132,-0.09,9.783,0.13013096287970824,0.935591665136867,0.6461152882205514,0,0.05
1757393350.1873958,-0.104,-0.054,9.731,0.1302348167733959,0.6899395882756354,0.6475187969924813,0,0.05
1757393350.2136579,-0.104,-0.054,9.731,0.1302348167733959,0.6899395882756354,0.6475187969924813,0,0.05
1757393350.2400732,-0.104,-0.054,9.731,0.1302348167733959,0.6899395882756354,0.6475187969924813,0,0.05
1757393350.2671387,-0.093,-0.055,9.633,0.13031780384889854,0.6426177327146356,0.6480701754385965,0,0.05
1757393350.2957094,0.007,-0.18,9.617,0.13031827385290215,1.0730819554381599,0.6530827067669172,0,0.05
1757393350.3234484,0.007,-0.18,9.617,0.13031827385290215,1.0730819554381599,0.6530827067669172,0,0.05
1757393350.3501222,-0.049,-0.291,9.662,0.13034130197293567,1.7493826413038351,0.655889724310777,0,0.05
1757393350.377352,-0.049,-0.291,9.662,0.13034130197293567,1.7493826413038351,0.655889724310777,0,0.05
1757393350.4043624,-0.181,-0.327,9.705,0.1306551089701432,2.205439692915472,0.6625062656641602,0,0.05
1757393350.4317398,-0.181,-0.327,9.705,0.1306551089701432,2.205439692915472,0.6625062656641602,0,0.05
1757393350.4581156,-0.182,-0.233,9.693,0.13097162860711475,1.7471001483138655,0.6625563909774435,0,0.05
1757393350.4844477,-0.182,-0.233,9.693,0.13097162860711475,1.7471001483138655,0.6625563909774435,0,0.05
1757393350.5110176,-0.048,-0.409,9.707,0.13099361625667105,2.4292431121901545,0.6692731829573936,0,0.05
1757393350.538861,-0.048,-0.409,9.707,0.13099361625667105,2.4292431121901545,0.6692731829573936,0,0.05
1757393350.5665283,-0.21,-0.262,9.755,0.13141376449976616,1.9713813842447645,0.6773934837092731,0,0.05
1757393350.5947382,-0.21,-0.262,9.755,0.13141376449976616,1.9713813842447645,0.6773934837092731,0,0.05
1757393350.6219766,-0.092,-0.313,9.703,0.13149424892366965,1.925711299516758,0.6833082706766919,0,0.05
1757393350.648705,-0.092,-0.313,9.703,0.13149424892366965,1.925711299516758,0.6833082706766919,0,0.05
1757393350.6758294,-0.307,-0.285,9.758,0.13238715949819302,2.4581118413569447,0.6940852130325814,0,0.05
1757393350.7032502,-0.307,-0.285,9.758,0.13238715949819302,2.4581118413569447,0.6940852130325814,0,0.05
1757393350.7299573,-0.1,-0.412,9.814,0.13248154588470049,2.473624851356231,0.7044611528822056,0,0.05
1757393350.7576091,-0.1,-0.412,9.814,0.13248154588470049,2.473624851356231,0.7044611528822056,0,0.05
1757393350.7843904,-0.214,-0.372,9.798,0.13291294143160023,2.508008056246764,0.7101754385964912,0,0.05
1757393350.811872,-0.214,-0.372,9.798,0.13291294143160023,2.508008056246764,0.7101754385964912,0,0.05
1757393350.8387272,-0.214,-0.372,9.798,0.13291294143160023,2.508008056246764,0.7101754385964912,0,0.05
1757393350.865639,-0.078,-0.455,9.739,0.1329701470255636,2.713839843629145,0.7169924812030075,0,0.05
1757393350.8931975,-0.249,-0.367,9.825,0.13355172219031847,2.58455930589078,0.7255639097744361,0,0.05
1757393350.9206874,-0.249,-0.367,9.825,0.13355172219031847,2.58455930589078,0.7255639097744361,0,0.05
1757393350.9477112,-0.143,-0.304,9.891,0.13374298112424443,1.9453383440660905,0.7308771929824561,0,0.05
1757393350.9744458,-0.143,-0.304,9.891,0.13374298112424443,1.9453383440660905,0.7308771929824561,0,0.05
1757393351.0017784,-0.115,-0.344,9.758,0.13386652867688772,2.1287541296059573,0.7322807017543859,0,0.05
1757393351.0289154,-0.115,-0.344,9.758,0.13386652867688772,2.1287541296059573,0.7322807017543859,0,0.05
1757393351.055962,-0.217,-0.394,9.872,0.1343055099390937,2.6088072352010365,0.7373934837092732,0,0.05
1757393351.0827367,-0.217,-0.394,9.872,0.1343055099390937,2.6088072352010365,0.7373934837092732,0,0.05
1757393351.1098647,-0.137,-0.351,9.908,0.13448008216832708,2.1778386436209214,0.7414035087719298,0,0.05
1757393351.1366591,-0.137,-0.351,9.908,0.13448008216832708,2.1778386436209214,0.7414035087719298,0,0.05
1757393351.1639247,-0.191,-0.53,9.845,0.13481874869616614,3.275095799305734,0.744110275689223,0,0.05
1757393351.1911936,-0.191,-0.53,9.845,0.13481874869616614,3.275095799305734,0.744110275689223,0,0.05
1757393351.2167847,-0.176,-0.558,9.819,0.13510564384954465,3.4101301734733056,0.7448621553884711,0,0.05
1757393351.244705,-0.176,-0.558,9.819,0.13510564384954465,3.4101301734733056,0.7448621553884711,0,0.05
1757393351.2717988,-0.238,-0.266,9.881,0.13562870271443284,2.068795935986443,0.74796992481203,0,0.05
1757393351.2992735,-0.238,-0.266,9.881,0.13562870271443284,2.068795935986443,0.74796992481203,0,0.05
1757393351.3260572,-0.143,-0.383,9.8,0.13581703685473334,2.388814427787763,0.7527318295739349,0,0.05
1757393351.3535051,-0.143,-0.383,9.8,0.13581703685473334,2.388814427787763,0.7527318295739349,0,0.05
1757393351.3807855,-0.143,-0.383,9.8,0.13581703685473334,2.388814427787763,0.7527318295739349,0,0.05
1757393351.408332,-0.088,-0.575,9.784,0.13588829051835188,3.402440569831272,0.7554887218045113,0,0.05
1757393351.4365258,-0.212,-0.548,9.837,0.13630109133825746,3.4182974044044623,0.7617042606516291,0,0.05
1757393351.463444,-0.212,-0.548,9.837,0.13630109133825746,3.4182974044044623,0.7617042606516291,0,0.05
1757393351.4908316,0.03,-0.415,9.81,0.13630934487407678,2.4286967671922675,0.7738345864661655,0,0.05
1757393351.5162528,0.03,-0.415,9.81,0.13630934487407678,2.4286967671922675,0.7738345864661655,0,0.05
1757393351.543283,-0.117,-0.497,9.83,0.13643481960262197,2.9733624655242883,0.781203007518797,0,0.05
1757393351.5698276,-0.117,-0.497,9.83,0.13643481960262197,2.9733624655242883,0.781203007518797,0,0.05
1757393351.5968735,-0.094,-0.316,9.685,0.13651575000709626,1.949638677963116,0.7823558897243107,0,0.05
1757393351.6236749,-0.094,-0.316,9.685,0.13651575000709626,1.949638677963116,0.7823558897243107,0,0.05
1757393351.6510203,-0.116,-0.391,9.739,0.1366389036841265,2.3979990936215265,0.7834586466165414,0,0.05
1757393351.6782267,-0.116,-0.391,9.739,0.1366389036841265,2.3979990936215265,0.7834586466165414,0,0.05
1757393351.7049098,-0.116,-0.391,9.739,0.1366389036841265,2.3979990936215265,0.7834586466165414,0,0.05
1757393351.731064,-0.087,-0.524,9.631,0.13670812887315809,3.1568043292793804,0.7849122807017545,0,0.05
1757393351.7575293,-0.267,-0.531,9.571,0.1373584180165162,3.5534407605795044,0.7939348370927317,0,0.05
1757393351.7840676,-0.267,-0.531,9.571,0.1373584180165162,3.5534407605795044,0.7939348370927317,0,0.05
1757393351.8108096,-0.267,-0.531,9.571,0.1373584180165162,3.5534407605795044,0.7939348370927317,0,0.05
1757393351.8368583,-0.123,-0.411,9.503,0.13749602721533447,2.5848481595728585,0.8011528822055138,0,0.05
1757393351.8635912,-0.193,-0.439,9.658,0.1378342482839443,2.8425917664102927,0.8046616541353383,0,0.05
1757393351.8909247,-0.193,-0.439,9.658,0.1378342482839443,2.8425917664102927,0.8046616541353383,0,0.05
1757393351.9182186,-0.098,-0.43,9.653,0.13792131814915343,2.6159093301449174,0.8094235588972432,0,0.05
1757393351.9461737,-0.098,-0.43,9.653,0.13792131814915343,2.6159093301449174,0.8094235588972432,0,0.05
1757393351.9722538,-0.131,-0.379,9.661,0.13807676307040226,2.376824149096017,0.811077694235589,0,0.05
1757393351.9982948,-0.131,-0.379,9.661,0.13807676307040226,2.376824149096017,0.811077694235589,0,0.05
1757393352.0246193,-0.113,-0.365,9.725,0.13819231165300042,2.2499724780707235,0.8119799498746868,0,0.05
1757393352.0509067,-0.113,-0.365,9.725,0.13819231165300042,2.2499724780707235,0.8119799498746868,0,0.05
1757393352.0773249,0.038,-0.441,9.488,0.13820537254390655,2.6710259870129773,0.8195488721804511,0,0.05
1757393352.1042087,0.038,-0.441,9.488,0.13820537254390655,2.6710259870129773,0.8195488721804511,0,0.05
1757393352.1320598,-0.181,-0.457,9.648,0.1385013628091796,2.916536785601324,0.8305263157894738,0,0.05
1757393352.1594121,-0.181,-0.457,9.648,0.1385013628091796,2.916536785601324,0.8305263157894738,0,0.05
1757393352.1871703,0.207,-0.315,9.582,0.13888754443793727,2.252682114808532,0.8499749373433584,0,0.05
1757393352.213746,0.207,-0.315,9.582,0.13888754443793727,2.252682114808532,0.8499749373433584,0,0.05
1757393352.240939,-0.01,-0.394,9.626,0.13888844444373333,2.344608443724293,0.8608521303258145,0,0.05
1757393352.2676566,-0.01,-0.394,9.626,0.13888844444373333,2.344608443724293,0.8608521303258145,0,0.05
1757393352.2944348,0.042,-0.322,9.708,0.1389043195872612,1.915799890148824,0.8634586466165413,0,0.05
1757393352.3215516,0.042,-0.322,9.708,0.1389043195872612,1.915799890148824,0.8634586466165413,0,0.05
1757393352.3486753,0.026,-0.245,9.723,0.13891040277819366,1.4515344361953293,0.8642606516290727,0,0.05
1757393352.376043,0.026,-0.245,9.723,0.13891040277819366,1.4515344361953293,0.8642606516290727,0,0.05
1757393352.4035432,-0.017,-0.377,9.76,0.13891300335101822,2.214312750078327,0.8664160401002506,0,0.05
1757393352.4319065,-0.017,-0.377,9.76,0.13891300335101822,2.214312750078327,0.8664160401002506,0,0.05
1757393352.4597192,-0.075,-0.288,9.746,0.13896361034457905,1.7490497530353974,0.8693233082706766,0,0.05
1757393352.487437,-0.075,-0.288,9.746,0.13896361034457905,1.7490497530353974,0.8693233082706766,0,0.05
1757393352.5150762,-0.05,-0.272,9.729,0.13898609642694482,1.6282563863414388,0.8705764411027568,0,0.05
1757393352.5422528,-0.05,-0.272,9.729,0.13898609642694482,1.6282563863414388,0.8705764411027568,0,0.05
1757393352.5693958,-0.105,-0.324,9.718,0.13908521668387333,2.0072380579085602,0.8733333333333333,0,0.05
1757393352.595493,-0.105,-0.324,9.718,0.13908521668387333,2.0072380579085602,0.8733333333333333,0,0.05
1757393352.6220362,-0.043,-0.38,9.906,0.13910183320143557,2.2108289677050528,0.8764411027568924,0,0.05
1757393352.6493957,-0.043,-0.38,9.906,0.13910183320143557,2.2108289677050528,0.8764411027568924,0,0.05
1757393352.6765256,-0.007,-0.321,9.756,0.13910227352563292,1.8849610811805995,0.8782456140350877,0,0.05
1757393352.704124,-0.007,-0.321,9.756,0.13910227352563292,1.8849610811805995,0.8782456140350877,0,0.05
1757393352.7313747,-0.023,-0.312,9.661,0.13910702714097517,1.854728160654617,0.879047619047619,0,0.05
1757393352.7587512,-0.023,-0.312,9.661,0.13910702714097517,1.854728160654617,0.879047619047619,0,0.05
1757393352.7856567,0.014,-0.32,9.838,0.13910878836364007,1.8647801795659502,0.8809022556390976,0,0.05
1757393352.812753,0.014,-0.32,9.838,0.13910878836364007,1.8647801795659502,0.8809022556390976,0,0.05
1757393352.839873,-0.01,-0.278,9.765,0.13910968693804182,1.6317684501412089,0.8821052631578947,0,0.05
1757393352.866641,-0.01,-0.278,9.765,0.13910968693804182,1.6317684501412089,0.8821052631578947,0,0.05
1757393352.8936787,-0.214,-0.376,9.744,0.13952058987834018,2.5422640563387144,0.8923308270676691,0,0.05
1757393352.9210155,-0.214,-0.376,9.744,0.13952058987834018,2.5422640563387144,0.8923308270676691,0,0.05
1757393352.9480715,0.007,-0.409,9.764,0.139521028880954,2.398986885861301,0.903408521303258,0,0.05
1757393352.9754071,0.007,-0.409,9.764,0.139521028880954,2.398986885861301,0.903408521303258,0,0.05
1757393353.0024,-0.132,-0.483,9.869,0.13967704714805507,2.9044618854691286,0.9103759398496241,0,0.05
1757393353.0298877,-0.132,-0.483,9.869,0.13967704714805507,2.9044618854691286,0.9103759398496241,0,0.05
1757393353.0570495,-0.045,-0.372,9.719,0.13969516813404823,2.2079207221072514,0.9147368421052632,0,0.05
1757393353.083322,-0.045,-0.372,9.719,0.13969516813404823,2.2079207221072514,0.9147368421052632,0,0.05
1757393353.110334,-0.142,-0.472,9.915,0.13987548033876415,2.845962683009668,0.9195989974937344,0,0.05
1757393353.137929,-0.142,-0.472,9.915,0.13987548033876415,2.845962683009668,0.9195989974937344,0,0.05
1757393353.1658208,-0.027,-0.519,9.82,0.13988199490999548,3.0294265535895493,0.9253634085213032,0,0.05
1757393353.193473,-0.027,-0.519,9.82,0.13988199490999548,3.0294265535895493,0.9253634085213032,0,0.05
1757393353.21951,-0.071,-0.323,9.701,0.13992703455730063,1.9524821804690056,0.9275689223057645,0,0.05
1757393353.2471044,-0.071,-0.323,9.701,0.13992703455730063,1.9524821804690056,0.9275689223057645,0,0.05
1757393353.275262,-0.009,-0.396,9.802,0.13992775814683803,2.3140834732425275,0.9306766917293232,0,0.05
1757393353.3035324,-0.009,-0.396,9.802,0.13992775814683803,2.3140834732425275,0.9306766917293232,0,0.05
1757393353.3306856,-0.004,-0.47,9.867,0.13992790107766212,2.7272372743583504,0.9309273182957394,0,0.05
1757393353.3569422,-0.004,-0.47,9.867,0.13992790107766212,2.7272372743583504,0.9309273182957394,0,0.05
1757393353.3837836,0.006,-0.481,9.672,0.13992822267148253,2.8472624665778814,0.9314285714285714,0,0.05
1757393353.410878,0.006,-0.481,9.672,0.13992822267148253,2.8472624665778814,0.9314285714285714,0,0.05
1757393353.43815,-0.007,-0.516,9.723,0.1399286603952171,3.03811849800256,0.9320802005012531,0,0.05
1757393353.4653006,-0.007,-0.516,9.723,0.1399286603952171,3.03811849800256,0.9320802005012531,0,0.05
1757393353.492646,0.11,-0.632,9.871,0.14003670947290928,3.7183371525740183,0.9379448621553885,0,0.05
1757393353.5201213,0.11,-0.632,9.871,0.14003670947290928,3.7183371525740183,0.9379448621553885,0,0.05
1757393353.5468733,0.11,-0.632,9.871,0.14003670947290928,3.7183371525740183,0.9379448621553885,0,0.05
1757393353.5747337,-0.088,-0.439,9.823,0.14010581715260792,2.609740243301536,0.9478696741854638,0,0.05
1757393353.6022346,-0.194,-0.418,10.002,0.1404411976593763,2.637941274927567,0.9531829573934836,0,0.05
1757393353.6297555,-0.194,-0.418,10.002,0.1404411976593763,2.637941274927567,0.9531829573934836,0,0.05
1757393353.6550508,0.039,-0.441,9.975,0.14045473470125527,2.5412948516021667,0.9648621553884711,0,0.05
1757393353.6816523,0.039,-0.441,9.975,0.14045473470125527,2.5412948516021667,0.9648621553884711,0,0.05
1757393353.7083209,-0.124,-0.335,9.832,0.14059150934533707,2.0807352406472437,0.9730325814536339,0,0.05
1757393353.73634,-0.124,-0.335,9.832,0.14059150934533707,2.0807352406472437,0.9730325814536339,0,0.05
1757393353.7629607,-0.021,-0.344,9.846,0.14059543022445645,2.0047106743359997,0.9781954887218045,0,0.05
1757393353.7899368,-0.021,-0.344,9.846,0.14059543022445645,2.0047106743359997,0.9781954887218045,0,0.05
1757393353.8173237,-0.098,-0.368,9.854,0.14068079115501164,2.2131962528994684,0.9820551378446115,0,0.05
1757393353.8446367,-0.098,-0.368,9.854,0.14068079115501164,2.2131962528994684,0.9820551378446115,0,0.05
1757393353.871316,-0.125,-0.413,9.87,0.14081955652536335,2.5032940033027518,0.9834085213032582,0,0.1
1757393353.8990977,-0.125,-0.413,9.87,0.14081955652536335,2.5032940033027518,0.9834085213032582,0,0.1
1757393353.9267304,-0.236,-0.338,9.941,0.14131308325841596,2.374606261713151,0.9889724310776942,0,0.1
1757393353.954188,-0.236,-0.338,9.941,0.14131308325841596,2.374606261713151,0.9889724310776942,0,0.1
1757393353.980827,-0.225,-0.43,10.002,0.14176018481929262,2.7778821340788338,0.9895238095238094,0,0.1
1757393354.0081682,-0.225,-0.43,10.002,0.14176018481929262,2.7778821340788338,0.9895238095238094,0,0.1
1757393354.0355134,-0.174,-0.411,9.842,0.14202689886074396,2.5964695464389176,0.9920802005012532,0,0.1
1757393354.0631278,-0.174,-0.411,9.842,0.14202689886074396,2.5964695464389176,0.9920802005012532,0,0.1
1757393354.0908213,-0.117,-0.453,9.837,0.14214732674236263,2.723038002439825,0.9949373433583959,0,0.1
1757393354.1185284,-0.117,-0.453,9.837,0.14214732674236263,2.723038002439825,0.9949373433583959,0,0.1
1757393354.1457546,0.058,-0.482,9.737,0.142176905649265,2.8543466223544525,1.0037092731829573,0,0.1
1757393354.1738355,0.058,-0.482,9.737,0.142176905649265,2.8543466223544525,1.0037092731829573,0,0.1
1757393354.200692,-0.242,-0.458,9.872,0.14269086340757772,3.003671088362406,1.0187468671679196,0,0.1
1757393354.2279146,-0.242,-0.458,9.872,0.14269086340757772,3.003671088362406,1.0187468671679196,0,0.1
1757393354.2554152,-0.168,-0.407,9.851,0.14293789735406073,2.5592458896358554,1.0224561403508772,0,0.1
1757393354.282341,-0.168,-0.407,9.851,0.14293789735406073,2.5592458896358554,1.0224561403508772,0,0.1
1757393354.3096325,-0.218,-0.382,9.751,0.1433528949829755,2.5826248631986446,1.0249624060150373,0,0.1
1757393354.3365457,-0.218,-0.382,9.751,0.1433528949829755,2.5826248631986446,1.0249624060150373,0,0.1
1757393354.3638837,-0.02,-0.395,9.687,0.14335638283662155,2.3380041092327533,1.0348872180451127,0,0.1
1757393354.3912647,-0.02,-0.395,9.687,0.14335638283662155,2.3380041092327533,1.0348872180451127,0,0.1
1757393354.4192624,-0.249,-0.278,9.807,0.14389598674042303,2.1793606882167698,1.0463659147869675,0,0.1
1757393354.4464824,-0.249,-0.278,9.807,0.14389598674042303,2.1793606882167698,1.0463659147869675,0,0.1
1757393354.4736583,-0.146,-0.308,9.754,0.14408103622614601,2.0013768980715727,1.0515288220551378,0,0.1
1757393354.5008285,-0.146,-0.308,9.754,0.14408103622614601,2.0013768980715727,1.0515288220551378,0,0.1
1757393354.526147,-0.246,-0.345,9.769,0.14460510018668082,2.483603224532616,1.0565413533834587,0,0.1
1757393354.553071,-0.246,-0.345,9.769,0.14460510018668082,2.483603224532616,1.0565413533834587,0,0.1
1757393354.580355,-0.292,-0.349,9.78,0.145340273152351,2.663937458211374,1.0588471177944863,0,0.1
1757393354.6080692,-0.292,-0.349,9.78,0.145340273152351,2.663937458211374,1.0588471177944863,0,0.1
1757393354.6355507,0.107,-0.341,9.635,0.14543870702120532,2.1243120129611874,1.078847117794486,0,0.1
1757393354.6635225,0.107,-0.341,9.635,0.14543870702120532,2.1243120129611874,1.078847117794486,0,0.1
1757393354.6907744,-0.015,-0.39,9.632,0.1454406408126697,2.320353940746412,1.0849624060150376,0,0.1
1757393354.7174168,-0.015,-0.39,9.632,0.1454406408126697,2.320353940746412,1.0849624060150376,0,0.1
1757393354.7447762,0.247,-0.485,9.573,0.14596404523032375,3.2540537817985813,1.098095238095238,0,0.1
1757393354.7722206,0.247,-0.485,9.573,0.14596404523032375,3.2540537817985813,1.098095238095238,0,0.1
1757393354.7999527,0.034,-0.442,9.562,0.1459739445928622,2.6544002427169144,1.1087719298245613,0,0.1
1757393354.8266654,0.034,-0.442,9.562,0.1459739445928622,2.6544002427169144,1.1087719298245613,0,0.1
1757393354.8532984,0.0,-0.457,9.626,0.14597394459286217,2.7181098439009266,1.1104761904761906,0,0.1
1757393354.8809001,0.0,-0.457,9.626,0.14597394459286217,2.7181098439009266,1.1104761904761906,0,0.1
1757393354.908136,0.116,-0.569,9.751,0.14608912519417727,3.4081254459108665,1.1162907268170426,0,0.1
1757393354.9354396,0.116,-0.569,9.751,0.14608912519417727,3.4081254459108665,1.1162907268170426,0,0.1
1757393354.9629457,-0.085,-0.369,9.76,0.14615093225840198,2.2218177142314364,1.1263659147869673,0,0.1
1757393354.991292,-0.085,-0.369,9.76,0.14615093225840198,2.2218177142314364,1.1263659147869673,0,0.1
1757393355.0179625,-0.185,-0.28,9.708,0.1464433593578077,1.9798731196907133,1.1313784461152883,0,0.1
1757393355.0457256,-0.185,-0.28,9.708,0.1464433593578077,1.9798731196907133,1.1313784461152883,0,0.1
1757393355.07351,-0.127,-0.328,9.765,0.146580967386629,2.0628627941513527,1.1342857142857143,0,0.1
1757393355.1008759,-0.177,-0.358,9.697,0.14684788898721016,2.358363182621016,1.1367919799498747,0,0.1
1757393355.1284578,-0.177,-0.358,9.697,0.14684788898721016,2.358363182621016,1.1367919799498747,0,0.1
1757393355.156204,-0.098,-0.328,9.572,0.14692961750443645,2.04821932270215,1.140751879699248,0,0.1
1757393355.1840155,-0.098,-0.328,9.572,0.14692961750443645,2.04821932270215,1.140751879699248,0,0.1
1757393355.2115688,-0.144,-0.323,9.736,0.14710592272237036,2.080266944188955,1.1430576441102758,0,0.1
1757393355.2402565,-0.144,-0.323,9.736,0.14710592272237036,2.080266944188955,1.1430576441102758,0,0.1
1757393355.2681913,-0.228,-0.295,9.756,0.1475469840423721,2.1885728435890814,1.1472681704260652,0,0.1
1757393355.2962499,-0.228,-0.295,9.756,0.1475469840423721,2.1885728435890814,1.1472681704260652,0,0.1
1757393355.3229613,-0.022,-0.181,9.566,0.14755108437419226,1.0919502189346684,1.157593984962406,0,0.1
1757393355.3511193,-0.022,-0.181,9.566,0.14755108437419226,1.0919502189346684,1.157593984962406,0,0.1
1757393355.3782275,-0.182,-0.382,9.74,0.14783143271983804,2.4875705951237066,1.1656140350877193,0,0.1
1757393355.4058223,-0.182,-0.382,9.74,0.14783143271983804,2.4875705951237066,1.1656140350877193,0,0.1
1757393355.4325876,-0.105,-0.313,9.773,0.1479246260769315,1.9347769774295107,1.1694736842105262,0,0.1
1757393355.4594073,-0.105,-0.313,9.773,0.1479246260769315,1.9347769774295107,1.1694736842105262,0,0.1
1757393355.48687,-0.186,-0.392,9.629,0.14821668259679813,2.580042091121982,1.1735338345864659,0,0.1
1757393355.5148778,-0.186,-0.392,9.629,0.14821668259679813,2.580042091121982,1.1735338345864659,0,0.1
1757393355.5427372,-0.073,-0.443,9.636,0.14826161843174382,2.6676781110539483,1.1791979949874685,0,0.1
1757393355.5702772,-0.073,-0.443,9.636,0.14826161843174382,2.6676781110539483,1.1791979949874685,0,0.1
1757393355.5973282,-0.085,-0.461,9.772,0.14832252020512596,2.7464194271167894,1.1797994987468672,0,0.1
1757393355.6244686,-0.085,-0.461,9.772,0.14832252020512596,2.7464194271167894,1.1797994987468672,0,0.1
1757393355.6514418,-0.081,-0.382,9.639,0.14837780325911284,2.319886801316236,1.18,0,0.1
1757393355.67858,-0.081,-0.382,9.639,0.14837780325911284,2.319886801316236,1.18,0,0.1
1757393355.7055938,-0.165,-0.386,9.629,0.1486069816664076,2.4962918557367164,1.1842105263157894,0,0.1
1757393355.732563,-0.165,-0.386,9.629,0.1486069816664076,2.4962918557367164,1.1842105263157894,0,0.1
1757393355.760225,-0.102,-0.367,9.671,0.14869446862610594,2.255537502286466,1.1873684210526316,0,0.1
1757393355.7869477,-0.102,-0.367,9.671,0.14869446862610594,2.255537502286466,1.1873684210526316,0,0.1
1757393355.813692,-0.21,-0.36,9.697,0.14906473425998518,2.4610358685841893,1.1927819548872178,0,0.1
1757393355.8414936,-0.21,-0.36,9.697,0.14906473425998518,2.4610358685841893,1.1927819548872178,0,0.1
1757393355.8688574,-0.249,-0.339,9.528,0.14958374744603775,2.527725543211399,1.194736842105263,0,0.1
1757393355.895837,-0.249,-0.339,9.528,0.14958374744603775,2.527725543211399,1.194736842105263,0,0.1
1757393355.9233017,-0.109,-0.397,9.523,0.14968299836654794,2.475429426585027,1.2017543859649122,0,0.1
1757393355.9505465,-0.109,-0.397,9.523,0.14968299836654794,2.475429426585027,1.2017543859649122,0,0.1
1757393355.977646,-0.176,-0.328,9.583,0.14994145524170427,2.224445662337518,1.2051127819548872,0,0.1
1757393356.004172,-0.176,-0.328,9.583,0.14994145524170427,2.224445662337518,1.2051127819548872,0,0.1
1757393356.0307786,-0.181,-0.244,9.577,0.1502143218870957,1.8169430864572822,1.2053634085213032,0,0.1
1757393356.0578473,-0.181,-0.244,9.577,0.1502143218870957,1.8169430864572822,1.2053634085213032,0,0.1
1757393356.0844543,-0.218,-0.239,9.739,0.1506092709629789,1.902426410539989,1.207218045112782,0,0.1
1757393356.1109564,-0.218,-0.239,9.739,0.1506092709629789,1.902426410539989,1.207218045112782,0,0.1
1757393356.1379626,-0.238,-0.228,9.782,0.15107866328505823,1.929752464130452,1.2082205513784459,0,0.1
1757393356.1650622,-0.238,-0.228,9.782,0.15107866328505823,1.929752464130452,1.2082205513784459,0,0.1
1757393356.1920016,-0.209,-0.148,9.594,0.15143964144173083,1.5290513192972928,1.2096741854636595,0,0.1
1757393356.2178156,-0.209,-0.148,9.594,0.15143964144173083,1.5290513192972928,1.2096741854636595,0,0.1
1757393356.2447922,-0.251,-0.206,9.625,0.15195876907898406,1.932207371211481,1.2117794486215538,0,0.1
1757393356.2720704,-0.251,-0.206,9.625,0.15195876907898406,1.932207371211481,1.2117794486215538,0,0.1
1757393356.2991357,-0.264,-0.168,9.804,0.15253100504487604,1.8281322878668715,1.2124310776942355,0,0.1
1757393356.3271194,-0.264,-0.168,9.804,0.15253100504487604,1.8281322878668715,1.2124310776942355,0,0.1
1757393356.3547063,-0.193,-0.237,9.724,0.1528359578109811,1.800321233592924,1.2159899749373433,0,0.1
1757393356.382085,-0.193,-0.237,9.724,0.1528359578109811,1.800321233592924,1.2159899749373433,0,0.1
1757393356.4091318,-0.224,-0.177,9.673,0.15324578297623723,1.6905480348782922,1.2175438596491226,0,0.2
1757393356.4357693,-0.224,-0.177,9.673,0.15324578297623723,1.6905480348782922,1.2175438596491226,0,0.2
1757393356.4617918,-0.224,-0.177,9.673,0.15324578297623723,1.6905480348782922,1.2175438596491226,0,0.2
1757393356.4885848,0.029,-0.217,9.736,0.15325264271783373,1.2881682716130525,1.2302255639097746,0,0.2
1757393356.5158734,-0.098,-0.238,9.613,0.15333095740912858,1.5337208695436741,1.2365914786967418,0,0.2
1757393356.5433424,-0.098,-0.238,9.613,0.15333095740912858,1.5337208695436741,1.2365914786967418,0,0.2
1757393356.5701025,-0.11,-0.368,9.553,0.15342956853227477,2.302397694987466,1.2371929824561403,0,0.2
1757393356.5973623,-0.11,-0.368,9.553,0.15342956853227477,2.302397694987466,1.2371929824561403,0,0.2
1757393356.6246116,0.007,-0.407,9.769,0.15342996773772716,2.3860524949217767,1.2430576441102754,0,0.2
1757393356.6519582,0.007,-0.407,9.769,0.15342996773772716,2.3860524949217767,1.2430576441102754,0,0.2
1757393356.6793394,-0.189,-0.343,9.825,0.15372071265772874,2.282603268372432,1.2528822055137845,0,0.2
1757393356.7063153,-0.189,-0.343,9.825,0.15372071265772874,2.282603268372432,1.2528822055137845,0,0.2
1757393356.7333896,-0.259,-0.287,9.767,0.15426522615288257,2.2666411114534175,1.2563909774436088,0,0.2
1757393356.7606926,-0.259,-0.287,9.767,0.15426522615288257,2.2666411114534175,1.2563909774436088,0,0.2
1757393356.7873142,-0.214,-0.203,9.93,0.15463586259338422,1.7014445645552454,1.2586466165413535,0,0.2
1757393356.8145595,-0.214,-0.203,9.93,0.15463586259338422,1.7014445645552454,1.2586466165413535,0,0.2
1757393356.841683,-0.323,-0.125,10.06,0.15547691950897408,1.971789370311202,1.264110275689223,0,0.2
1757393356.8687203,-0.323,-0.125,10.06,0.15547691950897408,1.971789370311202,1.264110275689223,0,0.2
1757393356.896035,-0.092,-0.328,9.881,0.1555449533093247,1.974552040010522,1.2756892230576442,0,0.2
1757393356.9236822,-0.092,-0.328,9.881,0.1555449533093247,1.974552040010522,1.2756892230576442,0,0.2
1757393356.9506676,-0.173,-0.354,9.929,0.155785284927685,2.2724698094896163,1.279749373433584,0,0.2
1757393356.9768467,-0.173,-0.354,9.929,0.155785284927685,2.2724698094896163,1.279749373433584,0,0.2
1757393357.0039964,-0.041,-0.389,9.882,0.15579877245986246,2.266729393428523,1.2863659147869675,0,0.2
1757393357.0314791,-0.041,-0.389,9.882,0.15579877245986246,2.266729393428523,1.2863659147869675,0,0.2
1757393357.058901,-0.236,-0.561,9.716,0.15624499191974123,3.5843755384057703,1.296140350877193,0,0.2
1757393357.0859628,-0.236,-0.561,9.716,0.15624499191974123,3.5843755384057703,1.296140350877193,0,0.2
1757393357.1132414,-0.049,-0.722,9.582,0.15626419935481062,4.318946949453311,1.3055137844611528,0,0.2
1757393357.1414728,-0.049,-0.722,9.582,0.15626419935481062,4.318946949453311,1.3055137844611528,0,0.2
1757393357.1689265,-0.11,-0.496,9.671,0.15636096060078422,3.0071817168046024,1.3085714285714285,0,0.2
1757393357.196212,-0.11,-0.496,9.671,0.15636096060078422,3.0071817168046024,1.3085714285714285,0,0.2
1757393357.2235162,-0.036,-0.408,9.569,0.15637132089996553,2.450954615716904,1.312280701754386,0,0.2
1757393357.250539,-0.036,-0.408,9.569,0.15637132089996553,2.450954615716904,1.312280701754386,0,0.2
1757393357.2768936,-0.153,-0.363,9.607,0.15655833577296355,2.3480465125094643,1.3181453634085214,0,0.2
1757393357.3047562,-0.153,-0.363,9.607,0.15655833577296355,2.3480465125094643,1.3181453634085214,0,0.2
1757393357.330553,0.071,-0.269,9.571,0.15659857917618536,1.6650187609332643,1.3293734335839598,0,0.2
1757393357.3574965,0.071,-0.269,9.571,0.15659857917618536,1.6650187609332643,1.3293734335839598,0,0.2
1757393357.3847175,0.071,-0.269,9.571,0.15659857917618536,1.6650187609332643,1.3293734335839598,0,0.2
1757393357.411837,-0.177,-0.323,9.579,0.15684845392926258,2.2019693742427315,1.3418045112781956,0,0.2
1757393357.439366,-0.102,-0.343,9.646,0.1569313464544289,2.1245704692426584,1.345563909774436,0,0.2
1757393357.4660232,-0.102,-0.343,9.646,0.1569313464544289,2.1245704692426584,1.345563909774436,0,0.2
1757393357.492947,0.072,-0.352,9.69,0.15697263296511274,2.1234541486651497,1.354285714285714,0,0.2
1757393357.5195105,0.072,-0.352,9.69,0.15697263296511274,2.1234541486651497,1.354285714285714,0,0.2
1757393357.5472102,-0.167,-0.239,9.65,0.1571945609746088,1.7306060832547336,1.366265664160401,0,0.2
1757393357.574856,-0.167,-0.239,9.65,0.1571945609746088,1.7306060832547336,1.366265664160401,0,0.2
1757393357.600825,-0.131,-0.481,9.515,0.1573309648479917,2.9991580145463117,1.3680701754385962,0,0.2
1757393357.628235,-0.131,-0.481,9.515,0.1573309648479917,2.9991580145463117,1.3680701754385962,0,0.2
1757393357.6553583,-0.018,-0.45,9.543,0.15733353901822714,2.7019373701154366,1.3737343358395988,0,0.2
1757393357.6814554,-0.018,-0.45,9.543,0.15733353901822714,2.7019373701154366,1.3737343358395988,0,0.2
1757393357.7082329,-0.095,-0.462,9.692,0.15740522545328667,2.786130652765683,1.3775939849624057,0,0.2
1757393357.7345617,-0.095,-0.462,9.692,0.15740522545328667,2.786130652765683,1.3775939849624057,0,0.2
1757393357.7615867,0.051,-0.428,9.706,0.15742587938455352,2.5427427285636606,1.3849122807017542,0,0.2
1757393357.7886443,0.051,-0.428,9.706,0.15742587938455352,2.5427427285636606,1.3849122807017542,0,0.2
1757393357.815353,-0.056,-0.432,9.723,0.15745077802284752,2.5652775117927265,1.3902756892230577,0,0.2
1757393357.8436089,-0.056,-0.432,9.723,0.15745077802284752,2.5652775117927265,1.3902756892230577,0,0.2
1757393357.8711638,-0.095,-0.439,9.841,0.1575224111039442,2.6132717152779312,1.3922305764411027,0,0.15000000000000002
1757393357.8997598,-0.095,-0.439,9.841,0.1575224111039442,2.6132717152779312,1.3922305764411027,0,0.15000000000000002
1757393357.927929,-0.034,-0.497,9.744,0.15753158413473786,2.926696374566468,1.3952882205513781,0,0.15000000000000002
1757393357.9561145,-0.034,-0.497,9.744,0.15753158413473786,2.926696374566468,1.3952882205513781,0,0.15000000000000002
1757393357.9814947,-0.094,-0.538,9.661,0.1576016814631113,3.2355686373113524,1.3982957393483708,0,0.15000000000000002
1757393358.0090704,-0.094,-0.538,9.661,0.1576016814631113,3.2355686373113524,1.3982957393483708,0,0.15000000000000002
1757393358.0364203,0.024,-0.57,9.736,0.15760624987607566,3.353553324630914,1.4042105263157894,0,0.15000000000000002
1757393358.0631263,0.024,-0.57,9.736,0.15760624987607566,3.353553324630914,1.4042105263157894,0,0.15000000000000002
1757393358.0894196,0.161,-0.518,9.671,0.15781169950292026,3.2103396050544277,1.411077694235589,0,0.2
1757393358.1170232,0.161,-0.518,9.671,0.15781169950292026,3.2103396050544277,1.411077694235589,0,0.2
1757393358.1445584,-0.104,-0.49,9.779,0.15789734798279545,2.9323307433629293,1.424360902255639,0,0.15000000000000002
1757393358.172222,-0.104,-0.49,9.779,0.15789734798279545,2.9323307433629293,1.424360902255639,0,0.15000000000000002
1757393358.1995115,0.055,-0.459,9.768,0.15792129368771013,2.709576469297162,1.4323308270676691,0,0.15000000000000002
1757393358.22707,0.055,-0.459,9.768,0.15792129368771013,2.709576469297162,1.4323308270676691,0,0.15000000000000002
1757393358.2549977,0.029,-0.451,9.738,0.15792795034445298,2.6571366244901458,1.4336340852130325,0,0.2
1757393358.2822988,0.029,-0.451,9.738,0.15792795034445298,2.6571366244901458,1.4336340852130325,0,0.2
1757393358.3088267,0.06,-0.41,9.598,0.15795644178063775,2.4720510409776293,1.435187969924812,0,0.2
1757393358.335191,0.06,-0.41,9.598,0.15795644178063775,2.4720510409776293,1.435187969924812,0,0.2
1757393358.361632,0.032,-0.517,9.723,0.15796454507262064,3.0495294997901374,1.436591478696742,0,0.2
1757393358.3871849,0.032,-0.517,9.723,0.15796454507262064,3.0495294997901374,1.436591478696742,0,0.2
1757393358.4143188,-0.036,-0.446,9.877,0.15797480020560242,2.593855594127256,1.4400000000000002,0,0.2
1757393358.4415104,-0.036,-0.446,9.877,0.15797480020560242,2.593855594127256,1.4400000000000002,0,0.2
1757393358.468914,0.055,-0.391,9.731,0.15799873417214455,2.3235841035489746,1.4445614035087722,0,0.2
1757393358.4961123,0.055,-0.391,9.731,0.15799873417214455,2.3235841035489746,1.4445614035087722,0,0.2
1757393358.5234652,-0.11,-0.354,9.801,0.15809443380460933,2.166027332582441,1.4528320802005015,0,0.2
1757393358.5508091,-0.11,-0.354,9.801,0.15809443380460933,2.166027332582441,1.4528320802005015,0,0.2
1757393358.5768747,-0.139,-0.205,9.874,0.15824712477640787,1.436916630084518,1.4542857142857142,0,0.15000000000000002
1757393358.6042275,-0.139,-0.205,9.874,0.15824712477640787,1.436916630084518,1.4542857142857142,0,0.15000000000000002
1757393358.6315627,-0.143,-0.19,9.915,0.15840856984393237,1.3739126639037482,1.4544862155388472,0,0.15000000000000002
1757393358.658894,-0.143,-0.19,9.915,0.15840856984393237,1.3739126639037482,1.4544862155388472,0,0.15000000000000002
1757393358.6853158,-0.092,-0.191,9.846,0.1584753450856,1.2334921530338967,1.4570426065162911,0,0.15000000000000002
1757393358.7128475,-0.092,-0.191,9.846,0.1584753450856,1.2334921530338967,1.4570426065162911,0,0.15000000000000002
1757393358.7404282,-0.235,-0.209,9.934,0.15891034421962594,1.8132795719485257,1.4642105263157896,0,0.15000000000000002
1757393358.7677088,-0.235,-0.209,9.934,0.15891034421962594,1.8132795719485257,1.4642105263157896,0,0.15000000000000002
1757393358.795581,-0.112,-0.212,9.858,0.15900898559515433,1.393274867639923,1.470375939849624,0,0.15000000000000002
1757393358.823334,-0.112,-0.212,9.858,0.15900898559515433,1.393274867639923,1.470375939849624,0,0.15000000000000002
1757393358.8505971,-0.201,-0.17,9.86,0.1593262690205228,1.5293690863773521,1.4748370927318297,0,0.15000000000000002
1757393358.8779438,-0.201,-0.17,9.86,0.1593262690205228,1.5293690863773521,1.4748370927318297,0,0.15000000000000002
1757393358.9052052,-0.081,-0.419,9.941,0.1593777352706456,2.458143257859656,1.4808521303258146,0,0.15000000000000002
1757393358.9326363,-0.081,-0.419,9.941,0.1593777352706456,2.458143257859656,1.4808521303258146,0,0.15000000000000002
1757393358.9596958,-0.061,-0.613,9.807,0.15940691641205534,3.594317155679341,1.4818546365914786,0,0.15000000000000002
1757393358.9864638,-0.061,-0.613,9.807,0.15940691641205534,3.594317155679341,1.4818546365914786,0,0.15000000000000002
1757393359.0139966,-0.137,-0.6,9.651,0.15955402689998144,3.648798383966739,1.4856641604010024,0,0.15000000000000002
1757393359.041692,-0.137,-0.6,9.651,0.15955402689998144,3.648798383966739,1.4856641604010024,0,0.15000000000000002
1757393359.0688128,0.035,-0.546,9.817,0.15956362367406926,3.189906114544342,1.4942857142857144,0,0.15000000000000002
1757393359.0960813,0.035,-0.546,9.817,0.15956362367406926,3.189906114544342,1.4942857142857144,0,0.15000000000000002
1757393359.1233997,-0.075,-0.544,9.882,0.15960768308574622,3.180672288560821,1.499799498746867,0,0.15000000000000002
1757393359.1510963,-0.075,-0.544,9.882,0.15960768308574622,3.180672288560821,1.499799498746867,0,0.15000000000000002
1757393359.1785145,-0.147,-0.397,9.587,0.15977682873308008,2.5284168567647294,1.503408521303258,0,0.15000000000000002
1757393359.2058446,-0.193,-0.494,9.695,0.160067977746956,3.1312334006493616,1.5057142857142853,0,0.15000000000000002
1757393359.2328453,-0.193,-0.494,9.695,0.160067977746956,3.1312334006493616,1.5057142857142853,0,0.15000000000000002
1757393359.2596035,-0.193,-0.494,9.695,0.160067977746956,3.1312334006493616,1.5057142857142853,0,0.15000000000000002
1757393359.2871351,0.012,-0.598,9.842,0.16006910226524043,3.4777157148286433,1.515989974937343,0,0.15000000000000002
1757393359.3146117,0.012,-0.598,9.842,0.16006910226524043,3.4777157148286433,1.515989974937343,0,0.15000000000000002
1757393359.3411448,-0.199,-0.445,9.658,0.16037805336142472,2.8894422819389693,1.5265664160401,0,0.15000000000000002
1757393359.3687253,-0.209,-0.294,9.694,0.16071814614411156,2.1310140588889044,1.5270676691729321,0,0.15000000000000002
1757393359.395437,-0.209,-0.294,9.694,0.16071814614411156,2.1310140588889044,1.5270676691729321,0,0.15000000000000002
1757393359.422587,-0.045,-0.211,9.785,0.16073389499417973,1.2630851347496492,1.5352882205513783,0,0.15000000000000002
1757393359.449507,-0.045,-0.211,9.785,0.16073389499417973,1.2630851347496492,1.5352882205513783,0,0.15000000000000002
1757393359.477204,-0.045,-0.211,9.785,0.16073389499417973,1.2630851347496492,1.5352882205513783,0,0.15000000000000002
1757393359.5047605,-0.175,-0.192,9.686,0.16097188419099778,1.5363513954796333,1.5418045112781953,0,0.15000000000000002
1757393359.530213,-0.245,-0.173,9.761,0.16143732529994417,1.7599565201332403,1.5453132832080199,0,0.15000000000000002
1757393359.5572278,-0.245,-0.173,9.761,0.16143732529994417,1.7599565201332403,1.5453132832080199,0,0.15000000000000002
1757393359.583748,-0.116,-0.209,9.8,0.16154148074101585,1.3972340832882493,1.5517794486215537,0,0.15000000000000002
1757393359.6109962,-0.116,-0.209,9.8,0.16154148074101585,1.3972340832882493,1.5517794486215537,0,0.15000000000000002
1757393359.6371796,-0.116,-0.209,9.8,0.16154148074101585,1.3972340832882493,1.5517794486215537,0,0.15000000000000002
1757393359.6644404,-0.134,-0.28,9.631,0.16168036368093683,1.8460366355375697,1.5526817042606516,0,0.2
1757393359.6916554,-0.134,-0.28,9.631,0.16168036368093683,1.8460366355375697,1.5526817042606516,0,0.2
1757393359.7192392,-0.299,-0.355,9.633,0.16237007883227747,2.7585089165897614,1.5609523809523809,0,0.2
1757393359.746093,-0.072,-0.434,9.809,0.16240998275968138,2.567984064816454,1.5723308270676692,0,0.2
1757393359.7740176,-0.072,-0.434,9.809,0.16240998275968138,2.567984064816454,1.5723308270676692,0,0.2
1757393359.801523,-0.176,-0.414,9.817,0.16264821702066087,2.623707047957308,1.577543859649123,0,0.2
1757393359.828362,-0.176,-0.414,9.817,0.16264821702066087,2.623707047957308,1.577543859649123,0,0.2
1757393359.8562589,-0.257,-0.344,9.673,0.16315503363365777,2.5417872980586016,1.5816040100250628,0,0.2
1757393359.8843951,-0.257,-0.344,9.673,0.16315503363365777,2.5417872980586016,1.5816040100250628,0,0.2
1757393359.9100626,-0.222,-0.417,9.784,0.16353218337685094,2.764329803528533,1.5833583959899749,0,0.2
1757393359.935923,-0.222,-0.417,9.784,0.16353218337685094,2.764329803528533,1.5833583959899749,0,0.2
1757393359.9616783,-0.222,-0.417,9.784,0.16353218337685094,2.764329803528533,1.5833583959899749,0,0.2
1757393359.9872444,-0.139,-0.299,9.824,0.16367980174719177,1.9223390732349532,1.587518796992481,0,0.2
1757393360.0130866,-0.139,-0.299,9.824,0.16367980174719177,1.9223390732349532,1.587518796992481,0,0.2
1757393360.0386212,-0.158,-0.385,9.717,0.16387033746227533,2.4523658483786717,1.5884711779448621,0,0.2
1757393360.0639536,-0.158,-0.385,9.717,0.16387033746227533,2.4523658483786717,1.5884711779448621,0,0.2
1757393360.089346,-0.298,-0.343,9.845,0.16454633845819847,2.6424661878378846,1.595488721804511,0,0.2
1757393360.114934,-0.298,-0.343,9.845,0.16454633845819847,2.6424661878378846,1.595488721804511,0,0.2
1757393360.1404035,-0.06,-0.4,9.818,0.1645736841053271,2.3590966699966134,1.6074185463659145,0,0.2
1757393360.1662252,-0.06,-0.4,9.818,0.1645736841053271,2.3590966699966134,1.6074185463659145,0,0.2
1757393360.1919131,-0.201,-0.326,9.636,0.1648802595825225,2.2760317973330224,1.614486215538847,0,0.2
1757393360.21801,-0.201,-0.326,9.636,0.1648802595825225,2.2760317973330224,1.614486215538847,0,0.2
1757393360.24373,0.043,-0.249,9.659,0.16489427673512505,1.4985521894155738,1.6246616541353385,0,0.2
1757393360.2694068,0.043,-0.249,9.659,0.16489427673512505,1.4985521894155738,1.6246616541353385,0,0.2
1757393360.2961195,-0.112,-0.245,9.825,0.16497660440195755,1.5705683739889662,1.6319298245614031,0,0.2
1757393360.3234437,-0.112,-0.245,9.825,0.16497660440195755,1.5705683739889662,1.6319298245614031,0,0.2
1757393360.3508391,-0.079,-0.321,9.591,0.16501660522505,1.9740637101392113,1.633233082706767,0,0.2
1757393360.378523,-0.079,-0.321,9.591,0.16501660522505,1.9740637101392113,1.633233082706767,0,0.2
1757393360.4058204,-0.155,-0.338,9.595,0.16518756763146553,2.2193346126778066,1.6369924812030074,0,0.2
1757393360.432674,-0.155,-0.338,9.595,0.16518756763146553,2.2193346126778066,1.6369924812030074,0,0.2
1757393360.4597015,-0.052,-0.373,9.779,0.1651976694750867,2.2054756085886296,1.6420050125313281,0,0.2
1757393360.4867585,-0.052,-0.373,9.779,0.1651976694750867,2.2054756085886296,1.6420050125313281,0,0.2
1757393360.5142546,-0.127,-0.241,9.63,0.16531092674109596,1.6203609092200983,1.645614035087719,0,0.2
1757393360.5411425,-0.127,-0.241,9.63,0.16531092674109596,1.6203609092200983,1.645614035087719,0,0.2
1757393360.5672867,-0.286,-0.359,9.597,0.16591796165575323,2.7381982589062748,1.6526817042606514,0,0.2
1757393360.593517,-0.286,-0.359,9.597,0.16591796165575323,2.7381982589062748,1.6526817042606514,0,0.2
1757393360.6208599,0.045,-0.277,9.658,0.16591042764094127,1.6643687822382216,1.6690225563909773,0,0.2
1757393360.6482337,0.045,-0.277,9.658,0.16591042764094127,1.6643687822382216,1.6690225563909773,0,0.2
1757393360.6753917,-0.192,-0.27,9.816,0.1661608557994331,1.9330950733313128,1.6799498746867167,0,0.2
1757393360.7027998,-0.192,-0.27,9.816,0.1661608557994331,1.9330950733313128,1.6799498746867167,0,0.2
1757393360.7307966,-0.253,-0.367,9.714,0.1665948678681309,2.627342717944597,1.6826065162907267,0,0.2
1757393360.7582572,-0.253,-0.367,9.714,0.1665948678681309,2.627342717944597,1.6826065162907267,0,0.2
1757393360.7856297,-0.105,-0.264,9.767,0.16662079702126023,1.6662196766446287,1.6898245614035088,0,0.2
1757393360.8124506,-0.105,-0.264,9.767,0.16662079702126023,1.6662196766446287,1.6898245614035088,0,0.2
1757393360.8398068,-0.146,-0.285,9.733,0.1667185577552781,1.8843781394563872,1.691829573934837,0,0.2
1757393360.8662477,-0.146,-0.285,9.733,0.1667185577552781,1.8843781394563872,1.691829573934837,0,0.2
1757393360.8926651,-0.303,-0.366,9.653,0.1673422839571637,2.81798225138314,1.6989974937343355,0,0.2
1757393360.9198148,-0.303,-0.366,9.653,0.1673422839571637,2.81798225138314,1.6989974937343355,0,0.2
1757393360.9475253,-0.136,-0.465,9.757,0.16739650533986664,2.842665456755303,1.7073182957393485,0,0.2
1757393360.9751456,-0.136,-0.465,9.757,0.16739650533986664,2.842665456755303,1.7073182957393485,0,0.2
1757393361.0026033,-0.199,-0.542,9.84,0.1676097550860331,3.3580708873163605,1.710426065162907,0,0.2
1757393361.030532,-0.199,-0.542,9.84,0.1676097550860331,3.3580708873163605,1.710426065162907,0,0.2
1757393361.0579093,-0.256,-0.488,9.764,0.1680142255881924,3.230297058656595,1.7122305764411023,0,0.2
1757393361.084811,-0.256,-0.488,9.764,0.1680142255881924,3.230297058656595,1.7122305764411023,0,0.2
1757393361.1119452,-0.147,-0.545,9.812,0.16805499099997,3.2925525946301253,1.7174436090225564,0,0.2
1757393361.1392255,-0.147,-0.545,9.812,0.16805499099997,3.2925525946301253,1.7174436090225564,0,0.2
1757393361.1654875,-0.156,-0.342,9.889,0.168106394881337,2.176869010020933,1.716441102756892,0,0.2
1757393361.1927547,-0.156,-0.342,9.889,0.168106394881337,2.176869010020933,1.716441102756892,0,0.2
1757393361.219681,-0.138,-0.431,9.867,0.16805525133122143,2.6260532403798797,1.716892230576441,0,0.2
1757393361.2470083,-0.138,-0.431,9.867,0.16805525133122143,2.6260532403798797,1.716892230576441,0,0.2
1757393361.2743115,-0.294,-0.283,9.773,0.16848266231277328,2.391014703619316,1.7243107769423558,0,0.2
1757393361.301608,-0.294,-0.283,9.773,0.16848266231277328,2.391014703619316,1.7243107769423558,0,0.2
1757393361.3291945,-0.102,-0.406,9.902,0.16832470852492215,2.420793812566498,1.7330325814536338,0,0.2
1757393361.3574831,-0.102,-0.406,9.902,0.16832470852492215,2.420793812566498,1.7330325814536338,0,0.2
1757393361.3848925,-0.211,-0.41,9.866,0.1683700389024128,2.675892609632943,1.7378446115288217,0,0.2
1757393361.4126253,-0.211,-0.41,9.866,0.1683700389024128,2.675892609632943,1.7378446115288217,0,0.2
1757393361.4389868,-0.194,-0.45,9.859,0.1683251540917162,2.845516689694585,1.738045112781955,0,0.2
1757393361.465896,-0.194,-0.45,9.859,0.1683251540917162,2.845516689694585,1.738045112781955,0,0.2
1757393361.492443,-0.293,-0.428,9.913,0.1685964709001941,2.99519044464473,1.7430075187969922,0,0.2
1757393361.519764,-0.293,-0.428,9.913,0.1685964709001941,2.99519044464473,1.7430075187969922,0,0.2
1757393361.546931,-0.06,-0.358,9.835,0.16825742182738923,2.113730274475089,1.7546365914786968,0,0.2
1757393361.574846,-0.06,-0.358,9.835,0.16825742182738923,2.113730274475089,1.7546365914786968,0,0.2
1757393361.6024365,-0.151,-0.417,9.776,0.16806385691159179,2.5974961293718493,1.7586967418546366,0,0.2
1757393361.630425,-0.151,-0.417,9.776,0.16806385691159179,2.5974961293718493,1.7586967418546366,0,0.2
1757393361.6580575,-0.178,-0.363,9.826,0.16790255358391662,2.3561200947342313,1.76,0,0.2
1757393361.685347,-0.178,-0.363,9.826,0.16790255358391662,2.3561200947342313,1.76,0,0.2
1757393361.712818,-0.253,-0.163,9.849,0.16797836170173824,1.750276801292719,1.7631077694235588,0,0.2
1757393361.740466,-0.253,-0.163,9.849,0.16797836170173824,1.750276801292719,1.7631077694235588,0,0.2
1757393361.7682002,-0.16,-0.347,9.682,0.16772199468167553,2.2600707626068792,1.767218045112782,0,0.2
1757393361.7959788,-0.16,-0.347,9.682,0.16772199468167553,2.2600707626068792,1.767218045112782,0,0.2
1757393361.823246,-0.416,-0.522,9.829,0.16852141555303884,3.8849940263126377,1.7796491228070173,0,0.2
1757393361.851173,-0.416,-0.522,9.829,0.16852141555303884,3.8849940263126377,1.7796491228070173,0,0.2
1757393361.87851,-0.212,-0.39,9.852,0.16839853770148955,2.5798010190990337,1.7895739348370927,0,0.2
1757393361.906305,-0.244,-0.263,9.791,0.16840575257395454,2.0984520280722063,1.791077694235589,0,0.2
1757393361.933265,-0.244,-0.263,9.791,0.16840575257395454,2.0984520280722063,1.791077694235589,0,0.2
1757393361.9602394,-0.252,-0.275,9.791,0.16844956960467428,2.1816970549976973,1.7914786967418546,0,0.2
1757393361.9872181,-0.252,-0.275,9.791,0.16844956960467428,2.1816970549976973,1.7914786967418546,0,0.2
1757393362.0147436,-0.252,-0.275,9.791,0.16844956960467428,2.1816970549976973,1.7914786967418546,0,0.2
1757393362.0425441,-0.289,-0.331,9.939,0.16864180976258528,2.531442803386944,1.7932330827067668,0,0.2
1757393362.0687435,-0.277,-0.315,9.842,0.16879061733402126,2.440484687418251,1.7933834586466164,0,0.2
1757393362.0960667,-0.277,-0.315,9.842,0.16879061733402126,2.440484687418251,1.7933834586466164,0,0.2
1757393362.1229672,-0.26,-0.37,9.733,0.16883942075238234,2.660175858626911,1.7940852130325813,0,0.2
1757393362.150317,-0.26,-0.37,9.733,0.16883942075238234,2.660175858626911,1.7940852130325813,0,0.2
1757393362.1774817,-0.23,-0.409,9.773,0.16879028408057142,2.748851398392188,1.795438596491228,0,0.2
1757393362.20577,-0.23,-0.409,9.773,0.16879028408057142,2.748851398392188,1.795438596491228,0,0.2
1757393362.2332923,-0.23,-0.409,9.773,0.16879028408057142,2.748851398392188,1.795438596491228,0,0.2
1757393362.2604897,-0.085,-0.401,9.797,0.16841324175966688,2.3958770834775778,1.8021052631578947,0,0.2
1757393362.2870028,-0.27,-0.401,9.743,0.1684792197868924,2.8405614867047064,1.8113784461152882,0,0.2
1757393362.3146622,-0.27,-0.401,9.743,0.1684792197868924,2.8405614867047064,1.8113784461152882,0,0.2
1757393362.3422627,0.008,-0.458,9.794,0.16800412197324208,2.6777984356583864,1.825112781954887,0,0.2
1757393362.369774,0.008,-0.458,9.794,0.16800412197324208,2.6777984356583864,1.825112781954887,0,0.2
1757393362.3968062,-0.115,-0.45,9.747,0.1676408214009941,2.7281830829189238,1.831177944862155,0,0.2
1757393362.424051,-0.115,-0.45,9.747,0.1676408214009941,2.7281830829189238,1.831177944862155,0,0.2
1757393362.4515579,-0.058,-0.542,9.612,0.1672104437527752,3.2457550684877328,1.833984962406015,0,0.2
1757393362.4790378,-0.058,-0.542,9.612,0.1672104437527752,3.2457550684877328,1.833984962406015,0,0.2
1757393362.5066311,-0.058,-0.542,9.612,0.1672104437527752,3.2457550684877328,1.833984962406015,0,0.2
1757393362.5342157,-0.263,-0.562,9.784,0.16727511769537035,3.6287968243301747,1.84390977443609,0,0.2
1757393362.5618315,0.202,-0.492,9.685,0.16715314086190544,3.1432499911553577,1.8671679197994988,0,0.2
1757393362.5887616,0.202,-0.492,9.685,0.16715314086190544,3.1432499911553577,1.8671679197994988,0,0.2
1757393362.6158834,-0.083,-0.511,9.724,0.16678064935717213,3.0474975372074167,1.8812531328320798,0,0.2
1757393362.6437025,-0.083,-0.511,9.724,0.16678064935717213,3.0474975372074167,1.8812531328320798,0,0.2
1757393362.6703022,-0.15,-0.401,9.647,0.1665387192216873,2.5411358535271136,1.8840601503759398,0,0.2
1757393362.6975257,-0.15,-0.401,9.647,0.1665387192216873,2.5411358535271136,1.8840601503759398,0,0.2
1757393362.7251823,-0.014,-0.383,9.699,0.16608904990998052,2.2628642903379594,1.8906265664160398,0,0.2
1757393362.7529352,-0.014,-0.383,9.699,0.16608904990998052,2.2628642903379594,1.8906265664160398,0,0.2
1757393362.7804017,-0.048,-0.48,9.539,0.16563539024012952,2.8950221866764903,1.892280701754386,0,0.2
1757393362.8078928,-0.048,-0.48,9.539,0.16563539024012952,2.8950221866764903,1.892280701754386,0,0.2
1757393362.835346,-0.193,-0.483,9.58,0.16544093356844913,3.1077427930838106,1.899047619047619,0,0.2
1757393362.8617096,-0.193,-0.483,9.58,0.16544093356844913,3.1077427930838106,1.899047619047619,0,0.2
1757393362.888412,0.114,-0.414,9.576,0.16502390735890363,2.5675486973454666,1.9138345864661652,0,0.2
1757393362.9154859,0.114,-0.414,9.576,0.16502390735890363,2.5675486973454666,1.9138345864661652,0,0.2
1757393362.9426782,0.128,-0.476,9.422,0.1646780115862467,2.994685319697009,1.9141353383458644,0,0.2
1757393362.970457,0.128,-0.476,9.422,0.1646780115862467,2.994685319697009,1.9141353383458644,0,0.2
1757393362.9979792,-0.077,-0.499,9.41,0.16422103245321532,3.071335241673998,1.92406015037594,0,0.2
1757393363.0256515,-0.077,-0.499,9.41,0.16422103245321532,3.071335241673998,1.92406015037594,0,0.2
1757393363.053685,0.2,-0.451,9.491,0.16404967997530503,2.975645076770411,1.9378446115288221,0,0.2
1757393363.0815237,0.2,-0.451,9.491,0.16404967997530503,2.975645076770411,1.9378446115288221,0,0.2
1757393363.109279,0.005,-0.333,9.471,0.16358056119233727,2.013914708099076,1.9467167919799495,0,0.2
1757393363.1370468,0.005,-0.333,9.471,0.16358056119233727,2.013914708099076,1.9467167919799495,0,0.2
1757393363.1646795,0.116,-0.439,9.375,0.1632788718726339,2.7728872715515562,1.9519799498746868,0,0.2
1757393363.1916695,0.116,-0.439,9.375,0.1632788718726339,2.7728872715515562,1.9519799498746868,0,0.2
1757393363.2190397,-0.057,-0.165,9.479,0.1628768629977874,1.0550565780100627,1.9604010025062657,0,0.2
1757393363.2468972,-0.057,-0.165,9.479,0.1628768629977874,1.0550565780100627,1.9604010025062657,0,0.2
1757393363.2744606,-0.035,-0.165,9.603,0.16243993505292964,1.0062645743340064,1.9614035087719297,0,0.2
1757393363.3022795,-0.035,-0.165,9.603,0.16243993505292964,1.0062645743340064,1.9614035087719297,0,0.2
1757393363.3297236,-0.017,-0.221,9.557,0.1620020138763713,1.3286071253556087,1.9620050125313284,0,0.2
1757393363.3574204,-0.017,-0.221,9.557,0.1620020138763713,1.3286071253556087,1.9620050125313284,0,0.2
1757393363.3848467,-0.1,-0.279,9.617,0.16165992082145778,1.7652012055289594,1.965964912280702,0,0.2
1757393363.4127696,-0.1,-0.279,9.617,0.16165992082145778,1.7652012055289594,1.965964912280702,0,0.2
1757393363.4410467,-0.018,-0.216,9.756,0.16125643398016712,1.2727289043773697,1.9697243107769424,0,0.2
1757393363.4689145,-0.018,-0.216,9.756,0.16125643398016712,1.2727289043773697,1.9697243107769424,0,0.2
1757393363.4966116,-0.063,-0.317,9.658,0.16090478550994064,1.916656319790386,1.9708771929824558,0,0.2
1757393363.5240197,-0.063,-0.317,9.658,0.16090478550994064,1.916656319790386,1.9708771929824558,0,0.2
1757393363.551052,-0.135,-0.36,9.625,0.16073553589670206,2.287520522186142,1.9742857142857142,0,0.2
1757393363.5773075,-0.135,-0.36,9.625,0.16073553589670206,2.287520522186142,1.9742857142857142,0,0.2
1757393363.6048608,0.207,-0.208,9.637,0.1607700065310691,1.7441384547359895,1.9911779448621554,0,0.2
1757393363.6322272,0.207,-0.208,9.637,0.1607700065310691,1.7441384547359895,1.9911779448621554,0,0.2
1757393363.6598341,-0.031,-0.216,9.679,0.16049359800316024,1.2915154120823784,2.0025563909774435,0,0.2
1757393363.6873949,-0.031,-0.216,9.679,0.16049359800316024,1.2915154120823784,2.0025563909774435,0,0.2
1757393363.7144206,0.026,-0.299,9.678,0.16024632601092606,1.776252933285744,2.005263157894737,0,0.2
1757393363.742695,0.158,-0.305,9.739,0.16019666819256884,2.0199891626987503,2.011629072681704,0,0.2
1757393363.7701726,0.158,-0.305,9.739,0.16019666819256884,2.0199891626987503,2.011629072681704,0,0.2
1757393363.7970133,0.246,-0.129,9.617,0.1604378462208964,1.654435942597179,2.015989974937343,0,0.2
1757393363.8236609,0.246,-0.129,9.617,0.1604378462208964,1.654435942597179,2.015989974937343,0,0.2
1757393363.8503568,0.116,-0.357,9.615,0.16031481528542518,2.235712979824138,2.022456140350877,0,0.2
1757393363.877928,0.116,-0.357,9.615,0.16031481528542518,2.235712979824138,2.022456140350877,0,0.2
1757393363.904204,0.116,-0.357,9.615,0.16031481528542518,2.235712979824138,2.022456140350877,0,0.2
1757393363.9309692,0.032,-0.378,9.726,0.16009197356519783,2.2336275079000494,2.026516290726817,0,0.2
1757393363.9584477,-0.044,-0.436,9.787,0.15988395010131567,2.563715751340131,2.019047619047619,0,0.2
1757393363.9859648,-0.044,-0.436,9.787,0.15988395010131567,2.563715751340131,2.019047619047619,0,0.2
1757393364.0137405,-0.158,-0.32,9.754,0.16005451415064806,2.0954125600548608,2.0173433583959897,0,0.2
1757393364.041233,-0.158,-0.32,9.754,0.16005451415064806,2.0954125600548608,2.0173433583959897,0,0.2
1757393364.0687213,-0.107,-0.329,9.677,0.15981874107876087,2.047509372387699,2.017794486215539,0,0.2
1757393364.0960653,-0.107,-0.329,9.677,0.15981874107876087,2.047509372387699,2.017794486215539,0,0.2
1757393364.123742,-0.14,-0.265,9.722,0.1597667675081398,1.765745496298595,2.0077192982456142,0,0.2
1757393364.150785,-0.14,-0.265,9.722,0.1597667675081398,1.765745496298595,2.0077192982456142,0,0.2
1757393364.1776693,-0.154,-0.244,9.71,0.159911694381618,1.702052544376406,1.9946365914786968,0,0.2
1757393364.2042527,-0.154,-0.244,9.71,0.159911694381618,1.702052544376406,1.9946365914786968,0,0.2
1757393364.230294,-0.212,-0.191,9.705,0.15994088751785768,1.684150402730764,1.9904260651629073,0,0.2
1757393364.2584713,-0.212,-0.191,9.705,0.15994088751785768,1.684150402730764,1.9904260651629073,0,0.2
1757393364.2862206,-0.118,-0.222,9.76,0.16002060804783863,1.4755801635912684,1.989924812030075,0,0.2
1757393364.3141475,-0.118,-0.222,9.76,0.16002060804783863,1.4755801635912684,1.989924812030075,0,0.2
1757393364.3412452,-0.117,-0.407,9.735,0.16011306942283005,2.4908588440748067,1.9865664160401002,0,0.2
1757393364.3688812,-0.117,-0.407,9.735,0.16011306942283005,2.4908588440748067,1.9865664160401002,0,0.2
1757393364.396166,-0.194,-0.338,9.742,0.16040175341934387,2.2908322751552,1.9904260651629069,0,0.2
1757393364.4233851,-0.194,-0.338,9.742,0.16040175341934387,2.2908322751552,1.9904260651629069,0,0.2
1757393364.4503827,-0.1,-0.249,9.907,0.16047479552876834,1.551470667316173,1.993082706766917,0,0.2
1757393364.47753,-0.1,-0.249,9.907,0.16047479552876834,1.551470667316173,1.993082706766917,0,0.2
1757393364.5052722,-0.007,-0.392,9.76,0.16047318311792785,2.3003540116243895,1.995238095238095,0,0.2
1757393364.5309186,-0.007,-0.392,9.76,0.16047318311792785,2.3003540116243895,1.995238095238095,0,0.2
1757393364.5579298,-0.099,-0.582,9.634,0.1605155911430413,3.506632354379573,1.9988972431077694,0,0.2
1757393364.5853748,-0.099,-0.582,9.634,0.1605155911430413,3.506632354379573,1.9988972431077694,0,0.2
1757393364.612884,-0.176,-0.332,9.734,0.1607004433721326,2.210716464991813,2.0022556390977444,0,0.2
1757393364.6404612,-0.176,-0.332,9.734,0.1607004433721326,2.210716464991813,2.0022556390977444,0,0.2
1757393364.6680052,0.023,-0.254,9.668,0.16066079951251333,1.5110966391101257,2.0109273182957397,0,0.2
1757393364.6955872,0.023,-0.254,9.668,0.16066079951251333,1.5110966391101257,2.0109273182957397,0,0.2
1757393364.7231221,-0.077,-0.397,9.636,0.1606275583453848,2.403147386242372,2.012130325814536,0,0.2
1757393364.7508523,-0.077,-0.397,9.636,0.1606275583453848,2.403147386242372,2.012130325814536,0,0.2
1757393364.778294,-0.137,-0.142,9.689,0.16052978695556785,1.1666553705826996,2.0149874686716793,0,0.2
1757393364.8047802,-0.137,-0.142,9.689,0.16052978695556785,1.1666553705826996,2.0149874686716793,0,0.2
1757393364.8322809,-0.2,-0.099,9.777,0.1605889550996581,1.3075570461961286,2.0165413533834586,0,0.2
1757393364.8604546,-0.2,-0.099,9.777,0.1605889550996581,1.3075570461961286,2.0165413533834586,0,0.2
1757393364.888251,-0.216,-0.185,9.744,0.16060228049439398,1.6718039163713703,2.0068671679197996,0,0.2
1757393364.9158025,-0.216,-0.185,9.744,0.16060228049439398,1.6718039163713703,2.0068671679197996,0,0.2
1757393364.9425151,-0.255,-0.155,9.737,0.16110751844653307,1.75540975926395,1.9929824561403504,0,0.2
1757393364.9703455,-0.255,-0.155,9.737,0.16110751844653307,1.75540975926395,1.9929824561403504,0,0.2
1757393364.9977906,-0.135,-0.033,9.714,0.16045807084718425,0.8196548611902731,1.995689223057644,0,0.2
1757393365.0255146,-0.135,-0.033,9.714,0.16045807084718425,0.8196548611902731,1.995689223057644,0,0.2
1757393365.0525742,-0.277,-0.154,9.636,0.160557131576271,1.883794279809004,1.9992982456140351,0,0.2
1757393365.0794876,-0.277,-0.154,9.636,0.160557131576271,1.883794279809004,1.9992982456140351,0,0.2
1757393365.1068735,-0.259,-0.148,9.712,0.16081844577037796,1.7592835609872362,1.9976942355889722,0,0.2
1757393365.1345327,-0.259,-0.148,9.712,0.16081844577037796,1.7592835609872362,1.9976942355889722,0,0.2
1757393365.1623468,-0.336,-0.124,9.801,0.1615567702078746,2.0927867556332633,1.9982456140350877,0,0.2
1757393365.1900408,-0.336,-0.124,9.801,0.1615567702078746,2.0927867556332633,1.9982456140350877,0,0.2
1757393365.2167614,-0.278,-0.212,9.824,0.16211902263460634,2.038151167310034,1.9972431077694235,0,0.2
1757393365.2439227,-0.278,-0.212,9.824,0.16211902263460634,2.038151167310034,1.9972431077694235,0,0.2
1757393365.2715113,-0.303,-0.142,9.769,0.16266387890370745,1.9618211487431931,1.9965413533834586,0,0.2
1757393365.2979085,-0.303,-0.142,9.769,0.16266387890370745,1.9618211487431931,1.9965413533834586,0,0.2
1757393365.3251133,-0.242,-0.153,9.964,0.16302716798129077,1.6459053006593198,1.993734335839599,0,0.2
1757393365.3527236,-0.242,-0.153,9.964,0.16302716798129077,1.6459053006593198,1.993734335839599,0,0.2
1757393365.3802912,-0.29,-0.214,9.903,0.16366980479001006,2.0843090135031566,1.9827568922305765,0,0.2
1757393365.407376,-0.29,-0.214,9.903,0.16366980479001006,2.0843090135031566,1.9827568922305765,0,0.2
1757393365.43454,-0.373,-0.18,9.776,0.16423089691041695,2.4258871601611474,1.9776942355889724,0,0.2
1757393365.462215,-0.373,-0.18,9.776,0.16423089691041695,2.4258871601611474,1.9776942355889724,0,0.2
1757393365.4904537,-0.167,-0.152,9.862,0.16440361918157398,1.3117075932587867,1.9804010025062657,0,0.2
1757393365.5184984,-0.167,-0.152,9.862,0.16440361918157398,1.3117075932587867,1.9804010025062657,0,0.2
1757393365.545956,-0.245,-0.264,9.935,0.16447848643515664,2.0762027288637737,1.980501253132832,0,0.2
1757393365.5737343,-0.245,-0.264,9.935,0.16447848643515664,2.0762027288637737,1.980501253132832,0,0.2
1757393365.6017106,-0.26,-0.37,9.807,0.16482540004501733,2.640131662958286,1.9807017543859649,0,0.2
1757393365.6284711,-0.26,-0.37,9.807,0.16482540004501733,2.640131662958286,1.9807017543859649,0,0.2
1757393365.6557312,-0.293,-0.213,9.836,0.16528409633113525,2.10913602574499,1.976441102756892,0,0.2
1757393365.6833017,-0.293,-0.213,9.836,0.16528409633113525,2.10913602574499,1.976441102756892,0,0.2
1757393365.7110379,-0.224,-0.296,9.882,0.16508316086142766,2.151224042233599,1.9765413533834584,0,0.2
1757393365.7393548,-0.224,-0.296,9.882,0.16508316086142766,2.151224042233599,1.9765413533834584,0,0.2
1757393365.7669723,-0.282,-0.377,9.739,0.1647890166242884,2.7676241458275457,1.9753383458646616,0,0.2
1757393365.794991,-0.296,-0.283,9.652,0.16493286513002797,2.4295057300802783,1.9755388471177942,0,0.2
1757393365.823031,-0.296,-0.283,9.652,0.16493286513002797,2.4295057300802783,1.9755388471177942,0,0.2
1757393365.8513668,-0.187,-0.375,9.702,0.1646369111104797,2.4731266791977187,1.9757894736842103,0,0.2
1757393365.8802283,-0.187,-0.375,9.702,0.1646369111104797,2.4731266791977187,1.9757894736842103,0,0.2
1757393365.9078724,-0.141,-0.565,9.701,0.1637118657886471,3.4352080436413015,1.970225563909774,0,0.2
1757393365.9351401,-0.141,-0.565,9.701,0.1637118657886471,3.4352080436413015,1.970225563909774,0,0.2
1757393365.9627938,-0.272,-0.588,9.691,0.1639104404850405,3.824655078295058,1.9649122807017543,0,0.2
1757393365.9898996,-0.272,-0.588,9.691,0.1639104404850405,3.824655078295058,1.9649122807017543,0,0.2
1757393366.0168254,-0.331,-0.454,9.823,0.1631584965608595,3.273610629572384,1.960802005012531,0,0.2
1757393366.0438879,-0.331,-0.454,9.823,0.1631584965608595,3.273610629572384,1.960802005012531,0,0.2
1757393366.0708396,-0.088,-0.324,9.712,0.1624561248460642,1.9798921695562675,1.9706766917293232,0,0.2
1757393366.0988767,-0.088,-0.324,9.712,0.1624561248460642,1.9798921695562675,1.9706766917293232,0,0.2
1757393366.1267564,-0.195,-0.442,9.758,0.1621917152631416,2.8343113461823637,1.9739348370927317,0,0.2
1757393366.154274,-0.195,-0.442,9.758,0.1621917152631416,2.8343113461823637,1.9739348370927317,0,0.2
1757393366.1823947,-0.278,-0.283,9.8,0.16239008590428172,2.3180597306718194,1.9754887218045114,0,0.2
1757393366.2100296,-0.278,-0.283,9.8,0.16239008590428172,2.3180597306718194,1.9754887218045114,0,0.2
1757393366.2375288,0.007,-0.138,9.745,0.16179017275471338,0.812360451636242,1.9767919799498748,0,0.2
1757393366.265105,0.007,-0.138,9.745,0.16179017275471338,0.812360451636242,1.9767919799498748,0,0.2
1757393366.2927058,-0.286,-0.207,9.74,0.1624178253764038,2.0759219000914855,1.9881203007518797,0,0.2
1757393366.3191788,-0.286,-0.207,9.74,0.1624178253764038,2.0759219000914855,1.9881203007518797,0,0.2
1757393366.3467848,-0.286,-0.207,9.74,0.1624178253764038,2.0759219000914855,1.9881203007518797,0,0.2
1757393366.3732767,-0.241,-0.119,9.735,0.16280611167889245,1.5815074468071397,1.9899248120300752,0,0.2
1757393366.40048,-0.448,-0.15,9.887,0.16429357869375175,2.7357654616899567,1.999047619047619,0,0.2
1757393366.4261816,-0.448,-0.15,9.887,0.16429357869375175,2.7357654616899567,1.999047619047619,0,0.2
1757393366.4536908,-0.291,-0.246,9.763,0.16485617974464892,2.235104263799507,1.9955388471177946,0,0.2
1757393366.4811876,-0.291,-0.246,9.763,0.16485617974464892,2.235104263799507,1.9955388471177946,0,0.2
1757393366.5081358,-0.478,-0.233,9.925,0.16646420035551188,3.0668747275175408,1.9957393483709271,0,0.2
1757393366.5348234,-0.478,-0.233,9.925,0.16646420035551188,3.0668747275175408,1.9957393483709271,0,0.2
1757393366.5612025,-0.288,-0.236,9.841,0.16705983209616845,2.1668086673154265,2.0016040100250625,0,0.2
1757393366.5879858,-0.288,-0.236,9.841,0.16705983209616845,2.1668086673154265,2.0016040100250625,0,0.2
1757393366.6149023,-0.372,-0.419,9.873,0.1680906228794456,3.248139558495996,2.0035588972431078,0,0.2
1757393366.6417632,-0.372,-0.419,9.873,0.1680906228794456,3.248139558495996,2.0035588972431078,0,0.2
1757393366.6681764,-0.387,-0.517,9.96,0.1691936095128891,3.709830057207793,2.004160401002506,0,0.2
1757393366.6956882,-0.387,-0.517,9.96,0.1691936095128891,3.709830057207793,2.004160401002506,0,0.2
1757393366.721781,-0.009,-0.33,10.015,0.16918566724164313,1.8879472387673149,2.019047619047619,0,0.2
1757393366.7491753,-0.009,-0.33,10.015,0.16918566724164313,1.8879472387673149,2.019047619047619,0,0.2
1757393366.7766507,-0.276,-0.376,9.99,0.1697312802638335,2.6731505116340895,2.0216541353383457,0,0.2
1757393366.8040202,-0.276,-0.376,9.99,0.1697312802638335,2.6731505116340895,2.0216541353383457,0,0.2
1757393366.8305402,-0.129,-0.379,9.941,0.16964595485893558,2.3062177243447928,2.02796992481203,0,0.2
1757393366.8578522,-0.129,-0.379,9.941,0.16964595485893558,2.3062177243447928,2.02796992481203,0,0.2
1757393366.885121,-0.201,-0.356,10.065,0.16978436323760795,2.3259827227672054,2.0303759398496237,0,0.2
1757393366.91165,-0.201,-0.356,10.065,0.16978436323760795,2.3259827227672054,2.0303759398496237,0,0.2
1757393366.9390144,0.068,-0.309,9.873,0.169707004864266,1.8354931896557942,2.0413032581453634,0,0.2
1757393366.966927,0.068,-0.309,9.873,0.169707004864266,1.8354931896557942,2.0413032581453634,0,0.2
1757393366.9944203,-0.176,-0.423,9.953,0.16989687313190904,2.6355639362928276,2.041704260651629,0,0.2
1757393367.0214193,-0.176,-0.423,9.953,0.16989687313190904,2.6355639362928276,2.041704260651629,0,0.2
1757393367.048093,-0.176,-0.423,9.953,0.16989687313190904,2.6355639362928276,2.041704260651629,0,0.2
1757393367.0752244,0.144,-0.38,9.793,0.16935060525430667,2.3761763670565843,2.046867167919799,0,0.2
1757393367.1034374,-0.05,-0.293,9.776,0.16930792952487486,1.7415200772959374,2.0565413533834587,0,0.2
1757393367.1313806,-0.05,-0.293,9.776,0.16930792952487486,1.7415200772959374,2.0565413533834587,0,0.2
1757393367.1589556,-0.115,-0.5,9.807,0.16934307632731846,2.994706672980289,2.056691729323308,0,0.2
1757393367.1864834,-0.115,-0.5,9.807,0.16934307632731846,2.994706672980289,2.056691729323308,0,0.2
1757393367.2137907,-0.027,-0.471,9.77,0.16917331349831746,2.764548225410271,2.0560902255639095,0,0.2
1757393367.2411933,-0.027,-0.471,9.77,0.16917331349831746,2.764548225410271,2.0560902255639095,0,0.2
1757393367.2693346,0.05,-0.533,9.616,0.1691702396995405,3.1864701970321097,2.0570927318295738,0,0.2
1757393367.2968516,0.05,-0.533,9.616,0.1691702396995405,3.1864701970321097,2.0570927318295738,0,0.2
1757393367.3246038,0.028,-0.547,9.418,0.16908497124227215,3.328362387502475,2.0552882205513785,0,0.2
1757393367.3519852,0.028,-0.547,9.418,0.16908497124227215,3.328362387502475,2.0552882205513785,0,0.2
1757393367.380077,-0.053,-0.657,9.675,0.16908497124227215,3.8974001629235753,2.0592982456140354,0,0.2
1757393367.406821,-0.053,-0.657,9.675,0.16908497124227215,3.8974001629235753,2.0592982456140354,0,0.2
1757393367.4337695,0.171,-0.431,9.576,0.16928103851288248,2.7721751707590716,2.0699749373433587,0,0.2
1757393367.461225,0.171,-0.431,9.576,0.16928103851288248,2.7721751707590716,2.0699749373433587,0,0.2
1757393367.4890409,-0.054,-0.509,9.585,0.16929015771745268,3.056795251214203,2.0729323308270673,0,0.2
1757393367.5165088,-0.054,-0.509,9.585,0.16929015771745268,3.056795251214203,2.0729323308270673,0,0.2
1757393367.5444238,-0.116,-0.447,9.764,0.16907298719783714,2.707890702983409,2.071679197994987,0,0.2
1757393367.5709906,-0.116,-0.447,9.764,0.16907298719783714,2.707890702983409,2.071679197994987,0,0.2
1757393367.59862,-0.068,-0.374,9.716,0.16900069526484202,2.2405136995820003,2.0698245614035087,0,0.2
1757393367.6262789,-0.068,-0.374,9.716,0.16900069526484202,2.2405136995820003,2.0698245614035087,0,0.2
1757393367.6532643,-0.024,-0.4,9.634,0.16899589492055717,2.381804109496593,2.067268170426065,0,0.2
1757393367.6802926,-0.024,-0.4,9.634,0.16899589492055717,2.381804109496593,2.067268170426065,0,0.2
1757393367.7079172,-0.083,-0.452,9.723,0.16892183103435743,2.7060699431658697,2.065764411027569,0,0.2
1757393367.7348294,-0.083,-0.452,9.723,0.16892183103435743,2.7060699431658697,2.065764411027569,0,0.2
1757393367.7624805,-0.224,-0.303,9.788,0.1692803074784542,2.204628907538031,2.069874686716792,0,0.2
1757393367.789413,-0.224,-0.303,9.788,0.1692803074784542,2.204628907538031,2.069874686716792,0,0.2
1757393367.8162217,0.035,-0.268,9.676,0.16921549869914398,1.6000037428161484,2.0801503759398496,0,0.2
1757393367.8444123,0.035,-0.268,9.676,0.16921549869914398,1.6000037428161484,2.0801503759398496,0,0.2
1757393367.8720226,-0.021,-0.292,9.61,0.1690434781350644,1.7448899171162984,2.0809523809523807,0,0.2
1757393367.8988,-0.021,-0.292,9.61,0.1690434781350644,1.7448899171162984,2.0809523809523807,0,0.2
1757393367.9257743,0.154,-0.278,9.541,0.16894051467898397,1.9077825923359417,2.078145363408521,0,0.2
1757393367.9530537,0.154,-0.278,9.541,0.16894051467898397,1.9077825923359417,2.078145363408521,0,0.2
1757393367.9796805,0.047,-0.182,9.614,0.16894672977006686,1.120091343817612,2.0764912280701755,0,0.2
1757393368.00752,0.047,-0.182,9.614,0.16894672977006686,1.120091343817612,2.0764912280701755,0,0.2
1757393368.0349462,0.111,-0.279,9.595,0.1689593960098106,1.792452715294481,2.076992481203007,0,0.2
1757393368.062242,0.111,-0.279,9.595,0.1689593960098106,1.792452715294481,2.076992481203007,0,0.2
1757393368.0901039,-0.043,-0.24,9.652,0.1689553121390387,1.447055681093176,2.079548872180451,0,0.2
1757393368.1176655,-0.043,-0.24,9.652,0.1689553121390387,1.447055681093176,2.079548872180451,0,0.2
1757393368.145604,0.081,-0.119,9.628,0.16898227717722353,0.8565841371976012,2.08265664160401,0,0.2
1757393368.1732795,0.042,-0.27,9.529,0.1689948519925977,1.642524808826789,2.08375939849624,0,0.2
1757393368.201359,0.042,-0.27,9.529,0.1689948519925977,1.642524808826789,2.08375939849624,0,0.2
1757393368.2294176,0.04,-0.274,9.61,0.16900608716848042,1.650474505498822,2.0828070175438596,0,0.2
1757393368.2573168,0.04,-0.274,9.61,0.16900608716848042,1.650474505498822,2.0828070175438596,0,0.2
1757393368.283586,-0.043,-0.098,9.677,0.16901310600068858,0.6336126181249746,2.0867167919799496,0,0.2
1757393368.3103557,-0.043,-0.098,9.677,0.16901310600068858,0.6336126181249746,2.0867167919799496,0,0.2
1757393368.3378112,0.028,-0.056,9.632,0.1690098443878344,0.3724286437008103,2.085764411027569,0,0.2
1757393368.3664472,0.028,-0.056,9.632,0.1690098443878344,0.3724286437008103,2.085764411027569,0,0.2
1757393368.3944042,-0.08,-0.072,9.637,0.16894160233642866,0.6398703583078442,2.0883208020050126,0,0.2
1757393368.4217153,-0.08,-0.072,9.637,0.16894160233642866,0.6398703583078442,2.0883208020050126,0,0.2
1757393368.4490795,-0.08,-0.072,9.637,0.16894160233642866,0.6398703583078442,2.0883208020050126,0,0.2
1757393368.476582,-0.08,-0.072,9.637,0.16894160233642866,0.6398703583078442,2.0883208020050126,0,0.2
1757393368.504349,-0.08,-0.072,9.637,0.16894160233642866,0.6398703583078442,2.0883208020050126,0,0.2
1757393368.5318866,-0.08,-0.057,9.634,0.1687437554400162,0.5841738260296574,2.0828070175438596,0,0.2
1757393368.5591407,0.029,-0.16,9.595,0.16871158081175106,0.9709011596271394,2.0833082706766914,0,0.2
1757393368.5866714,-0.202,-0.267,9.655,0.16900823944411703,1.9860291381040822,2.092781954887218,0,0.2
1757393368.6129127,-0.286,-0.417,9.829,0.1696104728488191,2.944985956876879,2.095538847117794,0,0.2
1757393368.640842,-0.286,-0.417,9.829,0.1696104728488191,2.944985956876879,2.095538847117794,0,0.2
1757393368.6683614,0.083,-0.059,9.715,0.1696469716794261,0.6005557100868939,2.108671679197995,0,0.2
1757393368.6961381,0.083,-0.059,9.715,0.1696469716794261,0.6005557100868939,2.108671679197995,0,0.2
1757393368.7239065,-0.131,-0.068,9.635,0.1697441457017001,0.8776386229113581,2.115438596491228,0,0.2
1757393368.7517002,-0.131,-0.068,9.635,0.1697441457017001,0.8776386229113581,2.115438596491228,0,0.2
1757393368.7800677,-0.131,-0.068,9.635,0.1697441457017001,0.8776386229113581,2.115438596491228,0,0.2
1757393368.8086843,-0.222,-0.304,9.737,0.1701048059285804,2.2139416203528093,2.119498746867168,0,0.2
1757393368.8364732,-0.142,-0.403,9.71,0.1702479515295265,2.519657953561488,2.115288220551378,0,0.2
1757393368.8642092,-0.142,-0.403,9.71,0.1702479515295265,2.519657953561488,2.115288220551378,0,0.2
1757393368.8902347,-0.291,-0.369,9.692,0.17072919346145812,2.775939937290676,2.120200501253133,0,0.2
1757393368.915899,-0.291,-0.369,9.692,0.17072919346145812,2.775939937290676,2.120200501253133,0,0.2
1757393368.9418547,-0.063,-0.12,9.636,0.1707028338956328,0.8058235619013029,2.1283709273182954,0,0.2
1757393368.968286,-0.063,-0.12,9.636,0.1707028338956328,0.8058235619013029,2.1283709273182954,0,0.2
1757393368.996548,-0.063,-0.12,9.636,0.1707028338956328,0.8058235619013029,2.1283709273182954,0,0.2
1757393369.0240164,-0.063,-0.12,9.636,0.1707028338956328,0.8058235619013029,2.1283709273182954,0,0.2
1757393369.0515501,-0.063,-0.12,9.636,0.1707028338956328,0.8058235619013029,2.1283709273182954,0,0.2
1757393369.0796542,0.156,-0.212,9.748,0.17071185518293683,1.546698054263512,2.133533834586466,0,0.2
1757393369.1082516,-0.14,-0.321,9.78,0.17084582962425512,2.0507659773788864,2.1452130325814536,0,0.2
1757393369.1360502,0.012,-0.271,9.673,0.1707751592006285,1.6063577811030885,2.1517293233082704,0,0.2
1757393369.1624706,-0.241,-0.18,9.755,0.17109282568243475,1.7661861081519776,2.161954887218045,0,0.2
1757393369.1899436,-0.241,-0.18,9.755,0.17109282568243475,1.7661861081519776,2.161954887218045,0,0.2
1757393369.2179382,-0.444,0.089,9.825,0.17248952142086776,2.6388830058317554,2.169924812030075,0,0.2
1757393369.2452807,-0.444,0.089,9.825,0.17248952142086776,2.6388830058317554,2.169924812030075,0,0.2
1757393369.2729642,-0.53,0.069,9.754,0.17441687131696865,3.1363986836004143,2.170877192982456,0,0.2
1757393369.3006105,-0.53,0.069,9.754,0.17441687131696865,3.1363986836004143,2.170877192982456,0,0.2
1757393369.3283849,-0.146,-0.161,9.787,0.17455237752605948,1.2721631804993998,2.181854636591479,0,0.2
1757393369.3562884,-0.146,-0.161,9.787,0.17455237752605948,1.2721631804993998,2.181854636591479,0,0.2
1757393369.3838477,0.034,-0.419,9.828,0.17423240944210122,2.449243717238787,2.1818045112781954,0,0.2
1757393369.4114702,0.034,-0.419,9.828,0.17423240944210122,2.449243717238787,2.1818045112781954,0,0.2
1757393369.438846,-0.172,-0.385,9.863,0.17443672205129288,2.4480826329477283,2.1919298245614036,0,0.2
1757393369.4666016,-0.172,-0.385,9.863,0.17443672205129288,2.4480826329477283,2.1919298245614036,0,0.2
1757393369.4938033,-0.172,-0.385,9.863,0.17443672205129288,2.4480826329477283,2.1919298245614036,0,0.2
1757393369.5207846,-0.172,-0.385,9.863,0.17443672205129288,2.4480826329477283,2.1919298245614036,0,0.2
1757393369.5473971,-0.172,-0.385,9.863,0.17443672205129288,2.4480826329477283,2.1919298245614036,0,0.2
1757393369.5752895,0.048,-0.338,9.812,0.17444342205999055,1.9927019669857475,2.200451127819549,0,0.2
1757393369.6030629,-0.228,-0.567,9.896,0.17481431577533918,3.533795228636376,2.207418546365915,0,0.2
1757393369.6298735,-1.017,-0.672,9.994,0.1819541906634744,6.953993586653839,2.237944862155388,0,0.2
1757393369.6581142,-0.254,-0.85,9.638,0.1823753752566393,5.259027675666804,2.270877192982456,0,0.2
1757393369.686059,-0.254,-0.85,9.638,0.1823753752566393,5.259027675666804,2.270877192982456,0,0.2
1757393369.7139564,-0.567,-0.545,9.612,0.18454877404090225,4.677537744273044,2.2823057644110274,0,0.2
1757393369.7427156,-0.567,-0.545,9.612,0.18454877404090225,4.677537744273044,2.2823057644110274,0,0.2
1757393369.7704635,-0.567,-0.545,9.612,0.18454877404090225,4.677537744273044,2.2823057644110274,0,0.2
1757393369.7977602,-0.567,-0.545,9.612,0.18454877404090225,4.677537744273044,2.2823057644110274,0,0.2
1757393369.8253384,-0.567,-0.545,9.612,0.18454877404090225,4.677537744273044,2.2823057644110274,0,0.2
1757393369.8525167,-0.375,-0.766,9.598,0.18549056579783244,5.077894923190224,2.289273182957393,0,0.2
1757393369.8806062,-0.498,-0.35,9.619,0.18710264562533582,3.6208494783568734,2.291177944862155,0,0.2
1757393369.9076557,-0.141,0.04,9.848,0.18723535990832502,0.8526480022368823,2.306115288220551,0,0.2
1757393369.9355152,-0.18,-0.121,9.857,0.18743062716642656,1.260509358028661,2.3076190476190472,0,0.2
1757393369.9630172,-0.18,-0.121,9.857,0.18743062716642656,1.260509358028661,2.3076190476190472,0,0.2
1757393369.9900203,-0.18,-0.121,9.857,0.18743062716642656,1.260509358028661,2.3076190476190472,0,0.2
1757393370.0182712,-0.196,-0.207,9.731,0.18765851299634662,1.6780030221624214,2.3007518796992477,0,0.2
1757393370.0468967,0.026,-0.174,9.751,0.18734619691896603,1.033643351960648,2.3115789473684205,0,0.2
1757393370.0749974,-0.135,-0.252,9.793,0.1871328939550714,1.672136190439086,2.314285714285714,0,0.2
1757393370.1026578,-0.135,-0.252,9.793,0.1871328939550714,1.672136190439086,2.314285714285714,0,0.2
1757393370.1311224,-0.14,-0.251,9.642,0.18717237376279652,1.7073383112440859,2.306666666666666,0,0.2
1757393370.1592062,-0.14,-0.251,9.642,0.18717237376279652,1.7073383112440859,2.306666666666666,0,0.2
1757393370.1866386,-0.14,-0.251,9.642,0.18717237376279652,1.7073383112440859,2.306666666666666,0,0.2
