timestamp,ax,ay,az,rms,tilt_now,jerk,tilt_crosses,freq
1757328376.1231043,-0.971,-0.02,9.738,0.04855,5.695481168838608,0.048671679197994984,0,0.8500000000000001
1757328376.1524498,-0.951,-0.022,9.748,0.06795664058795137,5.573537185241793,0.04967418546365915,0,0.05
1757328376.178848,-0.952,-0.028,9.754,0.08296906049847738,5.576863894139963,0.04972431077694236,0,0.05
1757328376.2066016,-0.979,-0.013,9.732,0.09633258794405972,5.744902775683898,0.05107769423558897,0,0.05
1757328376.2366536,-0.991,-0.013,9.727,0.10832898965650885,5.817797000083264,0.051679197994987464,0,0.05
1757328376.2628357,-0.992,-0.024,9.736,0.11914415638209035,5.819474473772615,0.05172932330827067,0,0.05
1757328376.288195,-0.987,-0.028,9.734,0.12896027489114623,5.7921546633299865,0.05197994987468671,0,0.05
1757328376.3138835,-0.959,-0.03,9.731,0.13758617299714387,5.631118691444425,0.05338345864661653,0,0.05
1757328376.3391297,-0.934,-0.032,9.747,0.14529571569733224,5.476810621943136,0.05463659147869673,0,0.05
1757328376.3646326,-0.936,-0.029,9.742,0.15264692921903147,5.490683401230256,0.054736842105263146,0,0.05
1757328376.3898964,-0.938,-0.016,9.741,0.1596893703412973,5.501077178667682,0.05483709273182958,0,0.05
1757328376.4155412,-0.98,-0.025,9.722,0.16703800465762275,5.7579630794865535,0.0569423558897243,0,0.05
1757328376.440537,-0.989,-0.032,9.717,0.17420389633989247,5.8145942418841905,0.05739348370927319,0,0.05
1757328376.4653542,-0.988,-0.04,9.719,0.18107279613459334,5.809273845353548,0.057443609022556394,0,0.05
1757328376.4903536,-0.97,-0.051,9.725,0.18745561474653138,5.703825283226767,0.05834586466165414,0,0.05
1757328376.5156462,-0.95,-0.05,9.73,0.19338008558277142,5.5841354035073785,0.059348370927318275,0,0.05
1757328376.5404978,-0.95,-0.05,9.73,0.19338008558277142,5.5841354035073785,0.059348370927318275,0,0.05
1757328376.5654361,-0.948,-0.041,9.731,0.19910453912455137,5.569400171457937,0.05944862155388469,0,0.05
1757328376.5902772,-0.948,-0.041,9.731,0.19910453912455137,5.569400171457937,0.05944862155388469,0,0.05
1757328376.6154335,-0.948,-0.041,9.731,0.19910453912455137,5.569400171457937,0.05944862155388469,0,0.05
1757328376.6403823,-0.954,-0.025,9.734,0.20473863216305807,5.59941971292096,0.05974937343358396,0,0.05
1757328376.665295,-0.954,-0.025,9.734,0.20473863216305807,5.59941971292096,0.05974937343358396,0,0.05
1757328376.6902797,-0.982,-0.016,9.73,0.21054386122611127,5.7638204797154495,0.061152882205513764,0,0.05
1757328376.7154274,-0.982,-0.016,9.73,0.21054386122611127,5.7638204797154495,0.061152882205513764,0,0.05
1757328376.740389,-0.977,-0.026,9.74,0.2161366234584042,5.730079910374595,0.06140350877192982,0,0.05
1757328376.7656696,-0.977,-0.026,9.74,0.2161366234584042,5.730079910374595,0.06140350877192982,0,0.05
1757328376.790651,-0.976,-0.032,9.735,0.2215772551504328,5.728216883826513,0.06145363408521301,0,0.05
1757328376.815737,-0.976,-0.032,9.735,0.2215772551504328,5.728216883826513,0.06145363408521301,0,0.05
1757328376.8407204,-0.946,-0.035,9.737,0.22656956988969193,5.55293876125318,0.06295739348370928,0,0.05
1757328376.8660505,-0.946,-0.035,9.737,0.22656956988969193,5.55293876125318,0.06295739348370928,0,0.05
1757328376.8911633,-0.941,-0.037,9.732,0.23140326812731057,5.527077528498748,0.06320802005012532,0,0.05
1757328376.9159496,-0.941,-0.037,9.732,0.23140326812731057,5.527077528498748,0.06320802005012532,0,0.05
1757328376.9408398,-0.932,-0.034,9.736,0.23604879262559256,5.471717683847147,0.06365914786967418,0,0.05
1757328376.9659748,-0.932,-0.034,9.736,0.23604879262559256,5.471717683847147,0.06365914786967418,0,0.05
1757328376.990839,-0.932,-0.034,9.736,0.23604879262559256,5.471717683847147,0.06365914786967418,0,0.05
1757328377.0158393,-0.943,-0.033,9.737,0.24071176747305065,5.535042425050353,0.06421052631578947,0,0.05
1757328377.0407915,-0.943,-0.033,9.737,0.24071176747305065,5.535042425050353,0.06421052631578947,0,0.05
1757328377.0656013,-0.971,-0.023,9.731,0.24555907130464555,5.699938414060655,0.06561403508771929,0,0.05
1757328377.090814,-0.971,-0.023,9.731,0.24555907130464555,5.699938414060655,0.06561403508771929,0,0.05
1757328377.1157064,-0.979,-0.014,9.744,0.25039041515201815,5.737955275769732,0.06601503759398496,0,0.05
1757328377.1405263,-0.979,-0.014,9.744,0.25039041515201815,5.737955275769732,0.06601503759398496,0,0.05
1757328377.1653783,-0.97,-0.021,9.734,0.25504432948019057,5.692102414626693,0.06646616541353384,0,0.05
1757328377.190429,-0.97,-0.021,9.734,0.25504432948019057,5.692102414626693,0.06646616541353384,0,0.05
1757328377.215403,-0.956,-0.027,9.737,0.25948497066304244,5.609674838729908,0.06716791979949875,0,0.05
1757328377.2403471,-0.956,-0.027,9.737,0.25948497066304244,5.609674838729908,0.06716791979949875,0,0.05
1757328377.2651422,-0.95,-0.018,9.736,0.26379670202639,5.574044875343376,0.067468671679198,0,0.05
1757328377.28989,-0.95,-0.018,9.736,0.26379670202639,5.574044875343376,0.067468671679198,0,0.05
1757328377.3147554,-0.95,-0.018,9.736,0.26379670202639,5.574044875343376,0.067468671679198,0,0.05
1757328377.3396165,-0.946,-0.02,9.731,0.268003712660851,5.553798993106654,0.06766917293233082,0,0.05
1757328377.3646357,-0.946,-0.02,9.731,0.268003712660851,5.553798993106654,0.06766917293233082,0,0.05
1757328377.3895583,-0.955,-0.02,9.733,0.27222426875647954,5.605133343486526,0.06812030075187969,0,0.05
1757328377.4144466,-0.955,-0.02,9.733,0.27222426875647954,5.605133343486526,0.06812030075187969,0,0.05
1757328377.4396052,-0.98,-0.019,9.735,0.27659908260874616,5.749540940430214,0.06937343358395988,0,0.05
1757328377.4646156,-0.98,-0.019,9.735,0.27659908260874616,5.749540940430214,0.06937343358395988,0,0.05
1757328377.4895809,-0.984,-0.017,9.746,0.28094072773451695,5.766156968129173,0.06957393483709273,0,0.05
1757328377.5150895,-0.984,-0.017,9.746,0.28094072773451695,5.766156968129173,0.06957393483709273,0,0.05
1757328377.540462,-0.988,-0.021,9.743,0.28525085889441243,5.791648997181143,0.06977443609022556,0,0.05
1757328377.566566,-0.988,-0.021,9.743,0.28525085889441243,5.791648997181143,0.06977443609022556,0,0.05
1757328377.5917552,-0.96,-0.021,9.759,0.2892612184514198,5.619487962985242,0.07117794486215538,0,0.05
1757328377.616924,-0.96,-0.021,9.759,0.2892612184514198,5.619487962985242,0.07117794486215538,0,0.05
1757328377.6423512,-0.96,-0.021,9.759,0.2892612184514198,5.619487962985242,0.07117794486215538,0,0.05
1757328377.6680157,-0.946,-0.036,9.756,0.29310295546104614,5.542409880163422,0.07187969924812028,0,0.05
1757328377.6939263,-0.946,-0.036,9.756,0.29310295546104614,5.542409880163422,0.07187969924812028,0,0.05
1757328377.7190065,-0.953,-0.032,9.747,0.29695094712763587,5.587396689609082,0.07223057644110276,0,0.05
1757328377.744267,-0.953,-0.032,9.747,0.29695094712763587,5.587396689609082,0.07223057644110276,0,0.05
1757328377.7696486,-0.964,-0.024,9.741,0.3008373397701821,5.653507858625827,0.07278195488721804,0,0.05
1757328377.7947996,-0.964,-0.024,9.741,0.3008373397701821,5.653507858625827,0.07278195488721804,0,0.05
1757328377.820792,-0.987,-0.019,9.732,0.3048582088447021,5.792088540652707,0.07393483709273183,0,0.05
1757328377.8460786,-0.987,-0.019,9.732,0.3048582088447021,5.792088540652707,0.07393483709273183,0,0.05
1757328377.871222,-0.974,-0.029,9.728,0.3087235292296329,5.720107768535726,0.07458646616541353,0,0.05
1757328377.8966043,-0.974,-0.029,9.728,0.3087235292296329,5.720107768535726,0.07458646616541353,0,0.05
1757328377.9217882,-0.968,-0.039,9.72,0.3124944439506085,5.6918308111315845,0.0748872180451128,0,0.05
1757328377.947191,-0.968,-0.039,9.72,0.3124944439506085,5.6918308111315845,0.0748872180451128,0,0.05
1757328377.9723444,-0.968,-0.039,9.72,0.3124944439506085,5.6918308111315845,0.0748872180451128,0,0.05
1757328377.9975655,-0.952,-0.035,9.709,0.31609893625255997,5.603900952898749,0.07568922305764411,0,0.05
1757328378.0229146,-0.954,-0.037,9.713,0.3196776931535887,5.613725701587299,0.07578947368421053,0,0.05
1757328378.0478864,-0.954,-0.037,9.713,0.3196776931535887,5.613725701587299,0.07578947368421053,0,0.05
1757328378.072736,-0.954,-0.037,9.713,0.3196776931535887,5.613725701587299,0.07578947368421053,0,0.05
1757328378.097652,-0.963,-0.038,9.719,0.32328354427653755,5.663015527718743,0.0762406015037594,0,0.05
1757328378.1227303,-0.963,-0.038,9.719,0.32328354427653755,5.663015527718743,0.0762406015037594,0,0.05
1757328378.1477928,-0.972,-0.028,9.722,0.32691621250711933,5.711778869994513,0.07669172932330827,0,0.05
1757328378.1727571,-0.972,-0.028,9.722,0.32691621250711933,5.711778869994513,0.07669172932330827,0,0.05
1757328378.1978514,-0.982,-0.016,9.719,0.33058284891990386,5.7702999964913975,0.07719298245614035,0,0.05
1757328378.2229562,-0.982,-0.016,9.719,0.33058284891990386,5.7702999964913975,0.07719298245614035,0,0.05
1757328378.2480679,-0.983,-0.023,9.723,0.334216610149765,5.774584418496659,0.07724310776942354,0,0.05
1757328378.273162,-0.983,-0.023,9.723,0.334216610149765,5.774584418496659,0.07724310776942354,0,0.05
1757328378.2983367,-0.975,-0.04,9.717,0.3377533197468235,5.7346459412689725,0.07764411027568921,0,0.05
1757328378.323665,-0.975,-0.04,9.717,0.3377533197468235,5.7346459412689725,0.07764411027568921,0,0.05
1757328378.3487608,-0.943,-0.052,9.726,0.3410284848806621,5.546255670456807,0.07924812030075186,0,0.05
1757328378.3738797,-0.943,-0.052,9.726,0.3410284848806621,5.546255670456807,0.07924812030075186,0,0.05
1757328378.3991747,-0.943,-0.052,9.726,0.3410284848806621,5.546255670456807,0.07924812030075186,0,0.05
1757328378.4244704,-0.94,-0.053,9.725,0.3442519825650972,5.5296643851588865,0.0793984962406015,0,0.05
1757328378.4495223,-0.94,-0.053,9.725,0.3442519825650972,5.5296643851588865,0.0793984962406015,0,0.05
1757328378.4745932,-0.948,-0.046,9.726,0.3474999100719308,5.573582720803983,0.07979949874686715,0,0.05
1757328378.4996402,-0.948,-0.046,9.726,0.3474999100719308,5.573582720803983,0.07979949874686715,0,0.05
1757328378.5245044,-0.968,-0.042,9.724,0.3508543109326149,5.690236479963421,0.08080200501253132,0,0.05
1757328378.5493317,-0.968,-0.042,9.724,0.3508543109326149,5.690236479963421,0.08080200501253132,0,0.05
1757328378.5742269,-0.998,-0.036,9.744,0.35438504130394666,5.851733591414356,0.08230576441102756,0,0.05
1757328378.5994215,-0.998,-0.036,9.744,0.35438504130394666,5.851733591414356,0.08230576441102756,0,0.05
1757328378.6243567,-0.997,-0.038,9.733,0.35787397223044876,5.852911500188319,0.0823558897243108,0,0.05
1757328378.64949,-0.997,-0.038,9.733,0.35787397223044876,5.852911500188319,0.0823558897243108,0,0.05
1757328378.6745067,-0.985,-0.025,9.743,0.3612469273225725,5.774733483084458,0.08295739348370927,0,0.05
1757328378.6994576,-0.985,-0.025,9.743,0.3612469273225725,5.774733483084458,0.08295739348370927,0,0.05
1757328378.7245042,-0.985,-0.025,9.743,0.3612469273225725,5.774733483084458,0.08295739348370927,0,0.05
1757328378.7499099,-0.959,-0.032,9.744,0.3644153468228252,5.624030404841702,0.08426065162907269,0,0.05
1757328378.774813,-0.959,-0.032,9.744,0.3644153468228252,5.624030404841702,0.08426065162907269,0,0.05
1757328378.7998695,-0.962,-0.031,9.743,0.36757605335494853,5.641875797906242,0.08441102756892234,0,0.05
1757328378.824899,-0.962,-0.031,9.743,0.36757605335494853,5.641875797906242,0.08441102756892234,0,0.05
1757328378.8497298,-0.958,-0.035,9.736,0.37068391521618527,5.623407889219693,0.08461152882205515,0,0.05
1757328378.874986,-0.958,-0.035,9.736,0.37068391521618527,5.623407889219693,0.08461152882205515,0,0.05
1757328378.8998744,-0.983,-0.029,9.748,0.37392818494999813,5.760797511243254,0.08586466165413537,0,0.05
1757328378.9249988,-0.983,-0.029,9.748,0.37392818494999813,5.760797511243254,0.08586466165413537,0,0.05
1757328378.9500642,-1.008,-0.016,9.754,0.37730948503847606,5.900866740134753,0.08711779448621555,0,0.05
1757328378.9751534,-1.008,-0.016,9.754,0.37730948503847606,5.900866740134753,0.08711779448621555,0,0.05
1757328379.0001154,-1.011,-0.018,9.754,0.3806806404323708,5.91849540392168,0.08726817042606516,0,0.05
1757328379.0252485,-1.011,-0.018,9.754,0.3806806404323708,5.91849540392168,0.08726817042606516,0,0.05
1757328379.0504477,-0.994,-0.031,9.753,0.3839112397416882,5.822151170869094,0.0881203007518797,0,0.05
1757328379.0754662,-0.994,-0.031,9.753,0.3839112397416882,5.822151170869094,0.0881203007518797,0,0.05
1757328379.1006198,-0.994,-0.031,9.753,0.3839112397416882,5.822151170869094,0.0881203007518797,0,0.05
1757328379.1257079,-0.966,-0.039,9.752,0.3869376306331551,5.661649278757105,0.0895238095238095,0,0.05
1757328379.1526313,-0.966,-0.039,9.752,0.3869376306331551,5.661649278757105,0.0895238095238095,0,0.05
1757328379.1778467,-0.958,-0.046,9.743,0.38989118994919597,5.622099558290509,0.08992481203007517,0,0.05
1757328379.203744,-0.958,-0.046,9.743,0.38989118994919597,5.622099558290509,0.08992481203007517,0,0.05
1757328379.23082,-0.956,-0.03,9.733,0.392810361370471,5.612486765071979,0.09002506265664159,0,0.05
1757328379.257764,-0.956,-0.03,9.733,0.392810361370471,5.612486765071979,0.09002506265664159,0,0.05
1757328379.284442,-0.966,-0.026,9.73,0.3957687077069131,5.671818273377608,0.09052631578947368,0,0.05
1757328379.3112535,-0.966,-0.026,9.73,0.3957687077069131,5.671818273377608,0.09052631578947368,0,0.05
1757328379.337882,-0.999,-0.023,9.731,0.3989083510030844,5.863083856227687,0.09218045112781956,0,0.05
1757328379.364584,-0.999,-0.023,9.731,0.3989083510030844,5.863083856227687,0.09218045112781956,0,0.05
1757328379.3919177,-0.997,-0.029,9.722,0.40201106328060177,5.857725122127685,0.09228070175438596,0,0.05
1757328379.418716,-0.997,-0.029,9.722,0.40201106328060177,5.857725122127685,0.09228070175438596,0,0.05
1757328379.4455287,-0.941,-0.064,9.724,0.404754984527677,5.5400417751127655,0.09508771929824561,0,0.05
1757328379.4725442,-0.941,-0.064,9.724,0.404754984527677,5.5400417751127655,0.09508771929824561,0,0.05
1757328379.49839,-0.607,0.059,9.734,0.40589126622779165,3.585044964219056,0.11182957393483708,0,0.05
1757328379.525686,-0.607,0.059,9.734,0.40589126622779165,3.585044964219056,0.11182957393483708,0,0.05
1757328379.5524719,-0.406,-0.143,9.707,0.4063985851353324,2.539062033334283,0.12190476190476189,0,0.05
1757328379.5796628,-0.406,-0.143,9.707,0.4063985851353324,2.539062033334283,0.12190476190476189,0,0.05
1757328379.6073909,-0.616,-0.211,9.735,0.4075640440470675,3.8265856430131775,0.1324310776942356,0,0.05
1757328379.6344664,-0.616,-0.211,9.735,0.4075640440470675,3.8265856430131775,0.1324310776942356,0,0.05
1757328379.6610253,-0.741,-0.169,9.636,0.40924461205982904,4.509797576245011,0.1386967418546366,0,0.05
1757328379.6881175,-0.741,-0.169,9.636,0.40924461205982904,4.509797576245011,0.1386967418546366,0,0.05
1757328379.7148144,-0.969,0.04,9.766,0.4121026025154415,5.671237397060658,0.150125313283208,0,0.05
1757328379.7419484,-0.969,0.04,9.766,0.4121026025154415,5.671237397060658,0.150125313283208,0,0.05
1757328379.768499,-0.96,0.122,9.877,0.4148886055316535,5.595821225990336,0.15057644110275686,0,0.05
1757328379.794847,-0.96,0.122,9.877,0.4148886055316535,5.595821225990336,0.15057644110275686,0,0.05
1757328379.8215528,-1.011,-0.175,9.816,0.4179567651085456,5.967269402851168,0.15313283208020048,0,0.05
1757328379.8487396,-1.011,-0.175,9.816,0.4179567651085456,5.967269402851168,0.15313283208020048,0,0.05
1757328379.8755565,-0.885,0.437,10.019,0.4202926599406656,5.6262873400747235,0.1594486215538847,0,0.05
1757328379.9027333,-0.885,0.437,10.019,0.4202926599406656,5.6262873400747235,0.1594486215538847,0,0.05
1757328379.9295535,-0.596,0.022,9.912,0.42134778983637733,3.4433405720580574,0.1739348370927318,0,0.05
1757328379.956759,-0.596,0.022,9.912,0.42134778983637733,3.4433405720580574,0.1739348370927318,0,0.05
1757328379.9835887,-0.764,0.005,9.819,0.42307587971899324,4.44921977392904,0.18235588972431072,0,0.05
1757328380.010943,-0.764,0.005,9.819,0.42307587971899324,4.44921977392904,0.18235588972431072,0,0.05
1757328380.037712,-0.961,0.183,9.939,0.42579572860703996,5.621362094943785,0.19223057644110272,0,0.05
1757328380.0649085,-0.961,0.183,9.939,0.42579572860703996,5.621362094943785,0.19223057644110272,0,0.05
1757328380.0923688,-0.841,0.099,9.831,0.42786704126398895,4.923100537808798,0.1982456140350877,0,0.05
1757328380.119681,-0.841,0.099,9.831,0.42786704126398895,4.923100537808798,0.1982456140350877,0,0.05
1757328380.146413,-1.138,0.049,9.574,0.43163389000401714,6.784799822393147,0.21313283208020048,0,0.05
1757328380.1736622,-1.138,0.049,9.574,0.43163389000401714,6.784799822393147,0.21313283208020048,0,0.05
1757328380.2000165,-0.985,-0.207,9.714,0.43443454915556606,5.915590426418021,0.2208020050125313,0,0.05
1757328380.2270517,-0.985,-0.207,9.714,0.43443454915556606,5.915590426418021,0.2208020050125313,0,0.05
1757328380.2538621,-0.825,0.116,9.776,0.43638851955568214,4.871003628810901,0.2288220551378446,0,0.05
1757328380.2811098,-0.825,0.116,9.776,0.43638851955568214,4.871003628810901,0.2288220551378446,0,0.05
1757328380.3079636,-0.775,0.119,9.542,0.4381055837352452,4.6975409243546045,0.23132832080200505,0,0.05
1757328380.335551,-0.775,0.119,9.542,0.4381055837352452,4.6975409243546045,0.23132832080200505,0,0.05
1757328380.3623846,-0.815,0.124,9.543,0.4399966647600866,4.937281436051298,0.2333333333333333,0,0.05
1757328380.3895066,-0.815,0.124,9.543,0.4399966647600866,4.937281436051298,0.2333333333333333,0,0.05
1757328380.4164405,-0.825,-0.067,9.76,0.44192604302077515,4.847482897701899,0.2338345864661654,0,0.05
1757328380.4436646,-0.825,-0.067,9.76,0.44192604302077515,4.847482897701899,0.2338345864661654,0,0.05
1757328380.470624,-1.224,-0.271,9.878,0.44614355032881514,7.232882168503653,0.2538345864661654,0,0.05
1757328380.498064,-1.224,-0.271,9.878,0.44614355032881514,7.232882168503653,0.2538345864661654,0,0.05
1757328380.5254087,-1.064,-0.197,9.869,0.44930424825501036,6.257184438877589,0.26185463659147873,0,0.05
1757328380.5532932,-1.064,-0.197,9.869,0.44930424825501036,6.257184438877589,0.26185463659147873,0,0.05
1757328380.5800314,-0.848,-0.022,9.937,0.4513004182360127,4.879301496957621,0.27268170426065164,0,0.05
1757328380.606996,-0.848,-0.022,9.937,0.4513004182360127,4.879301496957621,0.27268170426065164,0,0.05
1757328380.633696,-0.78,0.158,9.99,0.452982414117811,4.554782291477925,0.2760902255639098,0,0.05
1757328380.6607969,-0.78,0.158,9.99,0.452982414117811,4.554782291477925,0.2760902255639098,0,0.05
1757328380.6876447,-0.678,0.074,9.853,0.45424913593753813,3.959707768060534,0.281203007518797,0,0.05
1757328380.714538,-0.678,0.074,9.853,0.45424913593753813,3.959707768060534,0.281203007518797,0,0.05
1757328380.7412546,-0.946,0.229,9.958,0.45670512094786064,5.582516356806491,0.2946365914786968,0,0.05
1757328380.7689862,-0.946,0.229,9.958,0.45670512094786064,5.582516356806491,0.2946365914786968,0,0.05
1757328380.796569,-0.715,-0.034,9.797,0.45810220475348074,4.178832944198626,0.30621553884711783,0,0.05
1757328380.8245792,-0.715,-0.034,9.797,0.45810220475348074,4.178832944198626,0.30621553884711783,0,0.05
1757328380.8512754,-1.134,0.042,9.541,0.46159779028933834,6.782722655118133,0.32721804511278196,0,0.05
1757328380.8783488,-1.134,0.042,9.541,0.46159779028933834,6.782722655118133,0.32721804511278196,0,0.05
1757328380.9051151,-1.032,-0.327,9.805,0.4644729055607011,6.300494777073057,0.33233082706766914,0,0.05
1757328380.9318411,-1.032,-0.327,9.805,0.4644729055607011,6.300494777073057,0.33233082706766914,0,0.05
1757328380.9590714,-0.842,-0.324,9.694,0.466376982708195,5.316999666859239,0.3418546365914787,0,0.05
1757328380.9865396,-0.842,-0.324,9.694,0.466376982708195,5.316999666859239,0.3418546365914787,0,0.05
1757328381.0130568,-1.03,-0.179,9.657,0.46921182849540355,6.1786092603625224,0.3512781954887218,0,0.05
1757328381.0396972,-1.03,-0.179,9.657,0.46921182849540355,6.1786092603625224,0.3512781954887218,0,0.05
1757328381.0674841,-0.658,0.033,9.757,0.47036384852579816,3.86294891127127,0.36992481203007516,0,0.05
1757328381.0953922,-0.658,0.033,9.757,0.47036384852579816,3.86294891127127,0.36992481203007516,0,0.05
1757328381.1224706,-0.826,0.289,9.56,0.4721735274239757,5.2301356377112995,0.378345864661654,0,0.05
1757328381.1498115,-0.826,0.289,9.56,0.4721735274239757,5.2301356377112995,0.378345864661654,0,0.05
1757328381.1766424,-1.097,0.093,9.576,0.4753486746589286,6.558395653726182,0.39192982456140335,0,0.05
1757328381.2039168,-1.097,0.093,9.576,0.4753486746589286,6.558395653726182,0.39192982456140335,0,0.05
1757328381.2307112,-1.04,-0.013,9.589,0.47818444401715954,6.190447689149084,0.3947869674185462,0,0.05
1757328381.2575862,-1.04,-0.013,9.589,0.47818444401715954,6.190447689149084,0.3947869674185462,0,0.05
1757328381.2846785,-1.266,0.163,9.842,0.4823559396337937,7.389680670734808,0.4061152882205512,0,0.05
1757328381.31209,-1.266,0.163,9.842,0.4823559396337937,7.389680670734808,0.4061152882205512,0,0.05
1757328381.3375695,-0.77,0.25,9.799,0.4838899694145354,4.722901544031159,0.43097744360902235,0,0.05
1757328381.3649309,-0.77,0.25,9.799,0.4838899694145354,4.722901544031159,0.43097744360902235,0,0.05
1757328381.3917105,-0.796,0.231,9.771,0.4855239875639513,4.848599232888839,0.4322807017543858,0,0.05
1757328381.418643,-0.796,0.231,9.771,0.4855239875639513,4.848599232888839,0.4322807017543858,0,0.05
1757328381.445587,-0.929,0.479,9.849,0.4877408584484183,6.057803008746123,0.4389473684210525,0,0.05
1757328381.4729252,-0.929,0.479,9.849,0.4877408584484183,6.057803008746123,0.4389473684210525,0,0.05
1757328381.4997299,-0.873,-0.112,9.576,0.4896901750086477,5.251449531137526,0.4417543859649122,0,0.05
1757328381.5272055,-0.873,-0.112,9.576,0.4896901750086477,5.251449531137526,0.4417543859649122,0,0.05
1757328381.554641,-1.396,-0.076,9.641,0.4946397754932371,8.251098716161149,0.4679699248120301,0,0.05
1757328381.5818994,-1.396,-0.076,9.641,0.4946397754932371,8.251098716161149,0.4679699248120301,0,0.05
1757328381.6086812,-1.052,-0.016,9.753,0.49742865568843136,6.157070456958975,0.4852130325814536,0,0.05
1757328381.6359966,-1.052,-0.016,9.753,0.49742865568843136,6.157070456958975,0.4852130325814536,0,0.05
1757328381.6622958,-0.948,-0.093,9.622,0.4996819263291399,5.653698567078105,0.4904260651629072,0,0.05
1757328381.6890032,-0.948,-0.093,9.622,0.4996819263291399,5.653698567078105,0.4904260651629072,0,0.05
1757328381.715547,-1.018,0.032,9.71,0.5022676950591188,5.9879811853517015,0.49393483709273184,0,0.05
1757328381.7429197,-1.018,0.032,9.71,0.5022676950591188,5.9879811853517015,0.49393483709273184,0,0.05
1757328381.7709227,-0.816,0.05,9.758,0.5039220946733731,4.789086614489281,0.5040601503759398,0,0.05
1757328381.7983496,-0.816,0.05,9.758,0.5039220946733731,4.789086614489281,0.5040601503759398,0,0.05
1757328381.8257918,-1.094,-0.192,9.753,0.5068822027848285,6.49713797536094,0.5179949874686718,0,0.05
1757328381.8531585,-1.094,-0.192,9.753,0.5068822027848285,6.49713797536094,0.5179949874686718,0,0.05
1757328381.8800282,-1.132,-0.213,9.727,0.5100324769071083,6.7534777845767575,0.5198997493734335,0,0.05
1757328381.9069042,-1.132,-0.213,9.727,0.5100324769071083,6.7534777845767575,0.5198997493734335,0,0.05
1757328381.933786,-0.905,-0.171,9.781,0.5120358288245072,5.379311727666667,0.5312781954887217,0,0.05
1757328381.9610374,-0.905,-0.171,9.781,0.5120358288245072,5.379311727666667,0.5312781954887217,0,0.05
1757328381.9882724,-0.973,-0.109,9.935,0.514341824568059,5.628279709009929,0.5346867167919799,0,0.05
1757328382.0154252,-0.973,-0.109,9.935,0.514341824568059,5.628279709009929,0.5346867167919799,0,0.05
1757328382.0435011,-0.851,-0.101,9.717,0.5160988422773297,5.040053511875673,0.5408020050125313,0,0.05
1757328382.0717397,-0.762,-0.043,9.762,0.5175032608592915,4.470402797211179,0.5452631578947367,0,0.05
1757328382.0989237,-0.762,-0.043,9.762,0.5175032608592915,4.470402797211179,0.5452631578947367,0,0.05
1757328382.125918,-0.762,-0.043,9.762,0.5175032608592915,4.470402797211179,0.5452631578947367,0,0.05
1757328382.1529114,-0.698,0.235,9.947,0.5186787396838239,4.234578683860941,0.548471177944862,0,0.05
1757328382.1793447,-0.931,-0.167,9.661,0.5207634179740355,5.591717712046117,0.5601503759398495,0,0.05
1757328382.2065697,-0.931,-0.167,9.661,0.5207634179740355,5.591717712046117,0.5601503759398495,0,0.05
1757328382.2337153,-1.129,0.018,9.842,0.5238140318853629,6.544760328952358,0.5700751879699247,0,0.05
1757328382.2607257,-1.129,0.018,9.842,0.5238140318853629,6.544760328952358,0.5700751879699247,0,0.05
1757328382.2877724,-1.059,0.076,9.99,0.5264834684014305,6.066544989084413,0.5735839598997493,0,0.05
1757328382.3157701,-1.059,0.076,9.99,0.5264834684014305,6.066544989084413,0.5735839598997493,0,0.05
1757328382.342824,-0.786,0.044,9.919,0.5279482289959878,4.5378205340268565,0.5872681704260652,0,0.05
1757328382.3700633,-0.786,0.044,9.919,0.5279482289959878,4.5378205340268565,0.5872681704260652,0,0.05
1757328382.3963876,-0.786,0.044,9.919,0.5279482289959878,4.5378205340268565,0.5872681704260652,0,0.05
1757328382.423233,-0.887,0.024,9.987,0.5298077528689061,5.077281490188028,0.5923308270676693,0,0.05
1757328382.4502072,-0.965,0.387,9.829,0.532000298402172,6.038275391296656,0.5962406015037595,0,0.05
1757328382.4773395,-0.965,0.387,9.829,0.532000298402172,6.038275391296656,0.5962406015037595,0,0.05
1757328382.503194,-0.933,0.008,9.788,0.5340417024914814,5.445227047034809,0.5978446115288221,0,0.05
1757328382.5294118,-0.933,0.008,9.788,0.5340417024914814,5.445227047034809,0.5978446115288221,0,0.05
1757328382.5545964,-0.933,0.008,9.788,0.5340417024914814,5.445227047034809,0.5978446115288221,0,0.05
1757328382.5802305,-1.156,-0.277,9.862,0.5371604788142925,6.873035044343067,0.6090225563909775,0,0.05
1757328382.6069164,-1.156,-0.277,9.862,0.5371604788142925,6.873035044343067,0.6090225563909775,0,0.05
1757328382.6330004,-1.011,-0.051,9.969,0.5395337640036998,5.798130913510339,0.6162907268170427,0,0.05
1757328382.6586413,-1.011,-0.051,9.969,0.5395337640036998,5.798130913510339,0.6162907268170427,0,0.05
1757328382.6849015,-1.059,-0.236,9.847,0.5421258018209426,6.287691854837727,0.6186967418546366,0,0.05
1757328382.7107186,-1.059,-0.236,9.847,0.5421258018209426,6.287691854837727,0.6186967418546366,0,0.05
1757328382.7387254,-0.867,-0.268,9.722,0.5438562378974796,5.332681809072756,0.6283208020050126,0,0.05
1757328382.7650723,-0.867,-0.268,9.722,0.5438562378974796,5.332681809072756,0.6283208020050126,0,0.05
1757328382.790837,-0.774,-0.104,9.338,0.5452314164646055,4.780636864654084,0.6329824561403509,0,0.05
1757328382.8171895,-0.774,-0.104,9.338,0.5452314164646055,4.780636864654084,0.6329824561403509,0,0.05
1757328382.8430498,-0.769,0.282,9.445,0.5465854919406479,4.956322360280385,0.6332330827067669,0,0.05
1757328382.8691037,-0.769,0.282,9.445,0.5465854919406479,4.956322360280385,0.6332330827067669,0,0.05
1757328382.8957584,-0.982,-0.463,9.417,0.5487863974261753,6.576536859322819,0.6439097744360903,0,0.05
1757328382.9215696,-0.982,-0.463,9.417,0.5487863974261753,6.576536859322819,0.6439097744360903,0,0.05
1757328382.9485497,-1.329,0.064,9.623,0.5527948195307189,7.872183624149697,0.6613032581453633,0,0.05
1757328382.9760003,-1.329,0.064,9.623,0.5527948195307189,7.872183624149697,0.6613032581453633,0,0.05
1757328383.0028992,-1.141,0.217,9.588,0.5557308836118432,6.906927098856153,0.6707268170426064,0,0.05
1757328383.0301158,-1.141,0.217,9.588,0.5557308836118432,6.906927098856153,0.6707268170426064,0,0.05
1757328383.057008,-0.883,-0.062,9.584,0.5574818719025758,5.276842464332977,0.6836591478696741,0,0.05
1757328383.0835016,-0.883,-0.062,9.584,0.5574818719025758,5.276842464332977,0.6836591478696741,0,0.05
1757328383.1099253,-0.997,0.154,9.693,0.5597062265153033,5.941811106812376,0.6893734335839597,0,0.05
1757328383.1369104,-0.997,0.154,9.693,0.5597062265153033,5.941811106812376,0.6893734335839597,0,0.05
1757328383.1637876,-1.006,-0.11,9.629,0.561961875931099,5.999690232140531,0.6898245614035087,0,0.05
1757328383.1905227,-1.006,-0.11,9.629,0.561961875931099,5.999690232140531,0.6898245614035087,0,0.05
1757328383.217569,-1.126,-0.007,9.598,0.5647750348590136,6.691260969274091,0.6958395989974937,0,0.05
1757328383.2448528,-1.126,-0.007,9.598,0.5647750348590136,6.691260969274091,0.6958395989974937,0,0.05
1757328383.2716637,-1.195,-0.539,9.592,0.5679268460814297,7.782366633808055,0.6992982456140351,0,0.05
1757328383.2988143,-1.195,-0.539,9.592,0.5679268460814297,7.782366633808055,0.6992982456140351,0,0.05
1757328383.325753,-0.883,-0.435,9.584,0.5696403470611962,5.864058893809002,0.714937343358396,0,0.05
1757328383.352749,-0.883,-0.435,9.584,0.5696403470611962,5.864058893809002,0.714937343358396,0,0.05
1757328383.3796222,-0.902,-0.24,9.608,0.5714229038111791,5.548670238410493,0.7158897243107769,0,0.05
1757328383.4071999,-0.902,-0.24,9.608,0.5714229038111791,5.548670238410493,0.7158897243107769,0,0.05
1757328383.4344375,-0.769,-0.245,9.577,0.5727150578603639,4.81711914931149,0.7225563909774436,0,0.05
1757328383.4615812,-0.769,-0.245,9.577,0.5727150578603639,4.81711914931149,0.7225563909774436,0,0.05
1757328383.4888246,-0.803,-0.077,9.46,0.5741206841771161,4.873996636408182,0.7242606516290726,0,0.05
1757328383.5160286,-0.803,-0.077,9.46,0.5741206841771161,4.873996636408182,0.7242606516290726,0,0.05
1757328383.5430868,-0.746,-0.151,9.522,0.5753310785973585,4.570147139160279,0.7271177944862154,0,0.05
1757328383.570261,-0.746,-0.151,9.522,0.5753310785973585,4.570147139160279,0.7271177944862154,0,0.05
1757328383.5973547,-1.09,-0.287,9.619,0.5779066533619421,6.68341913315613,0.744360902255639,0,0.05
1757328383.6250184,-1.09,-0.287,9.619,0.5779066533619421,6.68341913315613,0.744360902255639,0,0.05
1757328383.6522408,-1.078,-0.284,9.427,0.5804147741055529,6.744146989371619,0.7449624060150376,0,0.05
1757328383.6793818,-1.078,-0.284,9.427,0.5804147741055529,6.744146989371619,0.7449624060150376,0,0.05
1757328383.7061634,-0.791,-0.335,9.547,0.5817607003743033,5.141481943578348,0.7593483709273182,0,0.05
1757328383.733529,-0.791,-0.335,9.547,0.5817607003743033,5.141481943578348,0.7593483709273182,0,0.05
1757328383.7604232,-0.813,-0.293,9.598,0.5831791620076973,5.144933761847068,0.7604511278195489,0,0.05
1757328383.7872329,-0.813,-0.293,9.598,0.5831791620076973,5.144933761847068,0.7604511278195489,0,0.05
1757328383.81348,-0.939,-0.058,9.547,0.5850660112329206,5.627925125115378,0.766766917293233,0,0.05
1757328383.8408387,-0.939,-0.058,9.547,0.5850660112329206,5.627925125115378,0.766766917293233,0,0.05
1757328383.8686345,-0.868,-0.06,9.695,0.5866735016173817,5.128233011607445,0.7703258145363407,0,0.05
1757328383.8962471,-0.868,-0.06,9.695,0.5866735016173817,5.128233011607445,0.7703258145363407,0,0.05
1757328383.9233558,-0.898,-0.121,9.831,0.5883891633094546,5.26602746703844,0.7718295739348372,0,0.05
1757328383.9503665,-0.898,-0.121,9.831,0.5883891633094546,5.26602746703844,0.7718295739348372,0,0.05
1757328383.9778135,-1.174,-0.157,9.543,0.5913099842722089,7.07521378216493,0.7856641604010024,0,0.05
1757328384.0053601,-1.174,-0.157,9.543,0.5913099842722089,7.07521378216493,0.7856641604010024,0,0.05
1757328384.0326233,-1.232,0.103,9.636,0.5945099305310215,7.311103246431856,0.7885714285714287,0,0.05
1757328384.0604863,-1.232,0.103,9.636,0.5945099305310215,7.311103246431856,0.7885714285714287,0,0.05
1757328384.0880077,-0.942,0.21,9.897,0.5963727588513748,5.569690906152607,0.8031077694235589,0,0.05
1757328384.1156478,-0.942,0.21,9.897,0.5963727588513748,5.569690906152607,0.8031077694235589,0,0.05
1757328384.1429198,-0.856,0.243,9.825,0.5979066043288032,5.175001565293052,0.807418546365915,0,0.05
1757328384.1714559,-0.856,0.243,9.825,0.5979066043288032,5.175001565293052,0.807418546365915,0,0.05
1757328384.1989577,-0.69,0.153,9.9,0.5989011249780718,4.08340941220875,0.8157393483709275,0,0.05
1757328384.226531,-0.69,0.153,9.9,0.5989011249780718,4.08340941220875,0.8157393483709275,0,0.05
1757328384.2536478,-0.51,0.177,10.028,0.5994437484034678,3.0814539511718766,0.8247619047619049,0,0.05
1757328384.2811427,-0.51,0.177,10.028,0.5994437484034678,3.0814539511718766,0.8247619047619049,0,0.05
1757328384.3081186,-0.712,0.081,9.963,0.60049993130724,4.113936725229805,0.8348872180451129,0,0.05
1757328384.3344896,-0.712,0.081,9.963,0.60049993130724,4.113936725229805,0.8348872180451129,0,0.05
1757328384.3618731,-0.814,-0.043,9.861,0.6018776100670301,4.725468997110092,0.8400000000000002,0,0.05
1757328384.3891997,-0.814,-0.043,9.861,0.6018776100670301,4.725468997110092,0.8400000000000002,0,0.05
1757328384.416247,-0.998,-0.072,9.909,0.6039426028191751,5.76608436696632,0.8492230576441105,0,0.05
1757328384.4441752,-0.998,-0.072,9.909,0.6039426028191751,5.76608436696632,0.8492230576441105,0,0.05
1757328384.4713986,-1.037,-0.059,9.567,0.6061642434192238,6.196260632929553,0.8511779448621553,0,0.05
1757328384.4986308,-1.037,-0.059,9.567,0.6061642434192238,6.196260632929553,0.8511779448621553,0,0.05
1757328384.5256262,-1.035,-0.081,9.78,0.6083692567018816,6.0593594622463405,0.8512781954887219,0,0.05
1757328384.5525386,-1.035,-0.081,9.78,0.6083692567018816,6.0593594622463405,0.8512781954887219,0,0.05
1757328384.579493,-0.953,-0.071,9.791,0.6102324761924753,5.574641882221254,0.8553884711779447,0,0.05
1757328384.6068227,-0.953,-0.071,9.791,0.6102324761924753,5.574641882221254,0.8553884711779447,0,0.05
1757328384.6338754,-0.961,-0.107,9.699,0.6121212931274324,5.693270902996545,0.8557894736842107,0,0.05
1757328384.661014,-0.961,-0.107,9.699,0.6121212931274324,5.693270902996545,0.8557894736842107,0,0.05
1757328384.687998,-1.297,-0.076,9.762,0.6155469112910892,7.580945576195551,0.8726315789473683,0,0.05
1757328384.7156935,-1.297,-0.076,9.762,0.6155469112910892,7.580945576195551,0.8726315789473683,0,0.05
1757328384.7428749,-1.072,-0.291,9.793,0.6178761688234949,6.471254659066614,0.8839097744360901,0,0.05
1757328384.770101,-1.072,-0.291,9.793,0.6178761688234949,6.471254659066614,0.8839097744360901,0,0.05
1757328384.796248,-1.017,-0.208,9.75,0.6199650655480516,6.077212219266851,0.8866666666666667,0,0.05
1757328384.8226094,-1.017,-0.208,9.75,0.6199650655480516,6.077212219266851,0.8866666666666667,0,0.05
1757328384.8496163,-1.069,-0.241,9.777,0.6222648833093508,6.395156459465648,0.8892731829573934,0,0.05
1757328384.8769372,-1.069,-0.241,9.777,0.6222648833093508,6.395156459465648,0.8892731829573934,0,0.05
1757328384.9040751,-0.745,-0.319,9.877,0.623378815408416,4.690700781818613,0.9055137844611529,0,0.05
1757328384.931394,-0.745,-0.319,9.877,0.623378815408416,4.690700781818613,0.9055137844611529,0,0.05
1757328384.958462,-0.534,-0.182,9.963,0.6239503485855264,3.240959726783475,0.9160902255639097,0,0.05
1757328384.9860039,-0.534,-0.182,9.963,0.6239503485855264,3.240959726783475,0.9160902255639097,0,0.05
1757328385.0140307,-0.495,-0.331,9.753,0.624441030042069,3.493867453153943,0.9180451127819549,0,0.05
1757328385.0419078,-0.441,-0.048,9.897,0.6248302189395132,2.5664007573133705,0.9207518796992481,0,0.05
1757328385.069345,-0.441,-0.048,9.897,0.6248302189395132,2.5664007573133705,0.9207518796992481,0,0.05
1757328385.096048,-0.441,-0.048,9.897,0.6248302189395132,2.5664007573133705,0.9207518796992481,0,0.05
1757328385.1226842,-0.629,-0.078,9.891,0.6256212152732674,3.6665150380852936,0.9301754385964909,0,0.05
1757328385.1507854,-0.705,-0.094,9.999,0.626613491316617,4.068654467974533,0.9339849624060148,0,0.05
1757328385.1781583,-0.705,-0.094,9.999,0.626613491316617,4.068654467974533,0.9339849624060148,0,0.05
1757328385.2053194,-0.634,-0.139,9.782,0.6274148209119705,3.796144319346125,0.9375438596491228,0,0.05
1757328385.2323773,-0.634,-0.139,9.782,0.6274148209119705,3.796144319346125,0.9375438596491228,0,0.05
1757328385.2594776,-0.634,-0.139,9.782,0.6274148209119705,3.796144319346125,0.9375438596491228,0,0.05
1757328385.2863748,-0.929,-0.201,9.542,0.6291319098567486,5.688569485312886,0.9523308270676689,0,0.05
1757328385.3149855,-0.814,0.05,9.787,0.6304470239441218,4.763355922520026,0.9580952380952378,0,0.05
1757328385.342439,-0.814,0.05,9.787,0.6304470239441218,4.763355922520026,0.9580952380952378,0,0.05
1757328385.369015,-0.814,0.05,9.787,0.6304470239441218,4.763355922520026,0.9580952380952378,0,0.05
1757328385.396293,-0.734,-0.161,9.62,0.6315143228779534,4.466492682829138,0.9621052631578946,0,0.05
1757328385.4237194,-0.873,-0.074,9.675,0.6330210600762032,5.174371687373062,0.9690726817042604,0,0.05
1757328385.451362,-0.873,-0.074,9.675,0.6330210600762032,5.174371687373062,0.9690726817042604,0,0.05
1757328385.4791126,-0.618,-0.08,9.765,0.6337747805806098,3.6513965382298585,0.9818546365914786,0,0.05
1757328385.507232,-0.618,-0.08,9.765,0.6337747805806098,3.6513965382298585,0.9818546365914786,0,0.05
1757328385.5347652,-0.469,-0.181,9.62,0.6342084633620084,2.991398184837702,0.9893233082706767,0,0.05
1757328385.560212,-0.469,-0.181,9.62,0.6342084633620084,2.991398184837702,0.9893233082706767,0,0.05
1757328385.5872653,-0.648,-0.236,9.62,0.6350355383756094,4.100399445135187,0.9982957393483708,0,0.05
1757328385.6150188,-0.648,-0.236,9.62,0.6350355383756094,4.100399445135187,0.9982957393483708,0,0.05
1757328385.641888,-0.648,-0.236,9.62,0.6350355383756094,4.100399445135187,0.9982957393483708,0,0.05
1757328385.6683698,-0.707,-0.278,9.469,0.6360186770056364,4.586984169742519,1.0012531328320802,0,0.05
1757328385.69535,-0.555,-0.18,9.493,0.6366237664429439,3.517093435467342,1.0088721804511278,0,0.05
1757328385.723058,-0.555,-0.18,9.493,0.6366237664429439,3.517093435467342,1.0088721804511278,0,0.05
1757328385.7499053,-0.514,-0.044,9.643,0.6371422996474179,3.0622821828686804,1.0109273182957392,0,0.05
1757328385.7769814,-0.514,-0.044,9.643,0.6371422996474179,3.0622821828686804,1.0109273182957392,0,0.05
1757328385.803985,-0.378,0.133,9.717,0.6374225600023896,2.361460476250455,1.0177443609022558,0,0.05
1757328385.831403,-0.378,0.133,9.717,0.6374225600023896,2.361460476250455,1.0177443609022558,0,0.05
1757328385.8585083,-0.487,-0.0,9.708,0.6378874842007798,2.871824661951502,1.0232080200501252,0,0.05
1757328385.885712,-0.487,-0.0,9.708,0.6378874842007798,2.871824661951502,1.0232080200501252,0,0.05
1757328385.9128428,-0.302,0.105,9.642,0.6380661819121901,1.8992557594276376,1.0324812030075186,0,0.05
1757328385.9401855,-0.302,0.105,9.642,0.6380661819121901,1.8992557594276376,1.0324812030075186,0,0.05
1757328385.9670932,-0.217,0.116,9.598,0.6381584246877886,1.4685404453338458,1.0367418546365914,0,0.05
1757328385.9946978,-0.217,0.116,9.598,0.6381584246877886,1.4685404453338458,1.0367418546365914,0,0.05
1757328386.021884,-0.409,-0.088,9.762,0.6384860041535757,2.453964092812622,1.0463659147869673,0,0.05
1757328386.0491493,-0.409,-0.088,9.762,0.6384860041535757,2.453964092812622,1.0463659147869673,0,0.05
1757328386.0761564,-0.672,0.046,9.647,0.6393694843359354,3.9940223046154406,1.059548872180451,0,0.05
1757328386.1022978,-0.672,0.046,9.647,0.6393694843359354,3.9940223046154406,1.059548872180451,0,0.05
1757328386.1293964,-0.913,0.19,9.521,0.6409970826766687,5.594148143323175,1.0716290726817042,0,0.05
1757328386.156647,-0.913,0.19,9.521,0.6409970826766687,5.594148143323175,1.0716290726817042,0,0.05
1757328386.183595,-0.657,0.124,9.689,0.6418382837600138,3.947495605522102,1.084461152882205,0,0.05
1757328386.21083,-0.657,0.124,9.689,0.6418382837600138,3.947495605522102,1.084461152882205,0,0.05
1757328386.2385628,-0.716,0.091,9.788,0.6428359219116493,4.217314290170151,1.0874185463659145,0,0.05
1757328386.2660644,-0.716,0.091,9.788,0.6428359219116493,4.217314290170151,1.0874185463659145,0,0.05
1757328386.2932436,-0.521,0.075,9.641,0.6433635247665195,3.1250804510646244,1.09719298245614,0,0.05
1757328386.3206036,-0.521,0.075,9.641,0.6433635247665195,3.1250804510646244,1.09719298245614,0,0.05
1757328386.3470118,-0.43,-0.013,9.817,0.6437226693227449,2.509186343854122,1.1017543859649122,0,0.05
1757328386.3743298,-0.43,-0.013,9.817,0.6437226693227449,2.509186343854122,1.1017543859649122,0,0.05
1757328386.4016974,-0.451,-0.014,9.724,0.6441175183924126,2.656757739040744,1.1028070175438593,0,0.05
1757328386.4287536,-0.451,-0.014,9.724,0.6441175183924126,2.656757739040744,1.1028070175438593,0,0.05
1757328386.4557536,-0.292,0.072,9.593,0.6442829638443034,1.7956655449023362,1.1107769423558895,0,0.05
1757328386.4834948,-0.292,0.072,9.593,0.6442829638443034,1.7956655449023362,1.1107769423558895,0,0.05
1757328386.5106354,-0.287,0.191,9.692,0.6444427515303435,2.037162899621438,1.1110275689223057,0,0.05
1757328386.5381587,-0.287,0.191,9.692,0.6444427515303435,2.037162899621438,1.1110275689223057,0,0.05
1757328386.565238,-0.215,0.02,9.718,0.6445324060898722,1.2728689854730397,1.1146365914786969,0,0.05
1757328386.5926247,-0.215,0.02,9.718,0.6445324060898722,1.2728689854730397,1.1146365914786969,0,0.05
1757328386.619374,-0.231,0.001,9.621,0.6446358855974433,1.3754190412407803,1.115438596491228,0,0.05
1757328386.645836,-0.231,0.001,9.621,0.6446358855974433,1.3754190412407803,1.115438596491228,0,0.05
1757328386.6726897,-0.186,-0.043,9.673,0.6447029664892198,1.130639215152947,1.1176942355889723,0,0.05
1757328386.6997492,-0.186,-0.043,9.673,0.6447029664892198,1.130639215152947,1.1176942355889723,0,0.05
1757328386.7267363,-0.305,-0.136,9.756,0.644883305335159,1.9604674441005498,1.123659147869674,0,0.05
1757328386.7545772,-0.305,-0.136,9.756,0.644883305335159,1.9604674441005498,1.123659147869674,0,0.05
1757328386.7818856,-0.316,-0.017,9.653,0.6450768306953831,1.8776707850611782,1.1242105263157893,0,0.05
1757328386.8095865,-0.316,-0.017,9.653,0.6450768306953831,1.8776707850611782,1.1242105263157893,0,0.05
1757328386.8369446,-0.48,-0.184,9.686,0.6455231347519622,3.037969002256427,1.1324310776942355,0,0.05
1757328386.8640714,-0.48,-0.184,9.686,0.6455231347519622,3.037969002256427,1.1324310776942355,0,0.05
1757328386.8906326,-0.627,-0.319,9.717,0.6462839468840302,4.140833055958544,1.139799498746867,0,0.05
1757328386.917223,-0.627,-0.319,9.717,0.6462839468840302,4.140833055958544,1.139799498746867,0,0.05
1757328386.9441817,-0.627,-0.319,9.717,0.6462839468840302,4.140833055958544,1.139799498746867,0,0.05
1757328386.9714124,-0.523,-0.271,9.642,0.6468127723692536,3.4959246047845483,1.1450125313283206,0,0.05
1757328386.998587,-0.469,-0.257,9.587,0.647237719080092,3.192865593428595,1.1477192982456137,0,0.05
1757328387.0256622,-0.469,-0.257,9.587,0.647237719080092,3.192865593428595,1.1477192982456137,0,0.05
1757328387.0526667,-0.203,0.079,9.541,0.647317300479448,1.3078905531844955,1.1610526315789471,0,0.05
1757328387.0799112,-0.203,0.079,9.541,0.647317300479448,1.3078905531844955,1.1610526315789471,0,0.05
1757328387.107041,-0.071,0.084,9.71,0.6473270348131616,0.6489685787682729,1.1676691729323305,0,0.05
1757328387.1345265,-0.071,0.084,9.71,0.6473270348131616,0.6489685787682729,1.1676691729323305,0,0.05
1757328387.1616426,-0.291,0.029,9.753,0.6474905346798515,1.7174860850248856,1.1786967418546361,0,0.05
1757328387.188971,-0.291,0.029,9.753,0.6474905346798515,1.7174860850248856,1.1786967418546361,0,0.05
1757328387.216023,-0.341,0.134,9.724,0.6477149797557565,2.1577862014089075,1.1812030075187967,0,0.05
1757328387.2440152,-0.341,0.134,9.724,0.6477149797557565,2.1577862014089075,1.1812030075187967,0,0.05
1757328387.2710087,-0.262,-0.005,9.906,0.6478474396028745,1.5153166556954663,1.1851629072681702,0,0.05
1757328387.2982013,-0.262,-0.005,9.906,0.6478474396028745,1.5153166556954663,1.1851629072681702,0,0.05
1757328387.3252006,-0.468,0.032,9.646,0.6482699013528238,2.7841464476567626,1.195488721804511,0,0.05
1757328387.352492,-0.468,0.032,9.646,0.6482699013528238,2.7841464476567626,1.195488721804511,0,0.05
1757328387.3794708,-0.415,-0.104,9.504,0.6486019021711237,2.5774918072116013,1.198145363408521,0,0.05
1757328387.4065328,-0.415,-0.104,9.504,0.6486019021711237,2.5774918072116013,1.198145363408521,0,0.05
1757328387.4331925,-0.605,-0.06,9.803,0.6493069305035948,3.548856307662979,1.2076691729323306,0,0.05
1757328387.4599645,-0.605,-0.06,9.803,0.6493069305035948,3.548856307662979,1.2076691729323306,0,0.05
1757328387.4876912,-0.505,-0.097,9.861,0.6497977012116924,2.9851565277065486,1.2126817042606515,0,0.05
1757328387.51327,-0.505,-0.097,9.861,0.6497977012116924,2.9851565277065486,1.2126817042606515,0,0.05
1757328387.5387142,-0.686,-0.082,9.651,0.6507023455467177,4.09463226847162,1.2217543859649123,0,0.05
1757328387.5642745,-0.686,-0.082,9.651,0.6507023455467177,4.09463226847162,1.2217543859649123,0,0.05
1757328387.5903676,-0.75,-0.155,9.743,0.651782013022759,4.494497188716495,1.2249624060150375,0,0.05
1757328387.616131,-0.75,-0.155,9.743,0.651782013022759,4.494497188716495,1.2249624060150375,0,0.05
1757328387.6416783,-0.533,0.071,9.814,0.6523266168109346,3.1360945430523004,1.2358395989974933,0,0.05
1757328387.6676333,-0.533,0.071,9.814,0.6523266168109346,3.1360945430523004,1.2358395989974933,0,0.05
1757328387.6931193,-0.263,0.246,9.658,0.6524591462306281,2.1353995948331237,1.2493734335839597,0,0.05
1757328387.7190442,-0.263,0.246,9.658,0.6524591462306281,2.1353995948331237,1.2493734335839597,0,0.05
1757328387.7449875,-0.21,0.274,9.674,0.6525436288095993,2.0437449874735925,1.2520300751879696,0,0.05
1757328387.7708786,-0.21,0.274,9.674,0.6525436288095993,2.0437449874735925,1.2520300751879696,0,0.05
1757328387.7965136,-0.339,0.134,9.652,0.6527637321420362,2.1628374145057165,1.2584962406015032,0,0.05
1757328387.8232765,-0.339,0.134,9.652,0.6527637321420362,2.1628374145057165,1.2584962406015032,0,0.05
1757328387.85027,-0.339,0.134,9.652,0.6527637321420362,2.1628374145057165,1.2584962406015032,0,0.05
1757328387.8765564,-0.227,-0.023,9.808,0.6528623993614582,1.3326238821049123,1.2641102756892229,0,0.05
1757328387.9028306,-0.227,-0.023,9.808,0.6528623993614582,1.3326238821049123,1.2641102756892229,0,0.05
1757328387.9301903,-0.778,0.06,9.802,0.6540202768263382,4.551560343088435,1.2917293233082703,0,0.05
1757328387.9576976,-0.778,0.06,9.802,0.6540202768263382,4.551560343088435,1.2917293233082703,0,0.05
1757328387.9854467,-0.612,-0.085,9.746,0.6547357348579654,3.6275692901494034,1.3000501253132828,0,0.05
1757328388.0131094,-0.699,-0.158,9.849,0.6556678923052432,4.161630558449852,1.304411027568922,0,0.05
1757328388.0407965,-0.699,-0.158,9.849,0.6556678923052432,4.161630558449852,1.304411027568922,0,0.05
1757328388.0679677,-0.798,-0.135,9.814,0.6568808073006853,4.714386630105802,1.3093734335839597,0,0.05
1757328388.095768,-0.798,-0.135,9.814,0.6568808073006853,4.714386630105802,1.3093734335839597,0,0.05
1757328388.1236823,-0.476,-0.199,9.728,0.6573118247833367,3.035831401749041,1.3255137844611529,0,0.05
1757328388.151301,-0.476,-0.199,9.728,0.6573118247833367,3.035831401749041,1.3255137844611529,0,0.05
1757328388.178052,-0.479,-0.195,9.694,0.6577480045579767,3.053812642991896,1.3256641604010024,0,0.05
1757328388.2055516,-0.479,-0.195,9.694,0.6577480045579767,3.053812642991896,1.3256641604010024,0,0.05
1757328388.2322316,-0.45,0.017,9.737,0.6581327278748565,2.647953204207849,1.3271177944862151,0,0.05
1757328388.25958,-0.45,0.017,9.737,0.6581327278748565,2.647953204207849,1.3271177944862151,0,0.05
1757328388.286583,-0.481,-0.073,9.589,0.6585720082117065,2.9044709543110776,1.328671679197995,0,0.05
1757328388.3139796,-0.481,-0.073,9.589,0.6585720082117065,2.9044709543110776,1.328671679197995,0,0.05
1757328388.3418627,-0.491,0.035,9.736,0.6590294321955583,2.894373050141557,1.3291729323308268,0,0.05
1757328388.3694544,-0.491,0.035,9.736,0.6590294321955583,2.894373050141557,1.3291729323308268,0,0.05
1757328388.3970637,-0.324,0.096,9.834,0.6592285131121074,1.9680649082044823,1.3375438596491227,0,0.05
1757328388.424505,-0.324,0.096,9.834,0.6592285131121074,1.9680649082044823,1.3375438596491227,0,0.05
1757328388.4516873,-0.473,-0.139,9.59,0.6596526017533775,2.9428606374022848,1.3450125313283203,0,0.05
1757328388.4787502,-0.473,-0.139,9.59,0.6596526017533775,2.9428606374022848,1.3450125313283203,0,0.05
1757328388.5059047,-0.328,0.075,9.804,0.6598564351432817,1.9655739546290139,1.3522807017543859,0,0.05
1757328388.5329814,-0.328,0.075,9.804,0.6598564351432817,1.9655739546290139,1.3522807017543859,0,0.05
1757328388.5601394,-0.274,-0.005,9.759,0.6599986401501142,1.6085184899114047,1.354987468671679,0,0.05
1757328388.5877855,-0.274,-0.005,9.759,0.6599986401501142,1.6085184899114047,1.354987468671679,0,0.05
1757328388.6151338,-0.699,-0.125,9.59,0.6609233749081659,4.234721289174031,1.3762907268170423,0,0.05
1757328388.642477,-0.699,-0.125,9.59,0.6609233749081659,4.234721289174031,1.3762907268170423,0,0.05
1757328388.6696932,-0.849,-0.216,9.632,0.6622852180141121,5.196847006669893,1.3838095238095236,0,0.05
1757328388.6968443,-0.849,-0.216,9.632,0.6622852180141121,5.196847006669893,1.3838095238095236,0,0.05
1757328388.7238085,-0.627,-0.231,9.693,0.6630267962156582,3.943517279411718,1.3949373433583958,0,0.05
1757328388.7505968,-0.627,-0.231,9.693,0.6630267962156582,3.943517279411718,1.3949373433583958,0,0.05
1757328388.7767427,-0.763,-0.191,9.64,0.6641234486147888,4.664522035311285,1.4017543859649122,0,0.05
1757328388.8040934,-0.763,-0.191,9.64,0.6641234486147888,4.664522035311285,1.4017543859649122,0,0.05
1757328388.8311572,-0.712,-0.216,9.665,0.6650769241223153,4.402132122614291,1.4043107769423555,0,0.05
1757328388.8585126,-0.712,-0.216,9.665,0.6650769241223153,4.402132122614291,1.4043107769423555,0,0.05
1757328388.886184,-0.593,-0.181,9.774,0.6657375139647758,3.629661512630508,1.4102756892230575,0,0.05
1757328388.9149926,-0.593,-0.181,9.774,0.6657375139647758,3.629661512630508,1.4102756892230575,0,0.05
1757328388.9424632,-0.668,-0.31,9.909,0.6665748251321828,4.250348520121831,1.414035087719298,0,0.05
1757328388.9699237,-0.668,-0.31,9.909,0.6665748251321828,4.250348520121831,1.414035087719298,0,0.05
1757328388.9971347,-0.648,-0.201,9.857,0.667361789061975,3.9374612394198905,1.4150375939849622,0,0.05
1757328389.0245218,-0.648,-0.201,9.857,0.667361789061975,3.9374612394198905,1.4150375939849622,0,0.05
1757328389.0516446,-0.502,-0.099,9.714,0.667833637592477,3.015173700398583,1.4223558897243107,0,0.05
1757328389.07853,-0.502,-0.099,9.714,0.667833637592477,3.015173700398583,1.4223558897243107,0,0.05
1757328389.1056085,-0.454,0.101,9.806,0.6682193184127498,2.7155057206054902,1.4247619047619045,0,0.05
1757328389.1326418,-0.454,0.101,9.806,0.6682193184127498,2.7155057206054902,1.4247619047619045,0,0.05
1757328389.1596615,-0.367,0.215,9.789,0.6684712260075223,2.487982397015995,1.4291228070175437,0,0.05
1757328389.1876764,-0.367,0.215,9.789,0.6684712260075223,2.487982397015995,1.4291228070175437,0,0.05
1757328389.2148044,-0.404,0.085,9.719,0.6687763602281408,2.432355663589741,1.4309774436090223,0,0.05
1757328389.2420359,-0.404,0.085,9.719,0.6687763602281408,2.432355663589741,1.4309774436090223,0,0.05
1757328389.2692928,-0.445,0.049,9.767,0.6691463834617953,2.624427597396005,1.4330325814536338,0,0.05
1757328389.296485,-0.445,0.049,9.767,0.6691463834617953,2.624427597396005,1.4330325814536338,0,0.05
1757328389.3235428,-0.333,0.083,9.786,0.6693534977872305,2.0084987405560137,1.4386466165413534,0,0.05
1757328389.3507955,-0.333,0.083,9.786,0.6693534977872305,2.0084987405560137,1.4386466165413534,0,0.05
1757328389.378445,-0.387,0.154,9.663,0.6696331290341003,2.4681574792473575,1.4413533834586465,0,0.05
1757328389.4059403,-0.387,0.154,9.663,0.6696331290341003,2.4681574792473575,1.4413533834586465,0,0.05
1757328389.4339483,-0.412,0.102,9.773,0.669949914172694,2.4867758004606513,1.442606516290727,0,0.05
1757328389.4620728,-0.412,0.102,9.773,0.669949914172694,2.4867758004606513,1.442606516290727,0,0.05
1757328389.489569,-0.412,0.102,9.773,0.669949914172694,2.4867758004606513,1.442606516290727,0,0.05
1757328389.516497,-0.388,0.145,9.739,0.6702307419836843,2.4353759850117616,1.4438095238095239,0,0.05
1757328389.5445714,-0.549,0.061,9.739,0.6707926281646214,3.246235135205703,1.4518796992481204,0,0.05
1757328389.5720289,-0.549,0.061,9.739,0.6707926281646214,3.246235135205703,1.4518796992481204,0,0.05
1757328389.5988684,-0.47,-0.04,9.85,0.6712041418227394,2.741698865752249,1.4558395989974935,0,0.05
1757328389.6262333,-0.47,-0.04,9.85,0.6712041418227394,2.741698865752249,1.4558395989974935,0,0.05
1757328389.6537814,-0.533,0.099,9.898,0.6717329994127131,3.1349735982941196,1.4589974937343357,0,0.05
1757328389.6810257,-0.533,0.099,9.898,0.6717329994127131,3.1349735982941196,1.4589974937343357,0,0.05
1757328389.7085767,-0.365,-0.146,9.785,0.6719808665430884,2.300647935472945,1.4674185463659148,0,0.05
1757328389.7363386,-0.365,-0.146,9.785,0.6719808665430884,2.300647935472945,1.4674185463659148,0,0.05
1757328389.7634938,-0.641,-0.154,9.904,0.6727447417111485,3.808160039807269,1.48125313283208,0,0.05
1757328389.7909408,-0.641,-0.154,9.904,0.6727447417111485,3.808160039807269,1.48125313283208,0,0.05
1757328389.8181176,-0.564,-0.046,9.92,0.6733355237175593,3.2648209120824547,1.485112781954887,0,0.05
1757328389.8456428,-0.564,-0.046,9.92,0.6733355237175593,3.2648209120824547,1.485112781954887,0,0.05
1757328389.8727028,-0.649,-0.191,9.776,0.6741170002306721,3.9586902087082114,1.4893734335839597,0,0.05
1757328389.8989558,-0.649,-0.191,9.776,0.6741170002306721,3.9586902087082114,1.4893734335839597,0,0.05
1757328389.9260094,-0.517,-0.349,9.771,0.6746124461496393,3.652748036590231,1.495989974937343,0,0.05
1757328389.954645,-0.517,-0.349,9.771,0.6746124461496393,3.652748036590231,1.495989974937343,0,0.05
1757328389.9827251,-0.543,-0.371,9.918,0.6751585554519767,3.7935977926441904,1.4972932330827065,0,0.05
1757328390.0100255,-0.543,-0.371,9.918,0.6751585554519767,3.7935977926441904,1.4972932330827065,0,0.05
1757328390.0372436,-0.488,-0.397,9.639,0.6755993154229806,3.7341113738049803,1.5000501253132832,0,0.05
1757328390.0647745,-0.488,-0.397,9.639,0.6755993154229806,3.7341113738049803,1.5000501253132832,0,0.05
1757328390.0923948,-0.687,-0.154,9.711,0.6764719931379273,4.1466976531642485,1.5100250626566416,0,0.05
1757328390.1195178,-0.408,-0.091,9.852,0.6767795191197795,2.4296302416859956,1.5240100250626565,0,0.05
1757328390.1474648,-0.408,-0.091,9.852,0.6767795191197795,2.4296302416859956,1.5240100250626565,0,0.05
1757328390.174707,-0.676,-0.157,9.789,0.677623020196333,4.055204780461995,1.5374436090225565,0,0.05
1757328390.2019956,-0.676,-0.157,9.789,0.677623020196333,4.055204780461995,1.5374436090225565,0,0.05
1757328390.2297564,-0.515,0.002,9.638,0.6781120998772991,3.0586753440103474,1.5455137844611528,0,0.05
1757328390.2581637,-0.515,0.002,9.638,0.6781120998772991,3.0586753440103474,1.5455137844611528,0,0.05
1757328390.286174,-0.735,-0.132,9.871,0.6791071951466867,4.326288473379905,1.5565413533834584,0,0.05
1757328390.314417,-0.735,-0.132,9.871,0.6791071951466867,4.326288473379905,1.5565413533834584,0,0.05
1757328390.3417253,-0.488,-0.026,9.815,0.6795453939951326,2.850422104410198,1.568922305764411,0,0.05
1757328390.3691967,-0.488,-0.026,9.815,0.6795453939951326,2.850422104410198,1.568922305764411,0,0.05
1757328390.3971722,-0.578,-0.1,9.747,0.6801596522140959,3.4439784049101725,1.5734335839598996,0,0.05
1757328390.4245892,-0.578,-0.1,9.747,0.6801596522140959,3.4439784049101725,1.5734335839598996,0,0.05
1757328390.4518154,-0.459,-0.15,9.886,0.680546732414461,2.796427529585701,1.5793984962406014,0,0.05
1757328390.4794726,-0.459,-0.15,9.886,0.680546732414461,2.796427529585701,1.5793984962406014,0,0.05
1757328390.506589,-0.614,-0.017,9.753,0.6812388311011052,3.6036779422100125,1.5871679197994988,0,0.05
1757328390.5339441,-0.614,-0.017,9.753,0.6812388311011052,3.6036779422100125,1.5871679197994988,0,0.05
1757328390.5614429,-0.704,-0.176,9.868,0.6821476269840716,4.205809500273199,1.5916791979949874,0,0.05
1757328390.5896323,-0.704,-0.176,9.868,0.6821476269840716,4.205809500273199,1.5916791979949874,0,0.05
1757328390.6170454,-0.735,-0.116,9.899,0.6831368439046455,4.298779205178279,1.5932330827067671,0,0.05
1757328390.6445203,-0.735,-0.116,9.899,0.6831368439046455,4.298779205178279,1.5932330827067671,0,0.05
1757328390.6717381,-0.533,-0.121,9.786,0.6836564707512099,3.196729383785589,1.6033583959899753,0,0.05
1757328390.6992836,-0.533,-0.121,9.786,0.6836564707512099,3.196729383785589,1.6033583959899753,0,0.05
1757328390.7266624,-0.559,0.038,9.701,0.6842275736186024,3.305497836788467,1.6046616541353382,0,0.05
1757328390.7540534,-0.559,0.038,9.701,0.6842275736186024,3.305497836788467,1.6046616541353382,0,0.05
1757328390.7815404,-0.303,-0.082,9.647,0.6843952768685652,1.8636656730139887,1.6174937343358395,0,0.05
1757328390.809512,-0.303,-0.082,9.647,0.6843952768685652,1.8636656730139887,1.6174937343358395,0,0.05
1757328390.836879,-0.253,0.391,9.745,0.6845121748369418,2.73608920514771,1.6199999999999999,0,0.05
1757328390.8647087,-0.253,0.391,9.745,0.6845121748369418,2.73608920514771,1.6199999999999999,0,0.05
1757328390.8926282,-0.35,0.185,9.712,0.6847358377505883,2.3342250895494145,1.6248621553884712,0,0.05
1757328390.9199824,-0.35,0.185,9.712,0.6847358377505883,2.3342250895494145,1.6248621553884712,0,0.05
1757328390.9475439,-0.47,0.251,9.638,0.6851389767777045,3.164297547692408,1.630877192982456,0,0.05
1757328390.9753828,-0.47,0.251,9.638,0.6851389767777045,3.164297547692408,1.630877192982456,0,0.05
1757328391.0027769,-0.52,0.173,9.795,0.6856321298626545,3.2023167040544327,1.6333834586466163,0,0.05
1757328391.0292466,-0.52,0.173,9.795,0.6856321298626545,3.2023167040544327,1.6333834586466163,0,0.05
1757328391.0565686,-0.46,0.347,9.739,0.6860177967808124,3.3859241347157294,1.636390977443609,0,0.05
1757328391.0840683,-0.46,0.347,9.739,0.6860177967808124,3.3859241347157294,1.636390977443609,0,0.05
1757328391.1104052,-0.358,0.121,9.557,0.6862512859732942,2.2643656878189815,1.641503759398496,0,0.05
1757328391.1376202,-0.358,0.121,9.557,0.6862512859732942,2.2643656878189815,1.641503759398496,0,0.05
1757328391.1657155,-0.327,0.18,9.732,0.6864460284683713,2.1964861374699316,1.6430576441102756,0,0.05
1757328391.1930797,-0.327,0.18,9.732,0.6864460284683713,2.1964861374699316,1.6430576441102756,0,0.05
1757328391.2205002,-0.337,0.123,9.684,0.6866528034603806,2.121559429658523,1.6435588972431077,0,0.05
1757328391.2481692,-0.337,0.123,9.684,0.6866528034603806,2.121559429658523,1.6435588972431077,0,0.05
1757328391.2756867,-0.467,0.036,9.712,0.6870497034421891,2.761093129539365,1.6500751879699247,0,0.05
1757328391.3036032,-0.467,0.036,9.712,0.6870497034421891,2.761093129539365,1.6500751879699247,0,0.05
1757328391.3313782,-0.384,-0.001,9.83,0.6873179286181905,2.237077575403468,1.654235588972431,0,0.05
1757328391.3587368,-0.383,0.056,9.686,0.6875846547880486,2.2884387148568246,1.6542857142857144,0,0.05
1757328391.385389,-0.383,0.056,9.686,0.6875846547880486,2.2884387148568246,1.6542857142857144,0,0.05
1757328391.4132283,-0.383,0.056,9.686,0.6875846547880486,2.2884387148568246,1.6542857142857144,0,0.05
1757328391.440691,-0.438,-0.098,9.727,0.687933330708725,2.64190535594675,1.6570426065162907,0,0.05
1757328391.4683676,-0.281,-0.164,9.76,0.6880767907726578,1.9092896141287226,1.6649122807017542,0,0.05
1757328391.495882,-0.281,-0.164,9.76,0.6880767907726578,1.9092896141287226,1.6649122807017542,0,0.05
1757328391.5229502,-0.281,-0.164,9.76,0.6880767907726578,1.9092896141287226,1.6649122807017542,0,0.05
1757328391.550144,-0.126,0.203,9.635,0.6881056314258734,1.4205055047662651,1.6726817042606517,0,0.05
1757328391.5776994,-0.3,0.054,9.651,0.6882691043480014,1.8090526973393402,1.6814035087719301,0,0.05
1757328391.6052995,-0.3,0.054,9.651,0.6882691043480014,1.8090526973393402,1.6814035087719301,0,0.05
1757328391.6321769,-0.3,0.054,9.651,0.6882691043480014,1.8090526973393402,1.6814035087719301,0,0.05
1757328391.6573386,-0.142,0.26,9.608,0.6883057242243449,1.7660795793558721,1.6893233082706767,0,0.05
1757328391.6841254,-0.382,0.032,9.654,0.6885706790155968,2.2738880682403324,1.701353383458647,0,0.05
1757328391.7116334,-0.382,0.032,9.654,0.6885706790155968,2.2738880682403324,1.701353383458647,0,0.05
1757328391.7389054,-0.382,0.032,9.654,0.6885706790155968,2.2738880682403324,1.701353383458647,0,0.05
1757328391.7662725,-0.376,0.076,9.686,0.6888272787861991,2.267954547980126,1.7016541353383459,0,0.05
1757328391.7945843,-0.186,-0.218,9.573,0.6888900565402291,1.714625868081411,1.7111779448621556,0,0.05
1757328391.8213294,-0.186,-0.218,9.573,0.6888900565402291,1.714625868081411,1.7111779448621556,0,0.05
1757328391.8487568,-0.186,-0.218,9.573,0.6888900565402291,1.714625868081411,1.7111779448621556,0,0.05
1757328391.8760834,-0.564,-0.016,9.655,0.6894670042866445,3.3444945284397076,1.7301253132832084,0,0.05
1757328391.903598,-0.428,-0.115,9.807,0.6897990359517763,2.587448879764639,1.7369423558897246,0,0.05
1757328391.9312031,-0.428,-0.115,9.807,0.6897990359517763,2.587448879764639,1.7369423558897246,0,0.05
1757328391.958597,-0.493,0.006,9.772,0.6902393298704442,2.8883521796940173,1.740200501253133,0,0.05
1757328391.985864,-0.493,0.006,9.772,0.6902393298704442,2.8883521796940173,1.740200501253133,0,0.05
1757328392.0135427,-0.602,-0.032,9.674,0.690895319494929,3.5658618461970706,1.7456641604010024,0,0.05
1757328392.0416121,-0.602,-0.032,9.674,0.690895319494929,3.5658618461970706,1.7456641604010024,0,0.05
1757328392.0689,-0.605,-0.017,9.771,0.6915572319049235,3.5445071538551796,1.745814536340852,0,0.05
1757328392.0961068,-0.605,-0.017,9.771,0.6915572319049235,3.5445071538551796,1.745814536340852,0,0.05
1757328392.1233592,-0.396,-0.038,9.717,0.6918406210970848,2.344409876420529,1.7562907268170427,0,0.05
1757328392.1507943,-0.396,-0.038,9.717,0.6918406210970848,2.344409876420529,1.7562907268170427,0,0.05
1757328392.1782212,-0.433,0.092,9.611,0.692179288551745,2.637079343691533,1.7581453634085213,0,0.05
1757328392.2055442,-0.433,0.092,9.611,0.692179288551745,2.637079343691533,1.7581453634085213,0,0.05
1757328392.2327712,-0.199,0.333,9.74,0.6922507999273095,2.2808042395005437,1.7698746867167925,0,0.05
1757328392.261381,-0.199,0.333,9.74,0.6922507999273095,2.2808042395005437,1.7698746867167925,0,0.05
1757328392.2888718,-0.437,0.119,9.681,0.692595547560046,2.6785542934219895,1.7818045112781957,0,0.05
1757328392.316827,-0.437,0.119,9.681,0.692595547560046,2.6785542934219895,1.7818045112781957,0,0.05
1757328392.3442297,-0.505,0.206,9.58,0.6930556651525186,3.2583939704466127,1.7852130325814537,0,0.05
1757328392.3717747,-0.505,0.206,9.58,0.6930556651525186,3.2583939704466127,1.7852130325814537,0,0.05
1757328392.3990252,-0.531,-0.014,9.681,0.6935640255232389,3.140599578389521,1.7865162907268168,0,0.05
1757328392.4260967,-0.531,-0.014,9.681,0.6935640255232389,3.140599578389521,1.7865162907268168,0,0.05
1757328392.45345,-0.398,0.017,9.772,0.6938494559340664,2.334412797689372,1.7931829573934837,0,0.05
1757328392.4808593,-0.398,0.017,9.772,0.6938494559340664,2.334412797689372,1.7931829573934837,0,0.05
1757328392.5068278,-0.463,0.067,9.683,0.6942355436017376,2.7660265307489387,1.796441102756892,0,0.05
1757328392.5332682,-0.463,0.067,9.683,0.6942355436017376,2.7660265307489387,1.796441102756892,0,0.05
1757328392.5591297,-0.559,0.109,9.816,0.6947979508461435,3.320599101437158,1.8012531328320802,0,0.05
1757328392.585321,-0.559,0.109,9.816,0.6947979508461435,3.320599101437158,1.8012531328320802,0,0.05
1757328392.6109562,-0.434,0.167,9.746,0.6951367365490044,2.7317440810826525,1.807518796992481,0,0.05
1757328392.6372123,-0.434,0.167,9.746,0.6951367365490044,2.7317440810826525,1.807518796992481,0,0.05
1757328392.6630108,-0.612,-0.059,9.744,0.6958099183685154,3.610523948511159,1.8164411027568923,0,0.05
1757328392.688723,-0.612,-0.059,9.744,0.6958099183685154,3.610523948511159,1.8164411027568923,0,0.05
1757328392.7153473,-0.718,-0.014,9.774,0.6967354250359314,4.202208537872303,1.8217543859649126,0,0.05
1757328392.7431133,-0.718,-0.014,9.774,0.6967354250359314,4.202208537872303,1.8217543859649126,0,0.05
1757328392.7695007,-0.541,0.17,9.779,0.6972603208271643,3.318847286526717,1.8306265664160404,0,0.05
1757328392.7958927,-0.541,0.17,9.779,0.6972603208271643,3.318847286526717,1.8306265664160404,0,0.05
1757328392.8216348,-0.418,-0.207,9.771,0.6975734835843461,2.7331063967815736,1.8367919799498746,0,0.05
1757328392.8483984,-0.418,-0.207,9.771,0.6975734835843461,2.7331063967815736,1.8367919799498746,0,0.05
1757328392.8749423,-0.675,-0.05,9.64,0.698389452597904,4.016293587134494,1.8496741854636591,0,0.05
1757328392.9012868,-0.675,-0.05,9.64,0.698389452597904,4.016293587134494,1.8496741854636591,0,0.05
1757328392.9293437,-0.506,0.014,9.776,0.6988475638506584,2.9640835815515105,1.8581453634085212,0,0.05
1757328392.9570088,-0.506,0.014,9.776,0.6988475638506584,2.9640835815515105,1.8581453634085212,0,0.05
1757328392.984749,-0.506,0.014,9.776,0.6988475638506584,2.9640835815515105,1.8581453634085212,0,0.05
1757328393.012056,-0.431,-0.188,9.811,0.6991797479904578,2.743951531525604,1.861904761904762,0,0.05
1757328393.0395074,-0.57,-0.038,9.818,0.6997603661254329,3.330029105727622,1.8688721804511275,0,0.05
1757328393.067236,-0.57,-0.038,9.818,0.6997603661254329,3.330029105727622,1.8688721804511275,0,0.05
1757328393.0949843,-0.49,-0.011,9.825,0.7001891315923149,2.855851969611546,1.8728822055137844,0,0.05
1757328393.1213639,-0.49,-0.011,9.825,0.7001891315923149,2.855851969611546,1.8728822055137844,0,0.05
1757328393.1491382,-0.49,-0.011,9.825,0.7001891315923149,2.855851969611546,1.8728822055137844,0,0.05
1757328393.1769774,-0.674,-0.161,9.922,0.7009996504991995,3.995107686584804,1.8821052631578943,0,0.05
1757328393.2050643,-0.667,0.047,9.783,0.7017925138529193,3.9100025004315753,1.882456140350877,0,0.05
1757328393.2328792,-0.667,0.047,9.783,0.7017925138529193,3.9100025004315753,1.882456140350877,0,0.05
1757328393.2605493,-0.669,-0.045,9.842,0.7025892363251802,3.897401085793484,1.8825563909774432,0,0.05
1757328393.2880569,-0.669,-0.045,9.842,0.7025892363251802,3.897401085793484,1.8825563909774432,0,0.05
1757328393.3158019,-0.633,-0.043,9.803,0.7033017542278706,3.703068791905489,1.8843609022556391,0,0.05
1757328393.3433561,-0.633,-0.043,9.803,0.7033017542278706,3.703068791905489,1.8843609022556391,0,0.05
1757328393.3709488,-0.614,0.028,9.712,0.7039714820218216,3.6212177046070253,1.8853132832080202,0,0.05
1757328393.398918,-0.614,0.028,9.712,0.7039714820218216,3.6212177046070253,1.8853132832080202,0,0.05
1757328393.4267852,-0.527,0.025,9.773,0.704464456165107,3.0900969362822273,1.8896741854636592,0,0.05
1757328393.4542212,-0.527,0.025,9.773,0.704464456165107,3.0900969362822273,1.8896741854636592,0,0.05
1757328393.4819613,-0.558,0.096,9.856,0.7050167232059109,3.2878582432697083,1.8912280701754387,0,0.05
1757328393.5096376,-0.558,0.096,9.856,0.7050167232059109,3.2878582432697083,1.8912280701754387,0,0.05
1757328393.5371265,-0.547,-0.189,9.807,0.7055470235923329,3.37722587809713,1.8917794486215542,0,0.05
1757328393.5651855,-0.547,-0.189,9.807,0.7055470235923329,3.37722587809713,1.8917794486215542,0,0.05
1757328393.5929637,-0.556,0.081,9.802,0.7060944996953311,3.2807124702085217,1.8922305764411027,0,0.05
1757328393.6203227,-0.556,0.081,9.802,0.7060944996953311,3.2807124702085217,1.8922305764411027,0,0.05
1757328393.647818,-0.245,0.29,9.919,0.7062007540352814,2.1918582932483286,1.9078195488721807,0,0.05
1757328393.675889,-0.245,0.29,9.919,0.7062007540352814,2.1918582932483286,1.9078195488721807,0,0.05
1757328393.7032304,-0.376,0.227,9.828,0.7064509501727633,2.5588236615815623,1.9143859649122807,0,0.05
1757328393.7309003,-0.376,0.227,9.828,0.7064509501727633,2.5588236615815623,1.9143859649122807,0,0.05
1757328393.7582526,-0.482,0.261,9.631,0.7068619065984529,3.257357993054799,1.9196992481203008,0,0.05
1757328393.7866209,-0.482,0.261,9.631,0.7068619065984529,3.257357993054799,1.9196992481203008,0,0.05
1757328393.8141472,-0.449,-0.084,9.852,0.7072183237869336,2.654628745268098,1.9213533834586467,0,0.05
1757328393.8418672,-0.449,-0.084,9.852,0.7072183237869336,2.654628745268098,1.9213533834586467,0,0.05
1757328393.8696196,-0.556,0.065,9.92,0.707764507092578,3.2297810688800612,1.92671679197995,0,0.05
1757328393.897347,-0.556,0.065,9.92,0.707764507092578,3.2297810688800612,1.92671679197995,0,0.05
1757328393.9250178,-0.658,-0.129,9.643,0.7085287626483486,3.977658914162487,1.931829573934837,0,0.05
1757328393.952507,-0.483,0.07,9.87,0.708940216097239,2.830823210374697,1.9406015037593984,0,0.05
1757328393.979797,-0.483,0.07,9.87,0.708940216097239,2.830823210374697,1.9406015037593984,0,0.05
1757328394.0067513,-0.483,0.07,9.87,0.708940216097239,2.830823210374697,1.9406015037593984,0,0.05
1757328394.034259,-0.366,0.104,9.958,0.7091763673445414,2.1881726253227773,1.9464661654135338,0,0.05
1757328394.0624006,-0.411,0.032,9.667,0.7094740463892953,2.4418672766622134,1.9487218045112782,0,0.05
1757328394.090762,-0.411,0.032,9.667,0.7094740463892953,2.4418672766622134,1.9487218045112782,0,0.05
1757328394.118708,-0.411,0.032,9.667,0.7094740463892953,2.4418672766622134,1.9487218045112782,0,0.05
1757328394.1466954,-0.46,0.015,9.736,0.7098467598714527,2.706496588152944,1.9511779448621553,0,0.05
1757328394.1747785,-0.437,-0.002,9.835,0.7101829658616152,2.5441849649366364,1.9523308270676691,0,0.05
1757328394.2020528,-0.437,-0.002,9.835,0.7101829658616152,2.5441849649366364,1.9523308270676691,0,0.05
1757328394.2292998,-0.301,0.11,9.502,0.7103424156700766,1.9316585298717988,1.9591478696741855,0,0.05
1757328394.2572262,-0.301,0.11,9.502,0.7103424156700766,1.9316585298717988,1.9591478696741855,0,0.05
1757328394.2846863,-0.615,0.014,9.715,0.7110076722511509,3.6231641810079784,1.9748872180451125,0,0.05
1757328394.3125203,-0.615,0.014,9.715,0.7110076722511509,3.6231641810079784,1.9748872180451125,0,0.05
1757328394.3395462,-0.437,0.139,9.994,0.7113433295533177,2.627169441818282,1.9838095238095237,0,0.05
1757328394.3670173,-0.437,0.139,9.994,0.7113433295533177,2.627169441818282,1.9838095238095237,0,0.05
1757328394.394621,-0.527,0.024,9.848,0.7118311983890563,3.0663391787697654,1.9883208020050123,0,0.05
1757328394.422115,-0.527,0.024,9.848,0.7118311983890563,3.0663391787697654,1.9883208020050123,0,0.05
1757328394.449501,-0.438,-0.113,9.835,0.7121680033531413,2.633352091002747,1.9927819548872179,0,0.05
1757328394.4768476,-0.438,-0.113,9.835,0.7121680033531413,2.633352091002747,1.9927819548872179,0,0.05
1757328394.5042806,-0.393,0.056,10.066,0.7124390412519516,2.2583858811279844,1.9950375939849623,0,0.05
1757328394.5318158,-0.393,0.056,10.066,0.7124390412519516,2.2583858811279844,1.9950375939849623,0,0.05
1757328394.557872,-0.584,0.023,9.745,0.7130371852154697,3.432181782019385,2.004611528822055,0,0.05
1757328394.5853214,-0.584,0.023,9.745,0.7130371852154697,3.432181782019385,2.004611528822055,0,0.05
1757328394.6127145,-0.584,0.023,9.745,0.7130371852154697,3.432181782019385,2.004611528822055,0,0.05
1757328394.6399515,-0.609,-0.036,9.863,0.7136870672780893,3.539447115955632,2.005864661654136,0,0.05
1757328394.6674478,-0.512,-0.02,10.038,0.7141460564898472,2.922131230914871,2.0107268170426065,0,0.05
1757328394.694856,-0.512,-0.02,10.038,0.7141460564898472,2.922131230914871,2.0107268170426065,0,0.05
1757328394.722418,-0.724,0.188,9.865,0.7150629552703733,4.336138123959957,2.0213533834586466,0,0.05
1757328394.7501535,-0.724,0.188,9.865,0.7150629552703733,4.336138123959957,2.0213533834586466,0,0.05
1757328394.777532,-0.456,-0.067,9.772,0.7154263553993521,2.7003512784000177,2.034786967418546,0,0.05
1757328394.8050282,-0.456,-0.067,9.772,0.7154263553993521,2.7003512784000177,2.034786967418546,0,0.05
1757328394.8323016,-0.479,0.178,9.849,0.7158271247305455,2.9700617458137994,2.03593984962406,0,0.05
1757328394.8591728,-0.479,0.178,9.849,0.7158271247305455,2.9700617458137994,2.03593984962406,0,0.05
1757328394.8865712,-0.561,0.061,9.776,0.7163764897035636,3.3036569668994242,2.0400501253132832,0,0.05
1757328394.9139924,-0.561,0.061,9.776,0.7163764897035636,3.3036569668994242,2.0400501253132832,0,0.05
1757328394.9413984,-0.455,-0.098,9.726,0.716737635052046,2.73977861875342,2.045363408521303,0,0.05
1757328394.9690855,-0.455,-0.098,9.726,0.716737635052046,2.73977861875342,2.045363408521303,0,0.05
1757328394.9964945,-0.454,0.074,9.768,0.717097014008565,2.696161341767354,2.0454135338345862,0,0.05
1757328395.022703,-0.454,0.074,9.768,0.717097014008565,2.696161341767354,2.0454135338345862,0,0.05
1757328395.0502255,-0.827,0.075,9.871,0.7182882081727362,4.808662055563748,2.064110275689223,0,0.05
1757328395.077848,-0.827,0.075,9.871,0.7182882081727362,4.808662055563748,2.064110275689223,0,0.05
1757328395.104684,-0.827,0.075,9.871,0.7182882081727362,4.808662055563748,2.064110275689223,0,0.05
1757328395.1319754,-0.571,-0.093,9.71,0.7188553766231425,3.409664696047755,2.076942355889724,0,0.05
1757328395.1592429,-0.501,-0.023,9.714,0.7192917036919028,2.9555205936038633,2.0804511278195488,0,0.05
1757328395.186947,-0.501,-0.023,9.714,0.7192917036919028,2.9555205936038633,2.0804511278195488,0,0.05
1757328395.2144501,-0.634,-0.008,9.765,0.7199898922901626,3.7150528336436603,2.0871177944862156,0,0.05
1757328395.2423778,-0.634,-0.008,9.765,0.7199898922901626,3.7150528336436603,2.0871177944862156,0,0.05
1757328395.270088,-0.549,0.155,9.615,0.7205129752474968,3.395397764575875,2.0913784461152884,0,0.05
1757328395.2975588,-0.549,0.155,9.615,0.7205129752474968,3.395397764575875,2.0913784461152884,0,0.05
1757328395.325099,-0.533,-0.065,9.618,0.7210056657197639,3.1953625714918825,2.0921804511278195,0,0.05
1757328395.3528895,-0.533,-0.065,9.618,0.7210056657197639,3.1953625714918825,2.0921804511278195,0,0.05
1757328395.3805509,-0.573,0.125,9.664,0.721574661764117,3.4728305405043907,2.0941854636591475,0,0.05
1757328395.4081013,-0.573,0.125,9.664,0.721574661764117,3.4728305405043907,2.0941854636591475,0,0.05
1757328395.4360752,-0.697,0.202,9.639,0.7224157494130371,4.305443809322703,2.1004010025062656,0,0.05
1757328395.463749,-0.589,-0.319,9.887,0.7230157795650106,3.8758260191306024,2.1058145363408522,0,0.05
1757328395.4918618,-0.589,-0.319,9.887,0.7230157795650106,3.8758260191306024,2.1058145363408522,0,0.05
1757328395.519595,-0.589,-0.319,9.887,0.7230157795650106,3.8758260191306024,2.1058145363408522,0,0.05
1757328395.5486531,-0.544,0.132,9.862,0.7235272334197241,3.2487301877065855,2.108070175438596,0,0.05
1757328395.576889,-0.665,0.006,9.76,0.7242908393732451,3.8979958486216946,2.1141353383458648,0,0.05
1757328395.6045883,-0.665,0.006,9.76,0.7242908393732451,3.8979958486216946,2.1141353383458648,0,0.05
1757328395.6320798,-0.661,-0.307,9.887,0.7250444969103621,4.215897941979823,2.114335839598997,0,0.05
1757328395.6599586,-0.661,-0.307,9.887,0.7250444969103621,4.215897941979823,2.114335839598997,0,0.05
1757328395.6873493,-0.671,0.108,9.892,0.7258203117852241,3.930365087783911,2.1148370927318294,0,0.05
1757328395.7147396,-0.671,0.108,9.892,0.7258203117852241,3.930365087783911,2.1148370927318294,0,0.05
1757328395.7423503,-0.642,-0.3,9.796,0.7265297894787247,4.137526670080349,2.1162907268170428,0,0.05
1757328395.7694044,-0.642,-0.3,9.796,0.7265297894787247,4.137526670080349,2.1162907268170428,0,0.05
1757328395.7975895,-0.564,-0.311,9.857,0.7270768700763351,3.7384298030542698,2.120200501253133,0,0.05
1757328395.8258338,-0.564,-0.311,9.857,0.7270768700763351,3.7384298030542698,2.120200501253133,0,0.05
1757328395.8534787,-0.687,-0.398,9.727,0.7278878330484718,4.666387393354286,2.126365914786968,0,0.05
1757328395.8819454,-0.687,-0.398,9.727,0.7278878330484718,4.666387393354286,2.126365914786968,0,0.05
1757328395.909472,-0.796,-0.279,9.857,0.7289751281765381,4.8909757880704205,2.1318295739348367,0,0.05
1757328395.936954,-0.796,-0.279,9.857,0.7289751281765381,4.8909757880704205,2.1318295739348367,0,0.05
1757328395.9637136,-0.845,-0.221,9.799,0.7301984661720401,5.093529345014828,2.134285714285714,0,0.05
1757328395.9915059,-0.845,-0.221,9.799,0.7301984661720401,5.093529345014828,2.134285714285714,0,0.05
1757328396.0184674,-1.029,-0.128,9.697,0.732008813130006,6.1036232303979885,2.1435087719298243,0,0.05
1757328396.0442154,-1.029,-0.128,9.697,0.732008813130006,6.1036232303979885,2.1435087719298243,0,0.05
1757328396.0715983,-0.758,-0.083,9.806,0.7329892990351224,4.44646585930954,2.157092731829574,0,0.05
1757328396.1001413,-0.758,-0.083,9.806,0.7329892990351224,4.44646585930954,2.157092731829574,0,0.05
1757328396.1285415,-0.655,0.043,9.893,0.7337205701082667,3.796065176699085,2.1622556390977445,0,0.05
1757328396.156897,-0.655,0.043,9.893,0.7337205701082667,3.796065176699085,2.1622556390977445,0,0.05
1757328396.1851573,-0.387,0.075,9.738,0.7339756790929792,2.3181040725843625,2.1756892230576437,0,0.05
1757328396.213223,-0.387,0.075,9.738,0.7339756790929792,2.3181040725843625,2.1756892230576437,0,0.05
1757328396.240936,-0.481,0.157,9.784,0.7343695935971206,2.9603832899420794,2.1804010025062657,0,0.05
1757328396.2690053,-0.481,0.157,9.784,0.7343695935971206,2.9603832899420794,2.1804010025062657,0,0.05
1757328396.2967985,-0.558,0.009,9.794,0.734899387671537,3.2612481496833237,2.1842606516290726,0,0.05
1757328396.3242376,-0.558,0.009,9.794,0.734899387671537,3.2612481496833237,2.1842606516290726,0,0.05
1757328396.351804,-0.577,0.089,9.805,0.7354654529615922,3.407565541044123,2.1852130325814536,0,0.05
1757328396.3796694,-0.577,0.089,9.805,0.7354654529615922,3.407565541044123,2.1852130325814536,0,0.05
1757328396.4072514,-0.737,0.031,9.869,0.7363880464809298,4.274585523076859,2.1932330827067665,0,0.05
1757328396.4348955,-0.737,0.031,9.869,0.7363880464809298,4.274585523076859,2.1932330827067665,0,0.05
1757328396.4626112,-0.598,-0.223,9.864,0.736994820198894,3.7020255864252065,2.2002005012531325,0,0.05
1757328396.49079,-0.792,-0.209,9.796,0.7380579414924007,4.779783242763268,2.209924812030075,0,0.05
1757328396.5183597,-0.792,-0.209,9.796,0.7380579414924007,4.779783242763268,2.209924812030075,0,0.05
1757328396.543843,-0.792,-0.209,9.796,0.7380579414924007,4.779783242763268,2.209924812030075,0,0.05
1757328396.5707986,-0.729,-0.175,9.756,0.7389574598716762,4.394321166065547,2.2130827067669174,0,0.05
1757328396.5978737,-0.639,-0.19,9.724,0.7396478418815268,3.9218948426958042,2.217593984962406,0,0.05
1757328396.6248384,-0.639,-0.19,9.724,0.7396478418815268,3.9218948426958042,2.217593984962406,0,0.05
1757328396.6521528,-0.678,-0.099,9.778,0.7404242972782565,4.00842818422838,2.219548872180451,0,0.05
1757328396.679724,-0.678,-0.099,9.778,0.7404242972782565,4.00842818422838,2.219548872180451,0,0.05
1757328396.7077968,-0.707,-0.181,9.607,0.7412676726392431,4.344163647851838,2.221002506265664,0,0.05
1757328396.7356956,-0.707,-0.181,9.607,0.7412676726392431,4.344163647851838,2.221002506265664,0,0.05
1757328396.764032,-0.811,-0.181,9.708,0.7423759593359688,4.892285432249543,2.226215538847118,0,0.05
1757328396.7918005,-0.811,-0.181,9.708,0.7423759593359688,4.892285432249543,2.226215538847118,0,0.05
1757328396.819335,-0.762,-0.126,9.771,0.7433529948819739,4.519538187346354,2.228671679197995,0,0.05
1757328396.846962,-0.762,-0.126,9.771,0.7433529948819739,4.519538187346354,2.228671679197995,0,0.05
1757328396.8746862,-0.698,-0.067,9.709,0.7441718114790429,4.1308720101995675,2.2318796992481205,0,0.05
1757328396.902102,-0.698,-0.067,9.709,0.7441718114790429,4.1308720101995675,2.2318796992481205,0,0.05
1757328396.9285877,-0.46,0.153,9.699,0.7445271553140288,2.8613873770917824,2.243809523809524,0,0.05
1757328396.9559526,-0.46,0.153,9.699,0.7445271553140288,2.8613873770917824,2.243809523809524,0,0.05
1757328396.982905,-0.273,0.24,9.761,0.7446522728764078,2.132685206065569,2.253182957393484,0,0.05
1757328397.010563,-0.273,0.24,9.761,0.7446522728764078,2.132685206065569,2.253182957393484,0,0.05
1757328397.038056,-0.028,0.349,9.517,0.7446535889257501,2.106907232275411,2.2654636591478696,0,0.05
1757328397.0665355,-0.028,0.349,9.517,0.7446535889257501,2.106907232275411,2.2654636591478696,0,0.05
1757328397.0942974,-0.288,0.285,9.541,0.7447928084373533,2.4317192965290295,2.2784962406015037,0,0.05
1757328397.12212,-0.288,0.285,9.541,0.7447928084373533,2.4317192965290295,2.2784962406015037,0,0.05
1757328397.1495821,-0.202,0.128,9.77,0.7448612874220273,1.4021478602286424,2.2828070175438593,0,0.05
1757328397.1770823,-0.202,0.128,9.77,0.7448612874220273,1.4021478602286424,2.2828070175438593,0,0.05
1757328397.2043297,-0.693,-0.211,9.568,0.7456667888541101,4.329703816041881,2.307418546365915,0,0.05
1757328397.231602,-0.693,-0.211,9.568,0.7456667888541101,4.329703816041881,2.307418546365915,0,0.05
1757328397.2591467,-0.654,-0.102,9.489,0.7463834470297421,3.9902105516557884,2.2607017543859644,0,0.05
1757328397.2868254,-0.654,-0.102,9.489,0.7463834470297421,3.9902105516557884,2.2607017543859644,0,0.05
1757328397.3142223,-0.52,-0.218,9.75,0.7452564307001986,3.3097578965513486,2.2664160401002507,0,0.05
1757328397.342095,-0.52,-0.218,9.75,0.7452564307001986,3.3097578965513486,2.2664160401002507,0,0.05
1757328397.371038,-0.555,-0.007,9.677,0.7442554719315136,3.2827199981745627,2.2681203007518795,0,0.05
1757328397.3987072,-0.555,-0.007,9.677,0.7442554719315136,3.2827199981745627,2.2681203007518795,0,0.05
1757328397.4263525,-0.513,-0.002,9.617,0.7431745218991297,3.053460156074746,2.268872180451128,0,0.05
1757328397.453947,-0.513,-0.002,9.617,0.7431745218991297,3.053460156074746,2.268872180451128,0,0.05
1757328397.4819994,-0.485,-0.094,9.752,0.741957094446842,2.900060328866746,2.269674185463659,0,0.05
1757328397.5089636,-0.485,-0.094,9.752,0.741957094446842,2.900060328866746,2.269674185463659,0,0.05
1757328397.5347311,-0.609,-0.129,9.754,0.7409266697858837,3.6517366585729096,2.2758395989974938,0,0.05
1757328397.5610201,-0.609,-0.129,9.754,0.7409266697858837,3.6517366585729096,2.2758395989974938,0,0.05
1757328397.5871816,-0.564,-0.166,9.745,0.7398022776391,3.452504416486739,2.277844611528822,0,0.05
1757328397.6136763,-0.564,-0.166,9.745,0.7398022776391,3.452504416486739,2.277844611528822,0,0.05
1757328397.6399696,-0.595,-0.23,9.725,0.7387537140346572,3.7529129905511414,2.277994987468672,0,0.05
1757328397.6663477,-0.595,-0.23,9.725,0.7387537140346572,3.7529129905511414,2.277994987468672,0,0.05
1757328397.692772,-0.521,-0.179,9.701,0.7376560512867769,3.2501725127741805,2.2804511278195485,0,0.05
1757328397.718569,-0.521,-0.179,9.701,0.7376560512867769,3.2501725127741805,2.2804511278195485,0,0.05
1757328397.7447693,-0.339,-0.185,9.813,0.7363714161345482,2.253733554946181,2.289473684210526,0,0.05
1757328397.771629,-0.339,-0.185,9.813,0.7363714161345482,2.253733554946181,2.289473684210526,0,0.05
1757328397.799258,-0.372,0.153,9.684,0.7351180738493648,2.378472572261412,2.2910275689223054,0,0.05
1757328397.8260624,-0.372,0.153,9.684,0.7351180738493648,2.378472572261412,2.2910275689223054,0,0.05
1757328397.8533971,-0.345,-0.067,9.618,0.7338232314392887,2.092679763104673,2.2902756892230576,0,0.05
1757328397.8797855,-0.345,-0.067,9.618,0.7338232314392887,2.092679763104673,2.2902756892230576,0,0.05
1757328397.9061246,-0.561,-0.081,9.673,0.73272255151592,3.3535771289523866,2.3006516290726817,0,0.05
1757328397.9340565,-0.561,-0.081,9.673,0.73272255151592,3.3535771289523866,2.3006516290726817,0,0.05
1757328397.961479,-0.476,-0.058,9.715,0.7314393173736288,2.8257567502249694,2.304862155388471,0,0.05
1757328397.988604,-0.476,-0.058,9.715,0.7314393173736288,2.8257567502249694,2.304862155388471,0,0.05
1757328398.0163605,-0.891,-0.482,9.783,0.7311277709812424,5.9118388596351785,2.3247619047619046,0,0.05
1757328398.044127,-0.891,-0.482,9.783,0.7311277709812424,5.9118388596351785,2.3247619047619046,0,0.05
1757328398.0717242,-0.761,-0.294,9.78,0.7305089800953853,4.76839366763173,2.3302756892230576,0,0.05
1757328398.09953,-0.761,-0.294,9.78,0.7305089800953853,4.76839366763173,2.3302756892230576,0,0.05
1757328398.127055,-0.526,-0.384,9.642,0.7294373242438311,3.8640869717630415,2.3419548872180447,0,0.05
1757328398.1548903,-0.526,-0.384,9.642,0.7294373242438311,3.8640869717630415,2.3419548872180447,0,0.05
1757328398.1823006,-0.644,-0.391,9.629,0.7286075006476396,4.473889315165547,2.347568922305764,0,0.05
1757328398.209881,-0.644,-0.391,9.629,0.7286075006476396,4.473889315165547,2.347568922305764,0,0.05
1757328398.2372572,-0.541,-0.216,9.664,0.7275474572149916,3.449500020884482,2.351328320802005,0,0.05
1757328398.264791,-0.541,-0.216,9.664,0.7275474572149916,3.449500020884482,2.351328320802005,0,0.05
1757328398.2923584,-0.342,0.075,9.818,0.7260901476400847,2.0424025826769636,2.3610526315789473,0,0.05
1757328398.3204768,-0.342,0.075,9.818,0.7260901476400847,2.0424025826769636,2.3610526315789473,0,0.05
1757328398.3481169,-0.364,0.076,9.757,0.7246735954897211,2.1825455591232523,2.3621052631578947,0,0.05
1757328398.3761816,-0.364,0.076,9.757,0.7246735954897211,2.1825455591232523,2.3621052631578947,0,0.05
1757328398.4044812,-0.5,0.219,9.697,0.7234606969283127,3.2218614243296764,2.3674185463659145,0,0.05
1757328398.432678,-0.5,0.219,9.697,0.7234606969283127,3.2218614243296764,2.3674185463659145,0,0.05
1757328398.4604168,-0.467,0.177,9.699,0.722290324246421,2.947651809655531,2.3688220551378447,0,0.05
1757328398.4880202,-0.467,0.177,9.699,0.722290324246421,2.947651809655531,2.3688220551378447,0,0.05
1757328398.515553,-0.474,0.161,9.643,0.721145824365641,2.971725696164032,2.368721804511278,0,0.05
1757328398.5432172,-0.451,0.128,9.711,0.719991835023148,2.7638893494382337,2.3693233082706766,0,0.05
1757328398.5709498,-0.451,0.128,9.711,0.719991835023148,2.7638893494382337,2.3693233082706766,0,0.05
1757328398.5979877,-0.548,-0.073,9.864,0.718968622402953,3.2078612472101304,2.372781954887218,0,0.05
1757328398.626455,-0.548,-0.073,9.864,0.718968622402953,3.2078612472101304,2.372781954887218,0,0.05
1757328398.6547248,-0.612,-0.009,9.805,0.7179799004846863,3.571990141607666,2.375588972431078,0,0.05
1757328398.6827211,-0.612,-0.009,9.805,0.7179799004846863,3.571990141607666,2.375588972431078,0,0.05
1757328398.710644,-0.496,0.17,9.72,0.7167384983381316,3.087704032326871,2.380952380952381,0,0.05
1757328398.7382536,-0.496,0.17,9.72,0.7167384983381316,3.087704032326871,2.380952380952381,0,0.05
1757328398.766522,-0.664,-0.148,9.937,0.7158659546311725,3.916398703057802,2.3886716791979947,0,0.05
1757328398.7945385,-0.664,-0.148,9.937,0.7158659546311725,3.916398703057802,2.3886716791979947,0,0.05
1757328398.821892,-0.592,0.004,9.678,0.714881378271948,3.5004817339065,2.3919799498746865,0,0.05
1757328398.8492994,-0.592,0.004,9.678,0.714881378271948,3.5004817339065,2.3919799498746865,0,0.05
1757328398.876984,-0.505,0.004,9.683,0.7137483432555203,2.985550252878062,2.396140350877193,0,0.05
1757328398.9047945,-0.505,0.004,9.683,0.7137483432555203,2.985550252878062,2.396140350877193,0,0.05
1757328398.932288,-0.623,-0.07,9.935,0.7128602457705157,3.6107017318839043,2.401604010025063,0,0.05
1757328398.9597266,-0.623,-0.07,9.935,0.7128602457705157,3.6107017318839043,2.401604010025063,0,0.05
1757328398.9871945,-0.593,-0.051,9.642,0.7118769486364901,3.5323174365934937,2.4018546365914784,0,0.05
1757328399.0151713,-0.593,-0.051,9.642,0.7118769486364901,3.5323174365934937,2.4018546365914784,0,0.05
1757328399.0427518,-0.861,-0.134,9.806,0.7114921591275619,5.077988003521566,2.4150877192982456,0,0.05
1757328399.0705874,-0.861,-0.134,9.806,0.7114921591275619,5.077988003521566,2.4150877192982456,0,0.05
1757328399.0980282,-0.752,-0.261,9.822,0.7107842235868773,4.633303361316382,2.4203508771929827,0,0.05
1757328399.12534,-0.752,-0.261,9.822,0.7107842235868773,4.633303361316382,2.4203508771929827,0,0.05
1757328399.1526403,-0.764,-0.182,9.419,0.7100937209270337,4.766433989678706,2.4195488721804512,0,0.05
1757328399.1792247,-0.764,-0.182,9.419,0.7100937209270337,4.766433989678706,2.4195488721804512,0,0.05
1757328399.2060802,-0.773,-0.217,9.647,0.7095230193587801,4.757533358840625,2.419298245614035,0,0.05
1757328399.2335799,-0.773,-0.217,9.647,0.7095230193587801,4.757533358840625,2.419298245614035,0,0.05
1757328399.261038,-0.646,-0.326,9.837,0.7086811095267038,4.207023985462684,2.42531328320802,0,0.05
1757328399.2888136,-0.646,-0.326,9.837,0.7086811095267038,4.207023985462684,2.42531328320802,0,0.05
1757328399.316297,-0.753,-0.335,9.682,0.7080790316059359,4.865434132938752,2.4301253132832077,0,0.05
1757328399.3439188,-0.753,-0.335,9.682,0.7080790316059359,4.865434132938752,2.4301253132832077,0,0.05
1757328399.3714116,-0.882,0.044,9.523,0.7078117581673816,5.2980602418304,2.435438596491228,0,0.05
1757328399.3991096,-0.882,0.044,9.523,0.7078117581673816,5.2980602418304,2.435438596491228,0,0.05
1757328399.4266026,-0.698,0.128,9.824,0.7069512518554585,4.131600240817,2.4440100250626564,0,0.05
1757328399.4541695,-0.698,0.128,9.824,0.7069512518554585,4.131600240817,2.4440100250626564,0,0.05
1757328399.4820232,-0.807,0.035,9.646,0.7064251588101884,4.786795764019298,2.449172932330827,0,0.05
1757328399.5098255,-0.807,0.035,9.646,0.7064251588101884,4.786795764019298,2.449172932330827,0,0.05
1757328399.5374777,-0.713,-0.041,9.541,0.7056662578726576,4.280809973072445,2.453082706766917,0,0.05
1757328399.5655065,-0.713,-0.041,9.541,0.7056662578726576,4.280809973072445,2.453082706766917,0,0.05
1757328399.5935082,-0.464,0.17,9.812,0.7044411597145641,2.883152287812971,2.46546365914787,0,0.05
1757328399.6214926,-0.464,0.17,9.812,0.7044411597145641,2.883152287812971,2.46546365914787,0,0.05
1757328399.6491148,-0.616,0.304,9.677,0.7034988965876208,4.060374727753982,2.472631578947368,0,0.05
1757328399.6767867,-0.364,0.149,9.634,0.7020851194833857,2.3378455958730098,2.484812030075188,0,0.05
1757328399.7045782,-0.364,0.149,9.634,0.7020851194833857,2.3378455958730098,2.484812030075188,0,0.05
1757328399.7321024,-0.364,0.149,9.634,0.7020851194833857,2.3378455958730098,2.484812030075188,0,0.05
1757328399.759758,-0.527,0.148,9.884,0.7008964813009122,3.1698689047809694,2.492481203007519,0,0.05
1757328399.787602,-0.909,0.302,9.632,0.7006502479839709,5.679107879794945,2.511578947368421,0,0.05
1757328399.8153634,-0.909,0.302,9.632,0.7006502479839709,5.679107879794945,2.511578947368421,0,0.05
1757328399.8426337,-0.654,0.083,9.549,0.699688743299476,3.949330966455121,2.5239598997493733,0,0.05
1757328399.8704524,-0.654,0.083,9.549,0.699688743299476,3.949330966455121,2.5239598997493733,0,0.05
1757328399.8979764,-0.78,0.201,9.65,0.6990770880239174,4.7713964624033185,2.5286716791979953,0,0.05
1757328399.925846,-0.78,0.201,9.65,0.6990770880239174,4.7713964624033185,2.5286716791979953,0,0.05
1757328399.9534411,-0.631,0.033,9.681,0.6981984352603492,3.734300985214587,2.535989974937343,0,0.05
1757328399.981251,-0.631,0.033,9.681,0.6981984352603492,3.734300985214587,2.535989974937343,0,0.05
1757328400.008847,-0.613,-0.068,9.609,0.6972886615312197,3.672530042605121,2.5364912280701755,0,0.05
1757328400.0363548,-0.613,-0.068,9.609,0.6972886615312197,3.672530042605121,2.5364912280701755,0,0.05
1757328400.0642703,-0.603,0.06,9.76,0.6963287585616438,3.5528129938361057,2.5359899749373436,0,0.05
1757328400.0919816,-0.603,0.06,9.76,0.6963287585616438,3.5528129938361057,2.5359899749373436,0,0.05
1757328400.1194541,-0.633,0.011,9.737,0.695365301478295,3.7201106282763545,2.535989974937343,0,0.05
1757328400.1474924,-0.633,0.011,9.737,0.695365301478295,3.7201106282763545,2.535989974937343,0,0.05
1757328400.1751173,-0.681,0.032,9.631,0.6944078736592781,4.04905317477059,2.538345864661654,0,0.05
1757328400.2028918,-0.681,0.032,9.631,0.6944078736592781,4.04905317477059,2.538345864661654,0,0.05
1757328400.2311754,-0.763,-0.077,9.624,0.6936661264614267,4.555910737989701,2.541854636591478,0,0.05
1757328400.2587945,-0.763,-0.077,9.624,0.6936661264614267,4.555910737989701,2.541854636591478,0,0.05
1757328400.2864046,-0.588,-0.169,9.767,0.6925398851329791,3.584323494182964,2.5493233082706763,0,0.05
1757328400.3142476,-0.588,-0.169,9.767,0.6925398851329791,3.584323494182964,2.5493233082706763,0,0.05
1757328400.3417342,-0.588,-0.169,9.767,0.6925398851329791,3.584323494182964,2.5493233082706763,0,0.05
1757328400.369205,-0.599,-0.107,9.677,0.6915267836461578,3.5979741063735586,2.5497243107769423,0,0.05
1757328400.3967497,-0.781,-0.222,9.773,0.6909562829875708,4.749216063754686,2.558646616541353,0,0.05
1757328400.4245827,-0.781,-0.222,9.773,0.6909562829875708,4.749216063754686,2.558646616541353,0,0.05
1757328400.4521747,-0.562,-0.297,9.765,0.6898664979544956,3.7244080571582634,2.5683709273182957,0,0.05
1757328400.4799194,-0.562,-0.297,9.765,0.6898664979544956,3.7244080571582634,2.5683709273182957,0,0.05
1757328400.5076559,-0.893,-0.005,9.507,0.6895605013340018,5.366176624969851,2.5837092731829574,0,0.05
1757328400.5360692,-0.893,-0.005,9.507,0.6895605013340018,5.366176624969851,2.5837092731829574,0,0.05
1757328400.563693,-0.637,-0.307,9.587,0.6884533008853977,4.218392785498136,2.596390977443609,0,0.05
1757328400.5916448,-0.637,-0.307,9.587,0.6884533008853977,4.218392785498136,2.596390977443609,0,0.05
1757328400.6193285,-0.718,-0.221,9.606,0.6875328755775973,4.47174497170813,2.5995989974937346,0,0.05
1757328400.6467493,-0.718,-0.221,9.606,0.6875328755775973,4.47174497170813,2.5995989974937346,0,0.05
1757328400.6742637,-0.7,-0.417,9.596,0.6866268018363396,4.853328304440553,2.5990977443609022,0,0.05
1757328400.7007883,-0.7,-0.417,9.596,0.6866268018363396,4.853328304440553,2.5990977443609022,0,0.05
1757328400.72847,-0.831,-0.311,9.802,0.6861850169597118,5.17238769267579,2.6052631578947367,0,0.05
1757328400.756193,-0.857,0.157,9.791,0.6858509969373814,5.0851304379812925,2.6064661654135337,0,0.05
1757328400.7837427,-0.857,0.157,9.791,0.6858509969373814,5.0851304379812925,2.6064661654135337,0,0.05
1757328400.8114128,-0.8,0.362,9.94,0.6853515521248931,5.048355323408687,2.608822055137845,0,0.05
1757328400.839531,-0.8,0.362,9.94,0.6853515521248931,5.048355323408687,2.608822055137845,0,0.05
1757328400.8679645,-0.882,0.327,9.843,0.6850683688508761,5.459008483797041,2.611278195488722,0,0.05
1757328400.8956094,-0.882,0.327,9.843,0.6850683688508761,5.459008483797041,2.611278195488722,0,0.05
1757328400.923193,-0.691,0.236,9.892,0.6841179503565157,4.221699193737386,2.6207518796992484,0,0.05
1757328400.9503407,-0.691,0.236,9.892,0.6841179503565157,4.221699193737386,2.6207518796992484,0,0.05
1757328400.978241,-0.557,0.153,9.897,0.6828674615179727,3.340238166988393,2.6246616541353385,0,0.05
1757328401.005242,-0.557,0.153,9.897,0.6828674615179727,3.340238166988393,2.6246616541353385,0,0.05
1757328401.0309122,-0.71,0.152,9.816,0.6821689801654719,4.230456329260621,2.6155889724310772,0,0.05
1757328401.0589552,-0.71,0.152,9.816,0.6821689801654719,4.230456329260621,2.6155889724310772,0,0.05
1757328401.0865521,-0.562,0.05,9.914,0.6820725804487379,3.2572705211805277,2.6129323308270673,0,0.05
1757328401.114306,-0.562,0.05,9.914,0.6820725804487379,3.2572705211805277,2.6129323308270673,0,0.05
1757328401.1419985,-0.781,0.013,9.793,0.6828878513343168,4.560365053983009,2.613383458646616,0,0.05
1757328401.169653,-0.781,0.013,9.793,0.6828878513343168,4.560365053983009,2.613383458646616,0,0.05
1757328401.1972833,-0.565,-0.014,9.597,0.6827775918994413,3.370292260844289,2.6179448621553885,0,0.05
1757328401.2249157,-0.565,-0.014,9.597,0.6827775918994413,3.370292260844289,2.6179448621553885,0,0.05
1757328401.2523625,-0.558,-0.089,9.748,0.6823422510001854,3.317497907585546,2.606867167919799,0,0.05
1757328401.280007,-0.558,-0.089,9.748,0.6823422510001854,3.317497907585546,2.606867167919799,0,0.05
1757328401.3075075,-0.645,0.17,9.775,0.6813835979094301,3.903700943154021,2.6107769423558898,0,0.05
1757328401.335084,-0.645,0.17,9.775,0.6813835979094301,3.903700943154021,2.6107769423558898,0,0.05
1757328401.362542,-0.621,-0.272,9.724,0.680399669312089,3.9882033955595233,2.6094235588972428,0,0.05
1757328401.3901217,-0.621,-0.272,9.724,0.680399669312089,3.9882033955595233,2.6094235588972428,0,0.05
1757328401.4179797,-0.577,-0.201,9.859,0.6791323361466453,3.5463460741945196,2.60531328320802,0,0.05
1757328401.445492,-0.577,-0.201,9.859,0.6791323361466453,3.5463460741945196,2.60531328320802,0,0.05
1757328401.473084,-0.717,-0.201,9.85,0.6786367879801389,4.323226229426315,2.597844611528822,0,0.05
1757328401.500666,-0.717,-0.201,9.85,0.6786367879801389,4.323226229426315,2.597844611528822,0,0.05
1757328401.5280986,-0.309,0.124,9.784,0.6781582060994322,1.9490374643994632,2.6098746867167923,0,0.05
1757328401.5557287,-0.309,0.124,9.784,0.6781582060994322,1.9490374643994632,2.6098746867167923,0,0.05
1757328401.5832372,-0.835,-0.147,9.85,0.6783674336228118,4.9196202560657545,2.626365914786968,0,0.05
1757328401.6110368,-0.835,-0.147,9.85,0.6783674336228118,4.9196202560657545,2.626365914786968,0,0.05
1757328401.6387012,-0.617,-0.097,9.76,0.6773664407099012,3.661574597707155,2.6312781954887217,0,0.05
1757328401.666158,-0.617,-0.097,9.76,0.6773664407099012,3.661574597707155,2.6312781954887217,0,0.05
1757328401.6938798,-0.749,-0.011,9.865,0.6770964443858792,4.342317525132188,2.6230075187969923,0,0.05
1757328401.7218132,-0.749,-0.011,9.865,0.6770964443858792,4.342317525132188,2.6230075187969923,0,0.05
1757328401.7493303,-0.78,0.103,9.94,0.6758276296512299,4.525642294028436,2.6168922305764415,0,0.05
1757328401.777277,-0.78,0.103,9.94,0.6758276296512299,4.525642294028436,2.6168922305764415,0,0.05
1757328401.8048198,-0.815,0.052,9.856,0.6752614197479373,4.7366444531658916,2.6106265664160397,0,0.05
1757328401.8315363,-0.815,0.052,9.856,0.6752614197479373,4.7366444531658916,2.6106265664160397,0,0.05
1757328401.8581686,-0.534,0.33,9.763,0.6745289560130092,3.6789246954120336,2.6222055137844613,0,0.05
1757328401.8857343,-0.534,0.33,9.763,0.6745289560130092,3.6789246954120336,2.6222055137844613,0,0.05
1757328401.9132516,-0.624,0.047,9.796,0.674137367307287,3.6550825354504286,2.6247117794486217,0,0.05
1757328401.9408152,-0.624,0.047,9.796,0.674137367307287,3.6550825354504286,2.6247117794486217,0,0.05
1757328401.9688313,-0.714,0.164,9.832,0.6738509608956568,4.261294318695461,2.6287218045112786,0,0.05
1757328401.996719,-0.714,0.164,9.832,0.6738509608956568,4.261294318695461,2.6287218045112786,0,0.05
1757328402.024331,-0.726,0.251,9.615,0.6735660658020117,4.567791063727586,2.6093233082706764,0,0.05
1757328402.0518203,-0.645,-0.083,9.594,0.6715548134739263,3.877797496396795,2.605363408521303,0,0.05
1757328402.0793996,-0.645,-0.083,9.594,0.6715548134739263,3.877797496396795,2.605363408521303,0,0.05
1757328402.1069987,-0.645,-0.083,9.594,0.6715548134739263,3.877797496396795,2.605363408521303,0,0.05
1757328402.1342006,-0.515,-0.35,9.86,0.6699393181475469,3.6135267437082628,2.601052631578948,0,0.05
1757328402.1616445,-0.515,-0.35,9.86,0.6699393181475469,3.6135267437082628,2.601052631578948,0,0.05
1757328402.1892211,-0.756,0.206,9.548,0.669663923173408,4.691507107124995,2.609724310776943,0,0.05
1757328402.2169254,-0.518,0.046,9.461,0.6690288334593659,3.14618491307003,2.6165413533834587,0,0.05
1757328402.2443593,-0.518,0.046,9.461,0.6690288334593659,3.14618491307003,2.6165413533834587,0,0.05
1757328402.27194,-0.518,0.046,9.461,0.6690288334593659,3.14618491307003,2.6165413533834587,0,0.05
1757328402.2998393,-0.518,0.046,9.461,0.6690288334593659,3.14618491307003,2.6165413533834587,0,0.05
1757328402.327507,-0.492,-0.231,9.682,0.6686221130055452,3.213109838447403,2.604411027568922,0,0.05
1757328402.354959,-0.648,0.051,9.558,0.6677334797656922,3.890481502569462,2.600651629072682,0,0.05
1757328402.382567,-0.318,-0.159,9.628,0.6669653270598105,2.1148101698662964,2.5961904761904764,0,0.05
1757328402.4100156,-0.318,-0.159,9.628,0.6669653270598105,2.1148101698662964,2.5961904761904764,0,0.05
1757328402.437633,-0.388,-0.232,9.707,0.6648339773958608,2.6664310754208946,2.5945864661654134,0,0.05
1757328402.464999,-0.388,-0.232,9.707,0.6648339773958608,2.6664310754208946,2.5945864661654134,0,0.05
1757328402.4926097,-0.388,-0.232,9.707,0.6648339773958608,2.6664310754208946,2.5945864661654134,0,0.05
1757328402.5187218,-0.611,-0.193,9.59,0.6635321845999634,3.822545026720799,2.5962406015037596,0,0.05
1757328402.5456827,-0.637,-0.163,9.559,0.6629607624135836,3.934941874332784,2.5881203007518794,0,0.05
1757328402.5723274,-0.637,-0.163,9.559,0.6629607624135836,3.934941874332784,2.5881203007518794,0,0.05
1757328402.5983498,-0.472,-0.188,9.671,0.6613786226512013,3.0072514907146424,2.5777443609022557,0,0.05
1757328402.62485,-0.472,-0.188,9.671,0.6613786226512013,3.0072514907146424,2.5777443609022557,0,0.05
1757328402.651222,-0.568,-0.135,9.691,0.6611700480965544,3.4475492421500826,2.5741353383458643,0,0.05
1757328402.6775892,-0.568,-0.135,9.691,0.6611700480965544,3.4475492421500826,2.5741353383458643,0,0.05
1757328402.7042527,-0.58,0.023,9.624,0.6605158154805985,3.451520295749661,2.561152882205514,0,0.05
1757328402.7306051,-0.58,0.023,9.624,0.6605158154805985,3.451520295749661,2.561152882205514,0,0.05
1757328402.7576942,-0.334,-0.183,9.681,0.6584462848251178,2.2528376920664948,2.5706265664160397,0,0.05
1757328402.7848804,-0.334,-0.183,9.681,0.6584462848251178,2.2528376920664948,2.5706265664160397,0,0.05
1757328402.8112853,-0.533,-0.347,9.78,0.6569305385655321,3.72075328718861,2.569273182957393,0,0.05
1757328402.8370836,-0.533,-0.347,9.78,0.6569305385655321,3.72075328718861,2.569273182957393,0,0.05
1757328402.8630745,-0.456,0.094,9.638,0.6542711077985944,2.7656665584356683,2.5482706766917294,0,0.05
1757328402.8896575,-0.456,0.094,9.638,0.6542711077985944,2.7656665584356683,2.5482706766917294,0,0.05
1757328402.9157865,-0.456,0.094,9.638,0.6542711077985944,2.7656665584356683,2.5482706766917294,0,0.05
1757328402.9435043,-0.518,-0.047,9.621,0.6536507037401551,3.094496366344655,2.550075187969925,0,0.05
1757328402.9721496,-0.493,0.01,9.729,0.652903381060322,2.901477515153938,2.5446616541353384,0,0.05
1757328403.0010235,-0.493,0.01,9.729,0.652903381060322,2.901477515153938,2.5446616541353384,0,0.05
1757328403.028982,-0.59,0.088,9.588,0.6519167680770299,3.5601230512211344,2.54671679197995,0,0.05
1757328403.05695,-0.59,0.088,9.588,0.6519167680770299,3.5601230512211344,2.54671679197995,0,0.05
1757328403.0847805,-0.547,-0.211,9.562,0.6510285496811948,3.5086436819857534,2.52265664160401,0,0.05
1757328403.1130943,-0.547,-0.211,9.562,0.6510285496811948,3.5086436819857534,2.52265664160401,0,0.05
1757328403.1409726,-0.614,-0.13,9.764,0.6480035667340112,3.6778041123808136,2.508771929824561,0,0.05
1757328403.1681097,-0.614,-0.13,9.764,0.6480035667340112,3.6778041123808136,2.508771929824561,0,0.05
1757328403.1962898,-0.518,-0.045,9.675,0.6463843071269598,3.0762133978961184,2.5083709273182957,0,0.05
1757328403.2241318,-0.518,-0.045,9.675,0.6463843071269598,3.0762133978961184,2.5083709273182957,0,0.05
1757328403.2518227,-0.527,-0.203,9.698,0.6451823269433223,3.332755027975758,2.50531328320802,0,0.05
1757328403.2792652,-0.527,-0.203,9.698,0.6451823269433223,3.332755027975758,2.50531328320802,0,0.05
1757328403.3070812,-0.585,-0.002,9.775,0.6438361495753404,3.4248895968745394,2.498095238095238,0,0.05
1757328403.3350368,-0.585,-0.002,9.775,0.6438361495753404,3.4248895968745394,2.498095238095238,0,0.05
1757328403.3626623,-0.487,0.027,9.652,0.6430033203646774,2.8928868597935655,2.4890726817042608,0,0.05
1757328403.390169,-0.487,0.027,9.652,0.6430033203646774,2.8928868597935655,2.4890726817042608,0,0.05
1757328403.4177566,-0.545,0.091,9.587,0.6412516998028153,3.2985827968118757,2.490075187969925,0,0.05
1757328403.4446964,-0.545,0.091,9.587,0.6412516998028153,3.2985827968118757,2.490075187969925,0,0.05
1757328403.4722548,-0.65,-0.082,9.636,0.6395751969080727,3.8895555673564672,2.4839598997493733,0,0.05
1757328403.5000079,-0.65,-0.082,9.636,0.6395751969080727,3.8895555673564672,2.4839598997493733,0,0.05
1757328403.5277667,-0.608,-0.04,9.759,0.6386963519545105,3.572690148228158,2.48265664160401,0,0.05
1757328403.5552194,-0.608,-0.04,9.759,0.6386963519545105,3.572690148228158,2.48265664160401,0,0.05
1757328403.5826461,-0.583,0.16,9.695,0.6375075921116548,3.5682067216428663,2.4777944862155388,0,0.05
1757328403.6100156,-0.583,0.16,9.695,0.6375075921116548,3.5682067216428663,2.4777944862155388,0,0.05
1757328403.6385274,-0.739,0.186,9.807,0.6371583241236043,4.443210793840033,2.4811528822055133,0,0.05
1757328403.666204,-0.739,0.186,9.807,0.6371583241236043,4.443210793840033,2.4811528822055133,0,0.05
1757328403.693701,-0.768,0.197,9.782,0.637176333521577,4.6338845015093275,2.4793984962406013,0,0.05
1757328403.7212117,-0.768,0.197,9.782,0.637176333521577,4.6338845015093275,2.4793984962406013,0,0.05
1757328403.7489824,-0.56,0.152,9.849,0.6368356695412091,3.371730833740176,2.478145363408521,0,0.05
1757328403.7767756,-0.56,0.152,9.849,0.6368356695412091,3.371730833740176,2.478145363408521,0,0.05
1757328403.8043673,-0.447,0.106,9.755,0.635525207997291,2.696262319708115,2.4738847117794482,0,0.05
1757328403.8318427,-0.447,0.106,9.755,0.635525207997291,2.696262319708115,2.4738847117794482,0,0.05
1757328403.859458,-0.666,0.099,9.82,0.6338884582479791,3.922402058098691,2.4813533834586465,0,0.05
1757328403.8871412,-0.6,0.019,9.785,0.6323850686093087,3.5106434845253083,2.4709774436090224,0,0.05
1757328403.9145916,-0.6,0.019,9.785,0.6323850686093087,3.5106434845253083,2.4709774436090224,0,0.05
1757328403.9427516,-0.6,0.019,9.785,0.6323850686093087,3.5106434845253083,2.4709774436090224,0,0.05
1757328403.9704013,-0.671,0.077,9.699,0.6320537852904609,3.9834420736147824,2.4694736842105263,0,0.05
1757328403.9980102,-0.369,0.098,9.84,0.6307657786373639,2.22196068292335,2.4807017543859646,0,0.05
1757328404.025664,-0.369,0.098,9.84,0.6307657786373639,2.22196068292335,2.4807017543859646,0,0.05
1757328404.052371,-0.452,0.087,9.809,0.6293235773431661,2.6866879718512826,2.4832581453634086,0,0.05
1757328404.080161,-0.452,0.087,9.809,0.6293235773431661,2.6866879718512826,2.4832581453634086,0,0.05
1757328404.107784,-0.542,0.185,9.713,0.6281770072996942,3.3743983715461585,2.4765914786967422,0,0.05
1757328404.1352942,-0.542,0.185,9.713,0.6281770072996942,3.3743983715461585,2.4765914786967422,0,0.05
1757328404.162871,-0.589,-0.126,9.626,0.6262050902060761,3.5804925239992884,2.4716791979949875,0,0.05
1757328404.1905038,-0.589,-0.126,9.626,0.6262050902060761,3.5804925239992884,2.4716791979949875,0,0.05
1757328404.2179725,-0.557,-0.179,9.8,0.6247824701446096,3.4164770718289574,2.4708771929824564,0,0.05
1757328404.2460263,-0.557,-0.179,9.8,0.6247824701446096,3.4164770718289574,2.4708771929824564,0,0.05
1757328404.273479,-0.343,-0.103,9.757,0.6227708687792004,2.102101280905592,2.4719799498746866,0,0.05
1757328404.3009608,-0.343,-0.103,9.757,0.6227708687792004,2.102101280905592,2.4719799498746866,0,0.05
1757328404.3285766,-0.762,0.069,10.169,0.6224274596288311,4.30283879660887,2.4883208020050125,0,0.05
1757328404.3559957,-0.762,0.069,10.169,0.6224274596288311,4.30283879660887,2.4883208020050125,0,0.05
1757328404.3835845,-0.539,0.065,9.958,0.6218074903054803,3.120647597515528,2.4992481203007517,0,0.05
1757328404.4106617,-0.539,0.065,9.958,0.6218074903054803,3.120647597515528,2.4992481203007517,0,0.05
1757328404.4373279,-0.614,-0.207,9.936,0.6213764096745225,3.7311355843588454,2.492330827067669,0,0.05
1757328404.4647348,-0.614,-0.207,9.936,0.6213764096745225,3.7311355843588454,2.492330827067669,0,0.05
1757328404.4924161,-0.765,-0.099,9.868,0.6206133216423896,4.46970858733175,2.48250626566416,0,0.05
1757328404.5207493,-0.765,-0.099,9.868,0.6206133216423896,4.46970858733175,2.48250626566416,0,0.05
1757328404.5483832,-0.487,0.033,9.745,0.6175258820486799,2.867488786924545,2.487017543859649,0,0.2
1757328404.5763621,-0.487,0.033,9.745,0.6175258820486799,2.867488786924545,2.487017543859649,0,0.2
1757328404.6038556,-0.669,-0.08,9.829,0.6157941336193452,3.921423158454159,2.4832080200501254,0,0.2
1757328404.6314218,-0.669,-0.08,9.829,0.6157941336193452,3.921423158454159,2.4832080200501254,0,0.2
1757328404.6590004,-0.759,0.091,9.845,0.6153806911172952,4.439942742963943,2.482005012531328,0,0.2
1757328404.6864855,-0.759,0.091,9.845,0.6153806911172952,4.439942742963943,2.482005012531328,0,0.2
1757328404.713242,-0.64,0.123,9.792,0.614192455587009,3.807738855250743,2.487518796992481,0,0.2
1757328404.740782,-0.64,0.123,9.792,0.614192455587009,3.807738855250743,2.487518796992481,0,0.2
1757328404.7682564,-0.596,0.148,9.851,0.6128542424590043,3.5671425426021144,2.483709273182957,0,0.2
1757328404.7958367,-0.596,0.148,9.851,0.6128542424590043,3.5671425426021144,2.483709273182957,0,0.2
1757328404.8243935,-0.53,0.164,9.66,0.6108378528709563,3.287003561768978,2.4835588972431077,0,0.2
1757328404.8518374,-0.53,0.164,9.66,0.6108378528709563,3.287003561768978,2.4835588972431077,0,0.2
1757328404.8798726,-0.714,-0.059,9.431,0.6089559179448049,4.3441764988493095,2.477142857142857,0,0.2
1757328404.9071765,-0.714,-0.059,9.431,0.6089559179448049,4.3441764988493095,2.477142857142857,0,0.2
1757328404.9345663,-0.896,-0.558,9.82,0.6090033887426243,6.135140691428344,2.48531328320802,0,0.2
1757328404.9619675,-0.896,-0.558,9.82,0.6090033887426243,6.135140691428344,2.48531328320802,0,0.2
1757328404.9894474,-0.689,0.006,9.643,0.6083074222792287,4.087037969957465,2.4890225563909776,0,0.2
1757328405.016691,-0.689,0.006,9.643,0.6083074222792287,4.087037969957465,2.4890225563909776,0,0.2
1757328405.0440655,-0.813,-0.167,9.465,0.6084504416959527,5.011380912793034,2.493533834586466,0,0.2
1757328405.0717962,-0.813,-0.167,9.465,0.6084504416959527,5.011380912793034,2.493533834586466,0,0.2
1757328405.0993464,-0.691,-0.205,9.752,0.6081065860521493,4.227029611093009,2.4967919799498746,0,0.2
1757328405.1275134,-0.691,-0.205,9.752,0.6081065860521493,4.227029611093009,2.4967919799498746,0,0.2
1757328405.1551197,-0.768,-0.134,9.6,0.6081750488140729,4.6427213529206846,2.4834085213032577,0,0.2
1757328405.18257,-0.768,-0.134,9.6,0.6081750488140729,4.6427213529206846,2.4834085213032577,0,0.2
1757328405.210233,-0.713,-0.377,9.405,0.6067763694311109,4.901461330098274,2.485563909774436,0,0.2
1757328405.237688,-0.713,-0.377,9.405,0.6067763694311109,4.901461330098274,2.485563909774436,0,0.2
1757328405.2651722,-0.92,-0.25,9.755,0.6061256903481324,5.581827494713529,2.4815538847117793,0,0.2
1757328405.2925491,-0.778,-0.393,9.925,0.6060836245931744,5.018914709192575,2.487568922305764,0,0.2
1757328405.3201566,-0.778,-0.393,9.925,0.6060836245931744,5.018914709192575,2.487568922305764,0,0.2
1757328405.3479996,-0.778,-0.393,9.925,0.6060836245931744,5.018914709192575,2.487568922305764,0,0.2
1757328405.3760157,-0.815,-0.296,9.852,0.6060903398009244,5.029717932766911,2.483107769423559,0,0.2
1757328405.4040647,-0.608,-0.217,9.971,0.6050333523864614,3.704397280833318,2.4899248120300754,0,0.2
1757328405.4326432,-0.608,-0.217,9.971,0.6050333523864614,3.704397280833318,2.4899248120300754,0,0.2
1757328405.4605086,-0.668,-0.137,10.049,0.6043983433961414,3.8820195880189874,2.491428571428571,0,0.2
1757328405.4881835,-0.668,-0.137,10.049,0.6043983433961414,3.8820195880189874,2.491428571428571,0,0.2
1757328405.5160449,-0.572,-0.145,9.757,0.6034064198365808,3.4609685696664747,2.482406015037594,0,0.2
1757328405.5436254,-0.572,-0.145,9.757,0.6034064198365808,3.4609685696664747,2.482406015037594,0,0.2
1757328405.571202,-0.737,-0.282,9.99,0.6016739482477199,4.516409609849583,2.487769423558897,0,0.2
1757328405.598645,-0.737,-0.282,9.99,0.6016739482477199,4.516409609849583,2.487769423558897,0,0.2
1757328405.6254923,-0.64,-0.422,10.247,0.5993671495836254,4.278480416881963,2.478095238095238,0,0.2
1757328405.6528366,-0.64,-0.422,10.247,0.5993671495836254,4.278480416881963,2.478095238095238,0,0.2
1757328405.6802373,-0.647,-0.292,10.001,0.598388746969727,4.059869285373473,2.4741353383458646,0,0.2
1757328405.7079237,-0.647,-0.292,10.001,0.598388746969727,4.059869285373473,2.4741353383458646,0,0.2
1757328405.735412,-0.68,-0.172,10.041,0.5978237637464741,3.9959148844017904,2.467468671679198,0,0.2
1757328405.7629538,-0.68,-0.172,10.041,0.5978237637464741,3.9959148844017904,2.467468671679198,0,0.2
1757328405.7898679,-0.621,-0.136,10.113,0.597634591535664,3.596962101903995,2.46140350877193,0,0.2
1757328405.817074,-0.621,-0.136,10.113,0.597634591535664,3.596962101903995,2.46140350877193,0,0.2
1757328405.8446908,-0.58,-0.024,9.771,0.597794157716517,3.399953111356462,2.453333333333333,0,0.2
1757328405.871902,-0.58,-0.024,9.771,0.597794157716517,3.399953111356462,2.453333333333333,0,0.2
1757328405.8996496,-0.588,0.023,9.77,0.5974569900838052,3.4467758872913543,2.4486215538847116,0,0.2
1757328405.927099,-0.588,0.023,9.77,0.5974569900838052,3.4467758872913543,2.4486215538847116,0,0.2
1757328405.9545314,-0.498,0.095,9.928,0.5965889497803324,2.9233098439866434,2.44390977443609,0,0.2
1757328405.9820516,-0.498,0.095,9.928,0.5965889497803324,2.9233098439866434,2.44390977443609,0,0.2
1757328406.0100234,-0.58,0.079,9.705,0.5952053133163379,3.4516038803024514,2.446065162907268,0,0.2
1757328406.0376134,-0.58,0.079,9.705,0.5952053133163379,3.4516038803024514,2.446065162907268,0,0.2
1757328406.065109,-0.579,0.043,9.607,0.5936489240283351,3.4584371042160793,2.446015037593985,0,0.2
1757328406.0926838,-0.579,0.043,9.607,0.5936489240283351,3.4584371042160793,2.446015037593985,0,0.2
1757328406.1195025,-0.571,0.103,9.844,0.59207776938507,3.3731695619851387,2.4423057644110275,0,0.05
1757328406.1466918,-0.571,0.103,9.844,0.59207776938507,3.3731695619851387,2.4423057644110275,0,0.05
1757328406.1740892,-0.606,0.086,9.629,0.5909345585595752,3.6371396011349804,2.443659147869674,0,0.05
1757328406.2018027,-0.606,0.086,9.629,0.5909345585595752,3.6371396011349804,2.443659147869674,0,0.05
1757328406.2290535,-0.672,0.087,9.376,0.589935428669952,4.1336085056953,2.430125313283208,0,0.05
1757328406.2569585,-0.672,0.087,9.376,0.589935428669952,4.1336085056953,2.430125313283208,0,0.05
1757328406.2852163,-0.674,-0.196,9.609,0.5873278279632254,4.177933313460539,2.4189473684210525,0,0.05
1757328406.3138466,-0.674,-0.196,9.609,0.5873278279632254,4.177933313460539,2.4189473684210525,0,0.05
1757328406.3415794,-0.811,-0.244,9.668,0.5862809224254188,5.006292169235592,2.4230576441102754,0,0.05
1757328406.3693602,-0.811,-0.244,9.668,0.5862809224254188,5.006292169235592,2.4230576441102754,0,0.05
1757328406.3967888,-0.672,-0.033,9.4,0.5850372274479633,4.0939928314157665,2.4274185463659146,0,0.05
1757328406.423858,-0.672,-0.033,9.4,0.5850372274479633,4.0939928314157665,2.4274185463659146,0,0.05
1757328406.4511952,-0.868,-0.186,9.658,0.5842047714628836,5.251525844742462,2.421002506265664,0,0.05
1757328406.4780705,-0.868,-0.186,9.658,0.5842047714628836,5.251525844742462,2.421002506265664,0,0.05
1757328406.5056305,-0.564,-0.008,9.807,0.5836976036442157,3.2917818068368656,2.4256641604010025,0,0.05
1757328406.533031,-0.564,-0.008,9.807,0.5836976036442157,3.2917818068368656,2.4256641604010025,0,0.05
1757328406.5586245,-0.593,-0.136,9.496,0.58383998235818,3.6658500454258722,2.42516290726817,0,0.05
1757328406.58701,-0.593,-0.136,9.496,0.58383998235818,3.6658500454258722,2.42516290726817,0,0.05
1757328406.614796,-0.547,-0.242,9.765,0.5839559786490759,3.505192624940008,2.4247619047619047,0,0.05
1757328406.6424809,-0.547,-0.242,9.765,0.5839559786490759,3.505192624940008,2.4247619047619047,0,0.05
1757328406.6703627,-0.841,-0.097,9.909,0.585052634384292,4.883207117656712,2.430075187969925,0,0.05
1757328406.69789,-0.841,-0.097,9.909,0.585052634384292,4.883207117656712,2.430075187969925,0,0.05
1757328406.7251935,-0.582,-0.21,9.663,0.5849310151633268,3.6636819016725255,2.4392481203007517,0,0.05
1757328406.7527397,-0.662,-0.198,9.778,0.5848053864321019,4.04216726104287,2.439699248120301,0,0.05
1757328406.7802694,-0.662,-0.198,9.778,0.5848053864321019,4.04216726104287,2.439699248120301,0,0.05
1757328406.8080127,-0.382,-0.181,9.879,0.5842578711493753,2.450128470685294,2.4389473684210525,0,0.05
1757328406.8356411,-0.382,-0.181,9.879,0.5842578711493753,2.450128470685294,2.4389473684210525,0,0.05
1757328406.8632853,-0.65,0.199,9.626,0.5833145870797336,4.039474145525709,2.4466165413533836,0,0.05
1757328406.8913958,-0.65,0.199,9.626,0.5833145870797336,4.039474145525709,2.4466165413533836,0,0.05
1757328406.9189506,-0.543,0.038,9.627,0.5825259994197685,3.2361614964286254,2.44796992481203,0,0.05
1757328406.946514,-0.543,0.038,9.627,0.5825259994197685,3.2361614964286254,2.44796992481203,0,0.05
1757328406.9738138,-0.555,-0.163,9.717,0.5820306800332781,3.4067266728518817,2.441604010025063,0,0.05
1757328407.0009205,-0.555,-0.163,9.717,0.5820306800332781,3.4067266728518817,2.441604010025063,0,0.05
1757328407.0277758,-0.806,-0.036,9.762,0.5817890339289664,4.724607402610823,2.4414035087719297,0,0.05
1757328407.0554528,-0.806,-0.036,9.762,0.5817890339289664,4.724607402610823,2.4414035087719297,0,0.05
1757328407.0823457,-0.515,0.027,9.639,0.581538246807551,3.0625278164165657,2.4485213032581457,0,0.05
1757328407.1105618,-0.515,0.027,9.639,0.581538246807551,3.0625278164165657,2.4485213032581457,0,0.05
1757328407.1385984,-0.661,-0.078,9.816,0.5820044093475581,3.879074632802557,2.4468671679197995,0,0.05
1757328407.1667247,-0.661,-0.078,9.816,0.5820044093475581,3.879074632802557,2.4468671679197995,0,0.05
1757328407.1950748,-0.701,0.037,9.659,0.5821579467807685,4.156709991822963,2.4459147869674185,0,0.05
1757328407.2230859,-0.701,0.037,9.659,0.5821579467807685,4.156709991822963,2.4459147869674185,0,0.05
1757328407.2508886,-0.741,-0.037,9.506,0.5822636473282529,4.462767366022054,2.440300751879699,0,0.05
1757328407.2785583,-0.741,-0.037,9.506,0.5822636473282529,4.462767366022054,2.440300751879699,0,0.05
1757328407.3062992,-0.434,-0.237,9.759,0.5820066859581597,2.900732464453315,2.4536340852130327,0,0.05
1757328407.3340218,-0.434,-0.237,9.759,0.5820066859581597,2.900732464453315,2.4536340852130327,0,0.05
1757328407.3625681,-0.593,-0.022,9.735,0.5821944821105746,3.4882130984793096,2.4547869674185465,0,0.05
1757328407.3904502,-0.593,-0.022,9.735,0.5821944821105746,3.4882130984793096,2.4547869674185465,0,0.05
1757328407.4180856,-0.593,-0.022,9.735,0.5821944821105746,3.4882130984793096,2.4547869674185465,0,0.05
1757328407.4457815,-0.518,-0.127,9.556,0.5824637456528947,3.1944891357238783,2.4530827067669176,0,0.05
1757328407.4735706,-0.583,-0.3,9.712,0.5826841468583129,3.862190043900269,2.4470676691729323,0,0.05
1757328407.501963,-0.583,-0.3,9.712,0.5826841468583129,3.862190043900269,2.4470676691729323,0,0.05
1757328407.5279715,-0.654,-0.018,9.683,0.5834056007615971,3.8654075848116327,2.4463659147869676,0,0.05
1757328407.5546246,-0.654,-0.018,9.683,0.5834056007615971,3.8654075848116327,2.4463659147869676,0,0.05
1757328407.5810125,-0.606,-0.116,9.727,0.5840911422885987,3.6295194462233265,2.4391478696741857,0,0.05
1757328407.6071112,-0.606,-0.116,9.727,0.5840911422885987,3.6295194462233265,2.4391478696741857,0,0.05
1757328407.6327896,-0.573,-0.193,9.799,0.5844356957784149,3.5308612021864536,2.427619047619048,0,0.05
1757328407.6596105,-0.573,-0.193,9.799,0.5844356957784149,3.5308612021864536,2.427619047619048,0,0.05
1757328407.6861398,-0.492,-0.229,9.803,0.5839873992647444,3.16859627189703,2.4195989974937344,0,0.05
1757328407.7121594,-0.492,-0.229,9.803,0.5839873992647444,3.16859627189703,2.4195989974937344,0,0.05
1757328407.7389028,-0.728,0.009,9.847,0.5833372266536742,4.228572185003071,2.41859649122807,0,0.05
1757328407.7662623,-0.728,0.009,9.847,0.5833372266536742,4.228572185003071,2.41859649122807,0,0.05
1757328407.7925904,-0.607,0.053,9.826,0.5832017832620199,3.548363100116633,2.4217042606516292,0,0.05
1757328407.8191223,-0.607,0.053,9.826,0.5832017832620199,3.548363100116633,2.4217042606516292,0,0.05
1757328407.8460693,-0.66,-0.051,9.943,0.5830366026245694,3.808916475851163,2.4145864661654137,0,0.05
1757328407.8729012,-0.66,-0.051,9.943,0.5830366026245694,3.808916475851163,2.4145864661654137,0,0.05
1757328407.8997204,-0.704,0.198,9.726,0.5835170241732456,4.3000718912701785,2.412230576441103,0,0.05
1757328407.926181,-0.704,0.198,9.726,0.5835170241732456,4.3000718912701785,2.412230576441103,0,0.05
