timestamp,ax,ay,az,rms,tilt_now,jerk,tilt_crosses,freq
1757328980.6096342,-0.978,-0.002,9.691,0.0489,5.762698549354332,0.04902255639097744,0,0.25
1757328980.6378734,-0.953,-0.015,9.7,0.06827688115313997,5.611845485087348,0.05027568922305764,0,0.05
1757328980.6645696,-0.924,-0.028,9.688,0.08243890161810746,5.450632325429919,0.05172932330827067,0,0.05
1757328980.6916919,-0.922,-0.011,9.696,0.09445307035771786,5.432350319009238,0.051829573934837087,0,0.05
1757328980.7180986,-0.931,-0.008,9.687,0.10530092592185503,5.4899338246183005,0.052280701754385955,0,0.05
1757328980.7439814,-0.929,-0.005,9.676,0.11509077938740359,5.484279595648902,0.05238095238095237,0,0.05
1757328980.7694404,-0.958,0.005,9.68,0.12466072958233479,5.652059827847759,0.053834586466165395,0,0.05
1757328980.7947476,-0.972,0.007,9.687,0.13379931801022008,5.730065366296647,0.05453634085213031,0,0.05
1757328980.8206244,-0.979,0.015,9.695,0.14247231309977387,5.766847437618131,0.05488721804511277,0,0.05
1757328980.8462417,-0.972,0.006,9.686,0.15053345143189936,5.730613849346938,0.055238095238095225,0,0.05
1757328980.8720586,-0.946,0.005,9.695,0.1577897651940708,5.57313185401874,0.056541353383458635,0,0.05
1757328980.897721,-0.923,-0.013,9.684,0.1644002204986356,5.445056866621125,0.05769423558897242,0,0.05
1757328980.9229019,-0.919,-0.008,9.676,0.17070101054182427,5.425725772257954,0.05789473684210525,0,0.05
1757328980.9484134,-0.921,-0.003,9.691,0.17680338656258823,5.428921202090274,0.05799498746867166,0,0.05
1757328980.9738908,-0.944,-0.001,9.705,0.18299529365532874,5.555654661611569,0.05914786967418544,0,0.05
1757328980.9990356,-0.969,0.005,9.704,0.18930050184825184,5.702484190810653,0.06040100250626564,0,0.05
1757328981.0245867,-0.988,0.01,9.711,0.19564007769370773,5.809595840501665,0.06135338345864659,0,0.05
1757328981.0504787,-0.988,0.01,9.711,0.19564007769370773,5.809595840501665,0.06135338345864659,0,0.05
1757328981.0758786,-0.985,-0.002,9.702,0.20174390325360517,5.797128845968303,0.06150375939849621,0,0.05
1757328981.1009762,-0.985,-0.002,9.702,0.20174390325360517,5.797128845968303,0.06150375939849621,0,0.05
1757328981.1261938,-0.967,-0.002,9.695,0.20745680273252068,5.695976580553216,0.06240601503759396,0,0.05
1757328981.1515803,-0.967,-0.002,9.695,0.20745680273252068,5.695976580553216,0.06240601503759396,0,0.05
1757328981.176503,-0.967,-0.002,9.695,0.20745680273252068,5.695976580553216,0.06240601503759396,0,0.05
1757328981.2014825,-0.948,-0.005,9.695,0.2128029252618488,5.584839634892726,0.0633583959899749,0,0.05
1757328981.226344,-0.948,-0.005,9.695,0.2128029252618488,5.584839634892726,0.0633583959899749,0,0.05
1757328981.2521586,-0.922,-0.013,9.686,0.2177390525376649,5.43807775458025,0.06466165413533832,0,0.05
1757328981.2773218,-0.922,-0.013,9.686,0.2177390525376649,5.43807775458025,0.06466165413533832,0,0.05
1757328981.3029041,-0.902,0.004,9.692,0.2223607541811279,5.317051058123294,0.06566416040100248,0,0.05
1757328981.3288789,-0.902,0.004,9.692,0.2223607541811279,5.317051058123294,0.06566416040100248,0,0.05
1757328981.3539732,-0.929,0.001,9.682,0.22716053244346826,5.480825910459723,0.06701754385964909,0,0.05
1757328981.3789935,-0.929,0.001,9.682,0.22716053244346826,5.480825910459723,0.06701754385964909,0,0.05
1757328981.4041524,-0.931,0.034,9.699,0.231881025528179,5.486614499980834,0.0671177944862155,0,0.05
1757328981.4313257,-0.931,0.034,9.699,0.231881025528179,5.486614499980834,0.0671177944862155,0,0.05
1757328981.4565527,-0.961,0.033,9.695,0.23680712088110864,5.66416757473972,0.06862155388471174,0,0.05
1757328981.4820125,-0.961,0.033,9.695,0.23680712088110864,5.66416757473972,0.06862155388471174,0,0.05
1757328981.507347,-0.961,0.033,9.695,0.23680712088110864,5.66416757473972,0.06862155388471174,0,0.05
1757328981.533139,-0.98,0.034,9.682,0.24182351519238154,5.783176797320223,0.0695739348370927,0,0.05
1757328981.5586617,-0.975,0.036,9.675,0.24668841683386758,5.758460289612649,0.06982456140350873,0,0.05
1757328981.583976,-0.975,0.036,9.675,0.24668841683386758,5.758460289612649,0.06982456140350873,0,0.05
1757328981.6093376,-0.975,0.036,9.675,0.24668841683386758,5.758460289612649,0.06982456140350873,0,0.05
1757328981.6347399,-0.976,0.032,9.679,0.2514689145799138,5.761136451558644,0.06987468671679196,0,0.05
1757328981.6615188,-0.976,0.032,9.679,0.2514689145799138,5.761136451558644,0.06987468671679196,0,0.05
1757328981.6868253,-0.955,0.021,9.684,0.25596225796003597,5.633438499587583,0.07092731829573933,0,0.05
1757328981.712349,-0.955,0.021,9.684,0.25596225796003597,5.633438499587583,0.07092731829573933,0,0.05
1757328981.7376106,-0.928,0.01,9.691,0.26013388379832414,5.470220840638392,0.07228070175438595,0,0.05
1757328981.7628672,-0.928,0.01,9.691,0.26013388379832414,5.470220840638392,0.07228070175438595,0,0.05
1757328981.788242,-0.941,0.022,9.697,0.2643545724968645,5.54415146282227,0.07293233082706764,0,0.05
1757328981.8136263,-0.941,0.022,9.697,0.2643545724968645,5.54415146282227,0.07293233082706764,0,0.05
1757328981.838534,-0.935,0.022,9.715,0.268456518825675,5.498893735907602,0.07323308270676689,0,0.05
1757328981.8637006,-0.935,0.022,9.715,0.268456518825675,5.498893735907602,0.07323308270676689,0,0.05
1757328981.8888578,-0.942,0.02,9.692,0.272556989453582,5.552587518345684,0.07358395989974935,0,0.05
1757328981.9286082,-0.942,0.02,9.692,0.272556989453582,5.552587518345684,0.07358395989974935,0,0.05
1757328981.9553766,-0.96,0.029,9.696,0.27675135501023296,5.6569834601894975,0.07448621553884707,0,0.05
1757328981.9813511,-0.96,0.029,9.696,0.27675135501023296,5.6569834601894975,0.07448621553884707,0,0.05
1757328982.0072038,-0.97,0.029,9.721,0.2809689707067312,5.700867302654692,0.07498746867167916,0,0.05
1757328982.0328526,-0.97,0.029,9.721,0.2809689707067312,5.700867302654692,0.07498746867167916,0,0.05
1757328982.058273,-0.979,0.023,9.712,0.2852010957201953,5.7577274994120815,0.07543859649122803,0,0.05
1757328982.0839252,-0.979,0.023,9.712,0.2852010957201953,5.7577274994120815,0.07543859649122803,0,0.05
1757328982.1098015,-0.977,0.015,9.715,0.28935443231441954,5.7433795779356185,0.07553884711779445,0,0.05
1757328982.1365266,-0.977,0.015,9.715,0.28935443231441954,5.7433795779356185,0.07553884711779445,0,0.05
1757328982.1622217,-0.955,0.01,9.711,0.29326788095527956,5.616832770219464,0.07664160401002501,0,0.05
1757328982.196087,-0.955,0.01,9.711,0.29326788095527956,5.616832770219464,0.07664160401002501,0,0.05
1757328982.224426,-0.936,0.005,9.713,0.2969786019227648,5.504429242427382,0.07759398496240597,0,0.05
1757328982.2503717,-0.936,0.005,9.713,0.2969786019227648,5.504429242427382,0.07759398496240597,0,0.05
1757328982.2758303,-0.935,0.005,9.724,0.30063574720914343,5.49240260769658,0.07764411027568917,0,0.05
1757328982.301618,-0.935,0.005,9.724,0.30063574720914343,5.49240260769658,0.07764411027568917,0,0.05
1757328982.327655,-0.927,0.0,9.742,0.304187729864306,5.435613724849988,0.07804511278195485,0,0.05
1757328982.3530278,-0.927,0.0,9.742,0.304187729864306,5.435613724849988,0.07804511278195485,0,0.05
1757328982.378516,-0.965,0.0,9.746,0.3079906451501409,5.654709031946937,0.07994987468671673,0,0.05
1757328982.4039273,-0.965,0.0,9.746,0.3079906451501409,5.654709031946937,0.07994987468671673,0,0.05
1757328982.4292588,-0.981,0.011,9.739,0.3118719929714754,5.752305951795178,0.08075187969924809,0,0.05
1757328982.4543738,-0.981,0.011,9.739,0.3118719929714754,5.752305951795178,0.08075187969924809,0,0.05
1757328982.4796407,-0.992,0.016,9.746,0.31579154516864444,5.812605967011546,0.08130325814536335,0,0.05
1757328982.506201,-0.992,0.016,9.746,0.31579154516864444,5.812605967011546,0.08130325814536335,0,0.05
1757328982.5325453,-0.988,0.013,9.742,0.3196320697301821,5.791438254028245,0.08150375939849619,0,0.05
1757328982.5589688,-0.988,0.013,9.742,0.3196320697301821,5.791438254028245,0.08150375939849619,0,0.05
1757328982.5847929,-0.988,0.013,9.742,0.3196320697301821,5.791438254028245,0.08150375939849619,0,0.05
1757328982.6114333,-0.991,-0.002,9.736,0.323449938166635,5.811970971451515,0.08165413533834581,0,0.05
1757328982.63744,-0.991,-0.002,9.736,0.323449938166635,5.811970971451515,0.08165413533834581,0,0.05
1757328982.6634333,-0.948,-0.002,9.745,0.32690460764571677,5.556300003741613,0.08380952380952376,0,0.05
1757328982.6900647,-0.948,-0.002,9.745,0.32690460764571677,5.556300003741613,0.08380952380952376,0,0.05
1757328982.716263,-0.92,-0.007,9.709,0.3301251618704639,5.413194666067713,0.08521303258145356,0,0.05
1757328982.7432108,-0.92,-0.007,9.709,0.3301251618704639,5.413194666067713,0.08521303258145356,0,0.05
1757328982.7697299,-0.918,0.002,9.707,0.33330081383038956,5.402460143966255,0.08531328320802,0,0.05
1757328982.795796,-0.918,0.002,9.707,0.33330081383038956,5.402460143966255,0.08531328320802,0,0.05
1757328982.821328,-0.93,-0.002,9.698,0.3365288732040685,5.477702094714257,0.0859147869674185,0,0.05
1757328982.8472342,-0.93,-0.002,9.698,0.3365288732040685,5.477702094714257,0.0859147869674185,0,0.05
1757328982.8732727,-0.943,-0.0,9.71,0.3398158398309296,5.546963152205102,0.0865664160401002,0,0.05
1757328982.89952,-0.943,-0.0,9.71,0.3398158398309296,5.546963152205102,0.0865664160401002,0,0.05
1757328982.9252174,-0.965,0.005,9.704,0.3432242233584337,5.679099339309576,0.08766917293233077,0,0.05
1757328982.9504836,-0.965,0.005,9.704,0.3432242233584337,5.679099339309576,0.08766917293233077,0,0.05
1757328982.9756007,-0.976,0.002,9.703,0.3466760844073326,5.743928168905044,0.08822055137844605,0,0.05
1757328983.0015228,-0.976,0.002,9.703,0.3466760844073326,5.743928168905044,0.08822055137844605,0,0.05
1757328983.027549,-0.965,0.008,9.701,0.35001767098248054,5.6809622704059946,0.08877192982456134,0,0.05
1757328983.0534687,-0.965,0.008,9.701,0.35001767098248054,5.6809622704059946,0.08877192982456134,0,0.05
1757328983.0787227,-0.961,0.009,9.689,0.3533003998016419,5.664582185135559,0.08897243107769416,0,0.05
1757328983.1040463,-0.961,0.009,9.689,0.3533003998016419,5.664582185135559,0.08897243107769416,0,0.05
1757328983.129241,-0.949,0.017,9.702,0.3564725445248203,5.58749875836561,0.08957393483709267,0,0.05
1757328983.1549854,-0.949,0.017,9.702,0.3564725445248203,5.58749875836561,0.08957393483709267,0,0.05
1757328983.180789,-0.932,0.011,9.692,0.35950554237730464,5.4931553545170715,0.09042606516290719,0,0.05
1757328983.206487,-0.932,0.011,9.692,0.35950554237730464,5.4931553545170715,0.09042606516290719,0,0.05
1757328983.231826,-0.932,0.011,9.692,0.35950554237730464,5.4931553545170715,0.09042606516290719,0,0.05
1757328983.2567928,-0.93,0.014,9.705,0.36250032413778616,5.474378992692046,0.09052631578947361,0,0.05
1757328983.2818973,-0.93,0.014,9.705,0.36250032413778616,5.474378992692046,0.09052631578947361,0,0.05
1757328983.3081553,-0.945,0.014,9.723,0.3655667483511048,5.551873739448585,0.09127819548872174,0,0.05
1757328983.3341558,-0.945,0.014,9.723,0.3655667483511048,5.551873739448585,0.09127819548872174,0,0.05
1757328983.359069,-0.958,0.019,9.777,0.3686915479096314,5.59735990693992,0.09192982456140342,0,0.05
1757328983.384556,-0.958,0.019,9.777,0.3686915479096314,5.59735990693992,0.09192982456140342,0,0.05
1757328983.4107003,-0.999,0.027,9.76,0.3720597532655205,5.846364988203303,0.09398496240601496,0,0.05
1757328983.4366012,-0.999,0.027,9.76,0.3720597532655205,5.846364988203303,0.09398496240601496,0,0.05
1757328983.4618807,-0.999,0.027,9.76,0.3720597532655205,5.846364988203303,0.09398496240601496,0,0.05
1757328983.4877453,-0.998,0.025,9.729,0.37539108939877625,5.858734739959991,0.09403508771929818,0,0.05
1757328983.5161161,-0.999,0.015,9.743,0.3786997128332685,5.855027499317973,0.0940852130325814,0,0.05
1757328983.5415318,-0.999,0.015,9.743,0.3786997128332685,5.855027499317973,0.0940852130325814,0,0.05
1757328983.5666656,-0.98,0.012,9.726,0.38185661248693864,5.754180036282239,0.09503759398496235,0,0.05
1757328983.594344,-0.98,0.012,9.726,0.38185661248693864,5.754180036282239,0.09503759398496235,0,0.05
1757328983.6199915,-0.961,0.002,9.713,0.3848678669361733,5.65044214935266,0.09598997493734332,0,0.05
1757328983.6453056,-0.961,0.002,9.713,0.3848678669361733,5.65044214935266,0.09598997493734332,0,0.05
1757328983.6724865,-0.939,-0.005,9.729,0.3877210047185992,5.512937023483802,0.09709273182957391,0,0.05
1757328983.698112,-0.939,-0.005,9.729,0.3877210047185992,5.512937023483802,0.09709273182957391,0,0.05
1757328983.7233896,-0.938,0.0,9.73,0.39054729227073126,5.506461966453079,0.09714285714285711,0,0.05
1757328983.7486517,-0.938,0.0,9.73,0.39054729227073126,5.506461966453079,0.09714285714285711,0,0.05
1757328983.7745483,-0.938,0.0,9.73,0.39054729227073126,5.506461966453079,0.09714285714285711,0,0.05
1757328983.7998788,-0.945,0.0,9.76,0.3933951575706036,5.530354332281282,0.09749373433583958,0,0.05
1757328983.8251586,-0.945,0.0,9.76,0.3933951575706036,5.530354332281282,0.09749373433583958,0,0.05
1757328983.8518736,-0.967,0.002,9.771,0.39635523523728056,5.651960562837628,0.09859649122807015,0,0.05
1757328983.878675,-0.967,0.002,9.771,0.39635523523728056,5.651960562837628,0.09859649122807015,0,0.05
1757328983.9053044,-0.988,0.012,9.805,0.39942187283622815,5.754403916138949,0.0996491228070175,0,0.05
1757328983.9323254,-0.988,0.012,9.805,0.39942187283622815,5.754403916138949,0.0996491228070175,0,0.05
1757328983.9591038,-1.001,0.012,9.79,0.40254544463948416,5.838460920128058,0.1003007518796992,0,0.05
1757328983.9865608,-1.001,0.012,9.79,0.40254544463948416,5.838460920128058,0.1003007518796992,0,0.05
1757328984.013957,-0.996,0.008,9.752,0.4056141947713369,5.831750192611543,0.10055137844611522,0,0.05
1757328984.0407732,-0.996,0.008,9.752,0.4056141947713369,5.831750192611543,0.10055137844611522,0,0.05
1757328984.068075,-0.942,0.015,9.739,0.4083396686583365,5.525415921546568,0.10325814536340845,0,0.05
1757328984.0939288,-0.942,0.015,9.739,0.4083396686583365,5.525415921546568,0.10325814536340845,0,0.05
1757328984.120027,-0.742,-0.121,9.768,0.41002157870043865,4.401134345653001,0.11328320802005006,0,0.05
1757328984.1470869,-0.742,-0.121,9.768,0.41002157870043865,4.401134345653001,0.11328320802005006,0,0.05
1757328984.1734715,-0.435,-0.088,9.67,0.4105980485827959,2.627788700403274,0.12867167919799494,0,0.05
1757328984.1992185,-0.435,-0.088,9.67,0.4105980485827959,2.627788700403274,0.12867167919799494,0,0.05
1757328984.2252903,-0.358,-0.031,9.708,0.41098803814709745,2.1198240158910373,0.13253132832080194,0,0.05
1757328984.2534163,-0.358,-0.031,9.708,0.41098803814709745,2.1198240158910373,0.13253132832080194,0,0.05
1757328984.280708,-0.817,-0.326,9.732,0.4130131838089433,5.164717327960518,0.15553884711779442,0,0.05
1757328984.3073456,-0.817,-0.326,9.732,0.4130131838089433,5.164717327960518,0.15553884711779442,0,0.05
1757328984.3331852,-1.147,-0.242,9.66,0.4169759135729545,6.91907240615381,0.17208020050125306,0,0.05
1757328984.3593943,-1.147,-0.242,9.66,0.4169759135729545,6.91907240615381,0.17208020050125306,0,0.05
1757328984.3852162,-0.741,-0.547,9.658,0.4186186988179099,5.4474873172790055,0.1924310776942355,0,0.05
1757328984.4121635,-0.741,-0.547,9.658,0.4186186988179099,5.4474873172790055,0.1924310776942355,0,0.05
1757328984.4385252,-0.774,-0.439,9.684,0.42040374046861195,5.249971622983028,0.1940852130325814,0,0.05
1757328984.4649608,-0.774,-0.439,9.684,0.42040374046861195,5.249971622983028,0.1940852130325814,0,0.05
1757328984.4918878,-0.945,-0.125,9.592,0.4230506677692401,5.6752914751722505,0.20265664160400995,0,0.05
1757328984.518028,-0.945,-0.125,9.592,0.4230506677692401,5.6752914751722505,0.20265664160400995,0,0.05
1757328984.5444715,-0.898,-0.07,9.486,0.4254267005019784,5.424143641930824,0.20501253132832073,0,0.05
1757328984.571332,-0.898,-0.07,9.486,0.4254267005019784,5.424143641930824,0.20501253132832073,0,0.05
1757328984.5967894,-1.067,-0.057,9.704,0.42875878999735967,6.283607087646305,0.21348370927318291,0,0.05
1757328984.6227465,-1.067,-0.057,9.704,0.42875878999735967,6.283607087646305,0.21348370927318291,0,0.05
1757328984.6496804,-0.852,0.089,9.611,0.4308698875530756,5.093357876557345,0.22426065162907258,0,0.05
1757328984.677487,-0.852,0.089,9.611,0.4308698875530756,5.093357876557345,0.22426065162907258,0,0.05
1757328984.704294,-0.748,0.085,9.651,0.4324900230063117,4.460253218227038,0.22947368421052622,0,0.05
1757328984.7309725,-0.748,0.085,9.651,0.4324900230063117,4.460253218227038,0.22947368421052622,0,0.05
1757328984.7578287,-0.761,0.07,9.686,0.4341605952870435,4.511216392838153,0.23012531328320793,0,0.05
1757328984.7845974,-0.761,0.07,9.686,0.4341605952870435,4.511216392838153,0.23012531328320793,0,0.05
1757328984.8098001,-0.949,-0.079,9.552,0.4367458356985216,5.693265961434066,0.23954887218045104,0,0.05
1757328984.8355932,-0.949,-0.079,9.552,0.4367458356985216,5.693265961434066,0.23954887218045104,0,0.05
1757328984.8631089,-1.017,0.489,9.528,0.43969608538171,6.754397781827902,0.2429573934837092,0,0.05
1757328984.8900905,-1.017,0.489,9.528,0.43969608538171,6.754397781827902,0.2429573934837092,0,0.05
1757328984.9164572,-0.873,0.065,9.472,0.441857409126519,5.28036164467576,0.25017543859649116,0,0.05
1757328984.942817,-0.873,0.065,9.472,0.441857409126519,5.28036164467576,0.25017543859649116,0,0.05
1757328984.9680715,-1.066,0.287,9.578,0.44506051273955993,6.574889605863658,0.25984962406015033,0,0.05
1757328984.9946527,-1.066,0.287,9.578,0.44506051273955993,6.574889605863658,0.25984962406015033,0,0.05
1757328985.021033,-1.106,0.342,9.597,0.4484829428194566,6.878260323559108,0.2618546365914786,0,0.05
1757328985.047934,-1.106,0.342,9.597,0.4484829428194566,6.878260323559108,0.2618546365914786,0,0.05
1757328985.075923,-0.759,-0.136,9.541,0.4500857168362489,4.620509923253834,0.2792481203007518,0,0.05
1757328985.1034565,-0.759,-0.136,9.541,0.4500857168362489,4.620509923253834,0.2792481203007518,0,0.05
1757328985.1305306,-0.944,-0.138,9.642,0.45255385591109487,5.650772784889731,0.2885213032581453,0,0.05
1757328985.1574147,-0.944,-0.138,9.642,0.45255385591109487,5.650772784889731,0.2885213032581453,0,0.05
1757328985.183895,-1.173,0.1,9.592,0.4563384873095847,6.99708917552461,0.2999999999999999,0,0.05
1757328985.2096417,-1.173,0.1,9.592,0.4563384873095847,6.99708917552461,0.2999999999999999,0,0.05
1757328985.2355676,-1.044,0.057,9.617,0.4593143313679642,6.204795055801383,0.3064661654135337,0,0.05
1757328985.2631774,-1.044,0.057,9.617,0.4593143313679642,6.204795055801383,0.3064661654135337,0,0.05
1757328985.2899766,-1.126,-0.075,9.558,0.46275192598194553,6.73363087403643,0.3105764411027568,0,0.05
1757328985.316949,-1.126,-0.075,9.558,0.46275192598194553,6.73363087403643,0.3105764411027568,0,0.05
1757328985.3432205,-0.859,0.139,9.446,0.46474083907055125,5.26328092697273,0.32395989974937334,0,0.05
1757328985.3702734,-0.859,0.139,9.446,0.46474083907055125,5.26328092697273,0.32395989974937334,0,0.05
1757328985.396868,-1.023,-0.046,9.54,0.4675471847845947,6.126730504842893,0.33218045112781946,0,0.05
1757328985.4242554,-1.023,-0.046,9.54,0.4675471847845947,6.126730504842893,0.33218045112781946,0,0.05
1757328985.4500506,-1.022,0.137,9.543,0.4703313512833266,6.167005553232596,0.3322305764411027,0,0.05
1757328985.476481,-1.022,0.137,9.543,0.4703313512833266,6.167005553232596,0.3322305764411027,0,0.05
1757328985.5041666,-1.022,0.137,9.543,0.4703313512833266,6.167005553232596,0.3322305764411027,0,0.05
1757328985.5312152,-1.032,0.088,9.581,0.47315340007232326,6.1699466833260805,0.33273182957393477,0,0.05
1757328985.5575695,-1.133,0.1,9.788,0.47653264578620425,6.628269330541298,0.33779448621553876,0,0.05
1757328985.5848048,-1.133,0.1,9.788,0.47653264578620425,6.628269330541298,0.33779448621553876,0,0.05
1757328985.6115878,-0.98,-0.206,9.849,0.479045261431527,5.805712226532785,0.3454636591478696,0,0.05
1757328985.6388097,-0.98,-0.206,9.849,0.479045261431527,5.805712226532785,0.3454636591478696,0,0.05
1757328985.6657326,-1.091,0.403,9.774,0.4821411256053563,6.785972297159395,0.3510275689223057,0,0.05
1757328985.6922743,-1.091,0.403,9.774,0.4821411256053563,6.785972297159395,0.3510275689223057,0,0.05
1757328985.71857,-1.091,0.403,9.774,0.4821411256053563,6.785972297159395,0.3510275689223057,0,0.05
1757328985.745849,-1.085,0.082,10.042,0.4851836018457342,6.184119361860116,0.35132832080200493,0,0.05
1757328985.7730255,-0.785,0.088,9.94,0.48676862059915077,4.543662048027446,0.36636591478696734,0,0.05
1757328985.7996433,-0.785,0.088,9.94,0.48676862059915077,4.543662048027446,0.36636591478696734,0,0.05
1757328985.825151,-0.785,0.088,9.94,0.48676862059915077,4.543662048027446,0.36636591478696734,0,0.05
1757328985.851635,-0.842,0.1,9.696,0.4885858164130433,4.997814750995975,0.3692230576441101,0,0.05
1757328985.8782778,-0.842,0.1,9.696,0.4885858164130433,4.997814750995975,0.3692230576441101,0,0.05
1757328985.904407,-1.363,0.131,9.647,0.493315844566136,8.07851478171751,0.39533834586466154,0,0.05
1757328985.9312818,-1.363,0.131,9.647,0.493315844566136,8.07851478171751,0.39533834586466154,0,0.05
1757328985.9573686,-1.166,0.144,9.668,0.49674884247474593,6.928628318754767,0.4052130325814535,0,0.05
1757328985.984539,-1.166,0.144,9.668,0.49674884247474593,6.928628318754767,0.4052130325814535,0,0.05
1757328986.0113518,-1.133,0.361,9.726,0.4999686340161751,6.970509902688885,0.4068671679197994,0,0.05
1757328986.0380375,-1.133,0.361,9.726,0.4999686340161751,6.970509902688885,0.4068671679197994,0,0.05
1757328986.064898,-0.91,0.43,9.711,0.5020347448135437,5.917190363647502,0.4180451127819547,0,0.05
1757328986.0909216,-0.91,0.43,9.711,0.5020347448135437,5.917190363647502,0.4180451127819547,0,0.05
1757328986.1166115,-0.916,0.2,9.711,0.5041195542725951,5.514713251032421,0.41834586466165397,0,0.05
1757328986.1434708,-0.916,0.2,9.711,0.5041195542725951,5.514713251032421,0.41834586466165397,0,0.05
1757328986.1703556,-1.074,0.091,9.597,0.5069716116312628,6.408090895513215,0.42626566416040096,0,0.05
1757328986.1982386,-1.074,0.091,9.597,0.5069716116312628,6.408090895513215,0.42626566416040096,0,0.05
1757328986.224016,-1.102,0.104,9.588,0.5099570815274557,6.5854173549660135,0.4276691729323307,0,0.05
1757328986.2508912,-1.102,0.104,9.588,0.5099570815274557,6.5854173549660135,0.4276691729323307,0,0.05
1757328986.2777083,-1.167,0.04,9.69,0.5132844703475841,6.871247934840348,0.43092731829573927,0,0.05
1757328986.3043964,-1.167,0.04,9.69,0.5132844703475841,6.871247934840348,0.43092731829573927,0,0.05
1757328986.3307936,-1.151,0.137,9.675,0.5165006776375032,6.831825025824625,0.4317293233082706,0,0.05
1757328986.3571537,-1.151,0.137,9.675,0.5165006776375032,6.831825025824625,0.4317293233082706,0,0.05
1757328986.3849552,-1.16,0.157,9.602,0.5197470057633811,6.950609981011574,0.43218045112781955,0,0.05
1757328986.411815,-1.16,0.157,9.602,0.5197470057633811,6.950609981011574,0.43218045112781955,0,0.05
1757328986.4377887,-0.925,-0.163,9.765,0.5218007402256153,5.494124024850425,0.4439598997493734,0,0.05
1757328986.4649093,-0.925,-0.163,9.765,0.5218007402256153,5.494124024850425,0.4439598997493734,0,0.05
1757328986.4906778,-0.842,0.103,9.608,0.5234963443043322,5.045479408809054,0.44812030075187953,0,0.05
1757328986.5169008,-0.842,0.103,9.608,0.5234963443043322,5.045479408809054,0.44812030075187953,0,0.05
1757328986.5436437,-1.011,-0.26,9.514,0.5259312930412109,6.2615716258870275,0.4565914786967417,0,0.05
1757328986.5700912,-1.011,-0.26,9.514,0.5259312930412109,6.2615716258870275,0.4565914786967417,0,0.05
1757328986.5967457,-1.175,-0.013,9.514,0.5292025014113217,7.040930463803391,0.46481203007518784,0,0.05
1757328986.623529,-1.175,-0.013,9.514,0.5292025014113217,7.040930463803391,0.46481203007518784,0,0.05
1757328986.649513,-1.175,-0.013,9.514,0.5292025014113217,7.040930463803391,0.46481203007518784,0,0.05
1757328986.6751413,-1.126,0.07,9.452,0.5321888551069065,6.806520473452056,0.467268170426065,0,0.05
1757328986.7011719,-0.97,0.094,9.477,0.5343942622259337,5.871233480823523,0.4750877192982454,0,0.05
1757328986.7274554,-0.97,0.094,9.477,0.5343942622259337,5.871233480823523,0.4750877192982454,0,0.05
1757328986.7542799,-1.08,0.099,9.68,0.5371156556087339,6.3926465539786435,0.4806015037593983,0,0.05
1757328986.781288,-1.08,0.099,9.68,0.5371156556087339,6.3926465539786435,0.4806015037593983,0,0.05
1757328986.807973,-0.967,0.083,9.614,0.5392874465440485,5.764611156796831,0.4862656641604008,0,0.05
1757328986.8340254,-0.967,0.083,9.614,0.5392874465440485,5.764611156796831,0.4862656641604008,0,0.05
1757328986.8598158,-1.087,0.085,9.634,0.5420192547317854,6.4569185009918995,0.4922807017543858,0,0.05
1757328986.8867257,-1.087,0.085,9.634,0.5420192547317854,6.4569185009918995,0.4922807017543858,0,0.05
1757328986.912946,-1.026,0.108,9.738,0.5444415143061742,6.047502936674174,0.49533834586466147,0,0.05
1757328986.9389296,-1.026,0.108,9.738,0.5444415143061742,6.047502936674174,0.49533834586466147,0,0.05
1757328986.9658723,-1.126,-0.035,9.833,0.5473447291241599,6.535747434667298,0.5003508771929823,0,0.05
1757328986.993592,-1.126,-0.035,9.833,0.5473447291241599,6.535747434667298,0.5003508771929823,0,0.05
1757328987.0207348,-1.244,0.119,9.673,0.5508675816382735,7.361408293996137,0.5062656641604009,0,0.05
1757328987.048192,-1.244,0.119,9.673,0.5508675816382735,7.361408293996137,0.5062656641604009,0,0.05
1757328987.0738375,-1.243,0.11,9.592,0.5543624401057489,7.41218554851572,0.506315789473684,0,0.05
1757328987.0994878,-1.243,0.11,9.592,0.5543624401057489,7.41218554851572,0.506315789473684,0,0.05
1757328987.1249444,-1.02,0.178,9.677,0.5567034354124285,6.107270108433106,0.5174937343358396,0,0.05
1757328987.1516314,-1.02,0.178,9.677,0.5567034354124285,6.107270108433106,0.5174937343358396,0,0.05
1757328987.177467,-0.896,0.06,9.348,0.5585031378604779,5.487226353302747,0.5237092731829573,0,0.05
1757328987.2029,-0.896,0.06,9.348,0.5585031378604779,5.487226353302747,0.5237092731829573,0,0.05
1757328987.2292948,-0.896,0.06,9.348,0.5585031378604779,5.487226353302747,0.5237092731829573,0,0.05
1757328987.2551858,-1.198,0.019,9.569,0.5617061197815099,7.136958362547051,0.538847117794486,0,0.05
1757328987.28234,-1.198,0.019,9.569,0.5617061197815099,7.136958362547051,0.538847117794486,0,0.05
1757328987.3089151,-1.086,0.004,9.82,0.5643246007396806,6.3107749081467155,0.5444611528822054,0,0.05
1757328987.3354878,-1.086,0.004,9.82,0.5643246007396806,6.3107749081467155,0.5444611528822054,0,0.05
1757328987.362255,-1.058,0.046,9.469,0.5667986106193275,6.381361127822197,0.5458646616541353,0,0.05
1757328987.3900974,-1.058,0.046,9.469,0.5667986106193275,6.381361127822197,0.5458646616541353,0,0.05
1757328987.41691,-0.772,0.067,9.597,0.568111454734016,4.616286169628893,0.5602005012531328,0,0.05
1757328987.44329,-0.772,0.067,9.597,0.568111454734016,4.616286169628893,0.5602005012531328,0,0.05
1757328987.469217,-0.875,-0.106,10.066,0.5697935481382709,5.00415916117637,0.5653634085213032,0,0.05
1757328987.4960897,-0.875,-0.106,10.066,0.5697935481382709,5.00415916117637,0.5653634085213032,0,0.05
1757328987.5218637,-0.934,0.133,9.988,0.5717040996004839,5.395894842454171,0.5683208020050124,0,0.05
1757328987.5476778,-0.934,0.133,9.988,0.5717040996004839,5.395894842454171,0.5683208020050124,0,0.05
1757328987.5731773,-0.83,0.01,9.816,0.5732083630757667,4.833544415833629,0.5735338345864661,0,0.05
1757328987.600014,-0.83,0.01,9.816,0.5732083630757667,4.833544415833629,0.5735338345864661,0,0.05
1757328987.6256733,-1.088,-0.01,9.966,0.5757839764182396,6.230635321983342,0.5864661654135338,0,0.05
1757328987.6512046,-1.088,-0.01,9.966,0.5757839764182396,6.230635321983342,0.5864661654135338,0,0.05
1757328987.6765788,-0.983,-0.005,9.944,0.5778779369382431,5.645623663798302,0.5917293233082705,0,0.05
1757328987.7023485,-0.983,-0.005,9.944,0.5778779369382431,5.645623663798302,0.5917293233082705,0,0.05
1757328987.728055,-1.088,0.331,9.762,0.5804328298778421,6.644787712605001,0.5969924812030074,0,0.05
1757328987.7541587,-1.088,0.331,9.762,0.5804328298778421,6.644787712605001,0.5969924812030074,0,0.05
1757328987.7806003,-0.884,0.215,9.822,0.5821133137113427,5.291962716596405,0.6072180451127819,0,0.05
1757328987.8068388,-0.884,0.215,9.822,0.5821133137113427,5.291962716596405,0.6072180451127819,0,0.05
1757328987.832529,-0.787,0.323,9.719,0.5834417987254599,5.002352418911443,0.6120802005012531,0,0.05
1757328987.8584151,-0.787,0.323,9.719,0.5834417987254599,5.002352418911443,0.6120802005012531,0,0.05
1757328987.8845463,-0.787,0.323,9.719,0.5834417987254599,5.002352418911443,0.6120802005012531,0,0.05
1757328987.9106026,-0.809,0.312,9.593,0.5848423163554429,5.164735030266804,0.6131829573934836,0,0.05
1757328987.936507,-0.851,-0.175,9.765,0.5863881287168082,5.084307078484805,0.6152882205513783,0,0.05
1757328987.9634147,-0.851,-0.175,9.765,0.5863881287168082,5.084307078484805,0.6152882205513783,0,0.05
1757328987.989414,-1.096,-0.022,9.772,0.5889431869883546,6.400667966375111,0.6275689223057643,0,0.05
1757328988.015946,-1.096,-0.022,9.772,0.5889431869883546,6.400667966375111,0.6275689223057643,0,0.05
1757328988.0424387,-1.009,0.197,9.554,0.5911000592116363,6.1416413862139665,0.6319298245614036,0,0.05
1757328988.0692062,-1.009,0.197,9.554,0.5911000592116363,6.1416413862139665,0.6319298245614036,0,0.05
1757328988.0956635,-1.009,0.197,9.554,0.5911000592116363,6.1416413862139665,0.6319298245614036,0,0.05
1757328988.1218302,-1.116,0.119,9.854,0.5937279848550177,6.49773337894329,0.6372932330827068,0,0.05
1757328988.1479118,-0.962,0.179,9.862,0.5956731738126202,5.666364428481281,0.6450125313283208,0,0.05
1757328988.1756122,-0.962,0.179,9.862,0.5956731738126202,5.666364428481281,0.6450125313283208,0,0.05
1757328988.2027037,-0.962,0.179,9.862,0.5956731738126202,5.666364428481281,0.6450125313283208,0,0.05
1757328988.2286468,-1.081,0.091,9.668,0.5981203327926581,6.4022446973963305,0.6509774436090225,0,0.05
1757328988.2549798,-1.081,0.091,9.668,0.5981203327926581,6.4022446973963305,0.6509774436090225,0,0.05
1757328988.2819552,-1.01,-0.082,9.711,0.6002484339837965,5.957139907066182,0.6545363408521304,0,0.05
1757328988.3077686,-1.01,-0.082,9.711,0.6002484339837965,5.957139907066182,0.6545363408521304,0,0.05
1757328988.3339403,-1.083,-0.088,9.776,0.6026859920389722,6.342201522150725,0.6581954887218043,0,0.05
1757328988.3615086,-1.083,-0.088,9.776,0.6026859920389722,6.342201522150725,0.6581954887218043,0,0.05
1757328988.3892732,-1.037,0.087,9.613,0.6049122477682197,6.178421886685462,0.660501253132832,0,0.05
1757328988.4169273,-1.037,0.087,9.613,0.6049122477682197,6.178421886685462,0.660501253132832,0,0.05
1757328988.4433239,-1.044,0.234,9.57,0.6071603309670355,6.379040683191544,0.6608521303258146,0,0.05
1757328988.470511,-1.044,0.234,9.57,0.6071603309670355,6.379040683191544,0.6608521303258146,0,0.05
1757328988.498204,-0.876,0.162,9.706,0.6087381271942806,5.24413108721692,0.6692731829573934,0,0.05
1757328988.5256371,-0.876,0.162,9.706,0.6087381271942806,5.24413108721692,0.6692731829573934,0,0.05
1757328988.55191,-0.97,0.254,9.505,0.6106671413298738,6.021990834326514,0.6739849624060149,0,0.05
1757328988.578039,-0.97,0.254,9.505,0.6106671413298738,6.021990834326514,0.6739849624060149,0,0.05
1757328988.604911,-0.976,0.11,9.481,0.6126139057350886,5.9144288435368875,0.6742857142857142,0,0.05
1757328988.6319864,-0.976,0.11,9.481,0.6126139057350886,5.9144288435368875,0.6742857142857142,0,0.05
1757328988.6582093,-1.205,0.047,9.66,0.6155695411568054,7.115767072884038,0.6857644110275689,0,0.05
1757328988.68545,-1.205,0.047,9.66,0.6155695411568054,7.115767072884038,0.6857644110275689,0,0.05
1757328988.7115378,-1.282,0.251,9.508,0.6188979479688069,7.823104859025009,0.6896240601503758,0,0.05
1757328988.7387018,-1.282,0.251,9.508,0.6188979479688069,7.823104859025009,0.6896240601503758,0,0.05
1757328988.7652135,-1.246,0.016,9.604,0.622025690787768,7.392730296052353,0.6914285714285714,0,0.05
1757328988.791636,-1.246,0.016,9.604,0.622025690787768,7.392730296052353,0.6914285714285714,0,0.05
1757328988.8176997,-0.675,0.129,9.779,0.6229406251802816,4.019834065460463,0.720050125313283,0,0.05
1757328988.8456497,-0.675,0.129,9.779,0.6229406251802816,4.019834065460463,0.720050125313283,0,0.05
1757328988.873264,-1.065,0.132,9.598,0.625212431898151,6.379724442240853,0.7395989974937343,0,0.05
1757328988.9001265,-1.065,0.132,9.598,0.625212431898151,6.379724442240853,0.7395989974937343,0,0.05
1757328988.926723,-0.947,0.165,9.612,0.6270028767876588,5.710987807572845,0.7455137844611528,0,0.05
1757328988.9534216,-0.947,0.165,9.612,0.6270028767876588,5.710987807572845,0.7455137844611528,0,0.05
1757328988.9805498,-1.03,-0.208,9.612,0.6291143437404682,6.2388488639885855,0.7496741854636592,0,0.05
1757328989.005956,-1.03,-0.208,9.612,0.6291143437404682,6.2388488639885855,0.7496741854636592,0,0.05
1757328989.0335352,-0.962,0.076,9.489,0.6309504477373798,5.806812716362185,0.7530827067669172,0,0.05
1757328989.0602229,-0.962,0.076,9.489,0.6309504477373798,5.806812716362185,0.7530827067669172,0,0.05
1757328989.0858264,-0.918,-0.123,9.553,0.6326177973310584,5.5377583003511095,0.7552882205513785,0,0.05
1757328989.1124039,-0.918,-0.123,9.553,0.6326177973310584,5.5377583003511095,0.7552882205513785,0,0.05
1757328989.1389725,-1.063,0.022,9.721,0.6348465956433885,6.241875080841856,0.7625563909774435,0,0.05
1757328989.1655426,-1.063,0.022,9.721,0.6348465956433885,6.241875080841856,0.7625563909774435,0,0.05
1757328989.1925888,-1.065,0.162,9.716,0.6370759471993901,6.326765101568815,0.76265664160401,0,0.05
1757328989.2187786,-1.065,0.162,9.716,0.6370759471993901,6.326765101568815,0.76265664160401,0,0.05
1757328989.245177,-1.003,-0.449,9.682,0.6390467784129735,6.475395755309615,0.7657644110275691,0,0.05
1757328989.2722268,-1.003,-0.449,9.682,0.6390467784129735,6.475395755309615,0.7657644110275691,0,0.05
1757328989.2997932,-0.752,-0.329,9.591,0.6401519702383177,4.891584545590855,0.778345864661654,0,0.05
1757328989.3271186,-0.752,-0.329,9.591,0.6401519702383177,4.891584545590855,0.778345864661654,0,0.05
1757328989.3540566,-0.718,0.068,9.526,0.6411578237844408,4.329600094133676,0.780050125313283,0,0.05
1757328989.3813803,-0.718,0.068,9.526,0.6411578237844408,4.329600094133676,0.780050125313283,0,0.05
1757328989.407711,-1.033,0.188,9.378,0.6432348540774201,6.3882753995478545,0.7958395989974938,0,0.05
1757328989.4343534,-1.033,0.188,9.378,0.6432348540774201,6.3882753995478545,0.7958395989974938,0,0.05
1757328989.4618974,-1.01,-0.01,9.564,0.6452141718065406,6.028633178042804,0.7969924812030074,0,0.05
1757328989.4899874,-1.01,-0.01,9.564,0.6452141718065406,6.028633178042804,0.7969924812030074,0,0.05
1757328989.5165696,-1.008,0.349,9.669,0.6471796408262547,6.295550723369012,0.7970927318295739,0,0.05
1757328989.5439923,-1.008,0.349,9.669,0.6471796408262547,6.295550723369012,0.7970927318295739,0,0.05
1757328989.5706685,-0.633,0.339,9.668,0.6479530924380251,4.2476624029218675,0.8158897243107767,0,0.05
1757328989.5980866,-0.633,0.339,9.668,0.6479530924380251,4.2476624029218675,0.8158897243107767,0,0.05
1757328989.624748,-0.834,0.218,9.749,0.6492935391639132,5.053035409418581,0.8259649122807016,0,0.05
1757328989.6515207,-0.834,0.218,9.749,0.6492935391639132,5.053035409418581,0.8259649122807016,0,0.05
1757328989.6788738,-0.854,0.184,9.654,0.6506960811315833,5.17065213758169,0.8269674185463657,0,0.05
1757328989.7057018,-0.854,0.184,9.654,0.6506960811315833,5.17065213758169,0.8269674185463657,0,0.05
1757328989.7332551,-0.854,0.192,9.625,0.6520956064872696,5.196300979075374,0.8269674185463657,0,0.05
1757328989.7604527,-0.854,0.192,9.625,0.6520956064872696,5.196300979075374,0.8269674185463657,0,0.05
1757328989.7869906,-0.863,-0.068,9.63,0.6535216924479249,5.136714339651521,0.8274185463659145,0,0.05
1757328989.8138254,-0.863,-0.068,9.63,0.6535216924479249,5.136714339651521,0.8274185463659145,0,0.05
1757328989.8406613,-0.945,0.09,9.619,0.6552275673382494,5.636133119410023,0.8315288220551377,0,0.05
1757328989.8681684,-0.945,0.09,9.619,0.6552275673382494,5.636133119410023,0.8315288220551377,0,0.05
1757328989.8945985,-0.965,0.055,9.695,0.6570016952032924,5.6934253741674175,0.8325313283208018,0,0.05
1757328989.9206305,-0.965,0.055,9.695,0.6570016952032924,5.6934253741674175,0.8325313283208018,0,0.05
1757328989.9469392,-0.673,-0.151,9.771,0.6578628656490653,4.037793386770902,0.8471679197994985,0,0.05
1757328989.9737701,-0.673,-0.151,9.771,0.6578628656490653,4.037793386770902,0.8471679197994985,0,0.05
1757328990.0004694,-0.73,0.053,9.76,0.6588746466513945,4.288694746736854,0.8500250626566412,0,0.05
1757328990.0259612,-0.73,0.053,9.76,0.6588746466513945,4.288694746736854,0.8500250626566412,0,0.05
1757328990.0523555,-0.869,-0.009,9.589,0.6603057644000997,5.178542382021635,0.8569924812030072,0,0.05
1757328990.0777867,-0.869,-0.009,9.589,0.6603057644000997,5.178542382021635,0.8569924812030072,0,0.05
1757328990.1045697,-0.938,-0.07,9.848,0.6619692685465088,5.455919536474362,0.8604511278195486,0,0.05
1757328990.1304557,-0.938,-0.07,9.848,0.6619692685465088,5.455919536474362,0.8604511278195486,0,0.05
1757328990.1574004,-1.038,0.073,9.86,0.6640006946532511,6.024345236472027,0.8654636591478693,0,0.05
1757328990.183702,-1.038,0.073,9.86,0.6640006946532511,6.024345236472027,0.8654636591478693,0,0.05
1757328990.211272,-0.724,0.378,9.643,0.6649867385895752,4.841251407049538,0.8812030075187968,0,0.05
1757328990.238297,-0.724,0.378,9.643,0.6649867385895752,4.841251407049538,0.8812030075187968,0,0.05
1757328990.2656384,-0.929,0.016,9.95,0.6666070544181183,5.3348482431625435,0.8914786967418544,0,0.05
1757328990.2934234,-0.929,0.016,9.95,0.6666070544181183,5.3348482431625435,0.8914786967418544,0,0.05
1757328990.3198476,-0.846,-0.127,9.846,0.667947793618633,4.965729515227997,0.8956390977443608,0,0.05
1757328990.3470154,-0.846,-0.127,9.846,0.667947793618633,4.965729515227997,0.8956390977443608,0,0.05
1757328990.372815,-0.906,-0.038,9.622,0.6694821468866813,5.383767894137212,0.8986466165413532,0,0.05
1757328990.3999777,-0.906,-0.038,9.622,0.6694821468866813,5.383767894137212,0.8986466165413532,0,0.05
1757328990.426569,-1.03,-0.094,9.794,0.6714600472105544,6.0282902765368975,0.904862155388471,0,0.05
1757328990.4529471,-1.03,-0.094,9.794,0.6714600472105544,6.0282902765368975,0.904862155388471,0,0.05
1757328990.4791558,-1.071,0.108,9.671,0.6735920111610588,6.3511706102278405,0.9069172932330828,0,0.05
1757328990.506444,-1.071,0.108,9.671,0.6735920111610588,6.3511706102278405,0.9069172932330828,0,0.05
1757328990.5335474,-1.093,0.222,9.54,0.6758053122016724,6.668155974886382,0.9080200501253132,0,0.05
1757328990.5592818,-1.093,0.222,9.54,0.6758053122016724,6.668155974886382,0.9080200501253132,0,0.05
1757328990.5861166,-1.148,0.161,9.64,0.678238586339645,6.857038089213268,0.9107769423558897,0,0.05
1757328990.613833,-1.148,0.161,9.64,0.678238586339645,6.857038089213268,0.9107769423558897,0,0.05
1757328990.640498,-0.773,0.012,9.546,0.6793389452254301,4.630055884093964,0.9295739348370927,0,0.05
1757328990.668235,-0.773,0.012,9.546,0.6793389452254301,4.630055884093964,0.9295739348370927,0,0.05
1757328990.6940796,-0.974,0.202,9.404,0.6810822949541414,6.038117829509997,0.9396491228070174,0,0.05
1757328990.7209995,-0.974,0.202,9.404,0.6810822949541414,6.038117829509997,0.9396491228070174,0,0.05
1757328990.748597,-0.974,0.196,9.494,0.6828211936517494,5.974125681131847,0.9396491228070174,0,0.05
1757328990.7750118,-0.974,0.196,9.494,0.6828211936517494,5.974125681131847,0.9396491228070174,0,0.05
1757328990.8019545,-0.963,0.071,9.535,0.6845167675082912,5.782655070306295,0.9402005012531328,0,0.05
1757328990.8283565,-0.963,0.071,9.535,0.6845167675082912,5.782655070306295,0.9402005012531328,0,0.05
1757328990.856354,-1.143,0.203,9.639,0.686898338547998,6.867422656819683,0.9492230576441103,0,0.05
1757328990.884567,-1.143,0.203,9.639,0.686898338547998,6.867422656819683,0.9492230576441103,0,0.05
1757328990.9107502,-0.781,0.563,9.439,0.6880074345528543,5.823991707660973,0.9673684210526317,0,0.05
1757328990.9378173,-0.781,0.563,9.439,0.6880074345528543,5.823991707660973,0.9673684210526317,0,0.05
1757328990.9656725,-0.81,0.471,9.464,0.6891984329639759,5.654153165786386,0.9688220551378445,0,0.05
1757328990.9924273,-0.81,0.471,9.464,0.6891984329639759,5.654153165786386,0.9688220551378445,0,0.05
1757328991.0185242,-0.824,0.476,9.396,0.6904287943010488,5.783064062189289,0.9695238095238093,0,0.05
1757328991.0447369,-0.824,0.476,9.396,0.6904287943010488,5.783064062189289,0.9695238095238093,0,0.05
1757328991.072342,-0.978,0.257,9.465,0.6921583128157893,6.098126895697591,0.9772431077694235,0,0.05
1757328991.099645,-0.978,0.257,9.465,0.6921583128157893,6.098126895697591,0.9772431077694235,0,0.05
1757328991.1249917,-1.049,0.22,9.755,0.6941427320803698,6.270168201084197,0.9808020050125311,0,0.05
1757328991.1526003,-1.049,0.22,9.755,0.6941427320803698,6.270168201084197,0.9808020050125311,0,0.05
1757328991.1794991,-1.113,0.145,9.612,0.6963699124746847,6.660337855325638,0.9840100250626566,0,0.05
1757328991.20737,-1.113,0.145,9.612,0.6963699124746847,6.660337855325638,0.9840100250626566,0,0.05
1757328991.2340488,-1.155,0.051,9.821,0.6987604149492156,6.713943436614779,0.9861152882205511,0,0.05
1757328991.2605886,-1.155,0.051,9.821,0.6987604149492156,6.713943436614779,0.9861152882205511,0,0.05
1757328991.2869284,-1.081,-0.036,9.906,0.7008477152705858,6.2312290320661825,0.9898245614035085,0,0.05
1757328991.3131285,-1.081,-0.036,9.906,0.7008477152705858,6.2312290320661825,0.9898245614035085,0,0.05
1757328991.3403187,-0.479,0.127,10.017,0.7012568163661583,2.83216593975097,1.0199999999999998,0,0.05
1757328991.3680136,-0.479,0.127,10.017,0.7012568163661583,2.83216593975097,1.0199999999999998,0,0.05
1757328991.395897,-0.564,0.242,9.644,0.701823597850628,3.6412872244167604,1.0242606516290726,0,0.05
1757328991.4229603,-0.564,0.242,9.644,0.701823597850628,3.6412872244167604,1.0242606516290726,0,0.05
1757328991.4494953,-0.868,-0.018,9.707,0.7031642215727418,5.110891431277264,1.039498746867168,0,0.05
1757328991.476371,-0.868,-0.018,9.707,0.7031642215727418,5.110891431277264,1.039498746867168,0,0.05
1757328991.5029078,-0.975,-0.096,9.734,0.7048521015078271,5.747392341734111,1.044862155388471,0,0.05
1757328991.5285456,-0.975,-0.096,9.734,0.7048521015078271,5.747392341734111,1.044862155388471,0,0.05
1757328991.5539834,-1.138,0.149,9.541,0.7071450310933394,6.859306979239282,1.053032581453634,0,0.05
1757328991.5824041,-1.138,0.149,9.541,0.7071450310933394,6.859306979239282,1.053032581453634,0,0.05
1757328991.6084507,-0.795,0.16,9.755,0.7082613624220934,4.7521163918462905,1.0702255639097742,0,0.05
1757328991.6350727,-0.795,0.16,9.755,0.7082613624220934,4.7521163918462905,1.0702255639097742,0,0.05
1757328991.6605067,-0.9,-0.036,10.125,0.7096894796317612,5.083648645382274,1.0754887218045113,0,0.05
1757328991.6860805,-0.9,-0.036,10.125,0.7096894796317612,5.083648645382274,1.0754887218045113,0,0.05
1757328991.713033,-0.9,-0.036,10.125,0.7096894796317612,5.083648645382274,1.0754887218045113,0,0.05
1757328991.7399206,-0.818,0.151,9.865,0.7108670533229122,4.819799194516017,1.0795989974937341,0,0.05
1757328991.7663662,-0.822,0.084,10.022,0.7120541956199682,4.713187981215339,1.0797994987468669,0,0.05
1757328991.7920027,-0.822,0.084,10.022,0.7120541956199682,4.713187981215339,1.0797994987468669,0,0.05
1757328991.8190398,-0.822,0.084,10.022,0.7120541956199682,4.713187981215339,1.0797994987468669,0,0.05
1757328991.8461294,-0.855,0.068,10.104,0.7133363442304058,4.852043788865112,1.081453634085213,0,0.05
1757328991.8731318,-0.855,0.068,10.104,0.7133363442304058,4.852043788865112,1.081453634085213,0,0.05
1757328991.9000926,-1.027,0.034,9.75,0.7151821883268626,6.0162527278801035,1.0900751879699246,0,0.05
1757328991.9261215,-1.027,0.034,9.75,0.7151821883268626,6.0162527278801035,1.0900751879699246,0,0.05
1757328991.9522355,-1.034,-0.061,9.928,0.7170484310700359,5.956175105172069,1.0904260651629072,0,0.05
1757328991.979057,-1.034,-0.061,9.928,0.7170484310700359,5.956175105172069,1.0904260651629072,0,0.05
1757328992.0058644,-0.995,-0.211,9.899,0.7187722274823923,5.866577097389413,1.0923809523809522,0,0.05
1757328992.0327861,-0.995,-0.211,9.899,0.7187722274823923,5.866577097389413,1.0923809523809522,0,0.05
1757328992.0586169,-0.806,-0.048,9.66,0.7199011077918966,4.777943216866122,1.1018546365914783,0,0.05
1757328992.0858207,-0.806,-0.048,9.66,0.7199011077918966,4.777943216866122,1.1018546365914783,0,0.05
1757328992.1120024,-1.042,0.023,9.469,0.7217839115691067,6.281267060759951,1.1136842105263156,0,0.05
1757328992.1400175,-1.042,0.023,9.469,0.7217839115691067,6.281267060759951,1.1136842105263156,0,0.05
1757328992.1670046,-0.83,-0.103,9.801,0.7229759781624836,4.8775084030404114,1.1243107769423557,0,0.05
1757328992.19416,-0.83,-0.103,9.801,0.7229759781624836,4.8775084030404114,1.1243107769423557,0,0.05
1757328992.2202828,-1.204,-0.063,9.464,0.7254779838148088,7.259974457101834,1.1430576441102756,0,0.05
1757328992.2477348,-1.204,-0.063,9.464,0.7254779838148088,7.259974457101834,1.1430576441102756,0,0.05
1757328992.2747753,-1.202,0.227,9.24,0.7279631275002876,7.54130829207713,1.1431578947368422,0,0.05
1757328992.301537,-1.202,0.227,9.24,0.7279631275002876,7.54130829207713,1.1431578947368422,0,0.05
1757328992.3286142,-0.932,0.119,9.768,0.7294531342039734,5.494275150306455,1.156691729323308,0,0.05
1757328992.3552427,-0.932,0.119,9.768,0.7294531342039734,5.494275150306455,1.156691729323308,0,0.05
1757328992.3822927,-0.825,0.077,9.697,0.7306185307669112,4.883924551483432,1.1620551378446113,0,0.05
1757328992.408786,-0.825,0.077,9.697,0.7306185307669112,4.883924551483432,1.1620551378446113,0,0.05
1757328992.4346786,-0.934,0.116,9.302,0.7321095051288434,5.777521864133122,1.1675187969924812,0,0.05
1757328992.4610026,-0.934,0.116,9.302,0.7321095051288434,5.777521864133122,1.1675187969924812,0,0.05
1757328992.4879375,-0.959,0.083,9.78,0.7336780833580897,5.621165524978652,1.1687719298245614,0,0.05
1757328992.5136628,-0.959,0.083,9.78,0.7336780833580897,5.621165524978652,1.1687719298245614,0,0.05
1757328992.5396302,-0.968,0.09,9.75,0.7352727997145004,5.694155258586376,1.16922305764411,0,0.05
1757328992.5653863,-0.968,0.09,9.75,0.7352727997145004,5.694155258586376,1.16922305764411,0,0.05
1757328992.5910075,-1.111,0.179,9.434,0.7373682204299288,6.802342056559863,1.1763909774436088,0,0.05
1757328992.6172223,-1.111,0.179,9.434,0.7373682204299288,6.802342056559863,1.1763909774436088,0,0.05
1757328992.6432583,-1.14,0.101,9.84,0.7395680445368094,6.634119383527299,1.177844611528822,0,0.05
1757328992.6689801,-1.14,0.101,9.84,0.7395680445368094,6.634119383527299,1.177844611528822,0,0.05
1757328992.6941495,-1.14,0.101,9.84,0.7395680445368094,6.634119383527299,1.177844611528822,0,0.05
1757328992.7196825,-1.037,0.196,9.671,0.7413833792310156,6.227831089620931,1.1830075187969924,0,0.05
1757328992.7459419,-0.856,0.033,9.522,0.7426177718045806,5.140710442101203,1.1920802005012532,0,0.05
1757328992.771501,-0.856,0.033,9.522,0.7426177718045806,5.140710442101203,1.1920802005012532,0,0.05
1757328992.7969992,-0.963,-0.112,9.881,0.7441771143350218,5.603736510355782,1.1974436090225564,0,0.05
1757328992.8228583,-0.963,-0.112,9.881,0.7441771143350218,5.603736510355782,1.1974436090225564,0,0.05
1757328992.848711,-0.927,0.031,9.974,0.7456191387028634,5.312861246116114,1.1992481203007517,0,0.05
1757328992.8747385,-0.927,0.031,9.974,0.7456191387028634,5.312861246116114,1.1992481203007517,0,0.05
1757328992.9005694,-1.236,-0.195,9.837,0.7481758750454335,7.249216328795131,1.214736842105263,0,0.05
1757328992.9263294,-1.236,-0.195,9.837,0.7481758750454335,7.249216328795131,1.214736842105263,0,0.05
1757328992.9541025,-1.236,-0.195,9.837,0.7481758750454335,7.249216328795131,1.214736842105263,0,0.05
1757328992.980982,-0.962,-0.006,9.922,0.7497204479004158,5.5379817966631,1.2284711779448618,0,0.05
1757328993.0089555,-1.074,-0.162,9.726,0.7516411643863048,6.372093224604805,1.2340852130325815,0,0.05
1757328993.0352616,-1.074,-0.162,9.726,0.7516411643863048,6.372093224604805,1.2340852130325815,0,0.05
1757328993.0617223,-1.074,-0.162,9.726,0.7516411643863048,6.372093224604805,1.2340852130325815,0,0.05
1757328993.0886283,-0.752,0.111,9.548,0.7525810255381143,4.551906537470517,1.2502255639097741,0,0.05
1757328993.1148431,-0.752,0.111,9.548,0.7525810255381143,4.551906537470517,1.2502255639097741,0,0.05
1757328993.1410775,-0.894,-0.175,9.522,0.7539073484188888,5.464838982233589,1.2573433583959897,0,0.05
1757328993.1674893,-0.894,-0.175,9.522,0.7539073484188888,5.464838982233589,1.2573433583959897,0,0.05
1757328993.1955245,-0.925,-0.153,9.784,0.7553246669479291,5.4737498449969655,1.2588972431077694,0,0.05
1757328993.2229917,-0.925,-0.153,9.784,0.7553246669479291,5.4737498449969655,1.2588972431077694,0,0.05
1757328993.24967,-0.906,-0.106,9.687,0.7566818634670717,5.37941495481989,1.2598496240601502,0,0.05
1757328993.2755556,-0.906,-0.106,9.687,0.7566818634670717,5.37941495481989,1.2598496240601502,0,0.05
1757328993.3016512,-1.187,-0.082,9.881,0.7590058398984819,6.8662602780163295,1.2739348370927317,0,0.05
1757328993.3277617,-1.187,-0.082,9.881,0.7590058398984819,6.8662602780163295,1.2739348370927317,0,0.05
1757328993.3545213,-1.033,-0.099,10.082,0.7607611895332201,5.876718728164539,1.2816541353383457,0,0.05
1757328993.3805943,-1.033,-0.099,10.082,0.7607611895332201,5.876718728164539,1.2816541353383457,0,0.05
1757328993.4079802,-0.824,0.149,9.945,0.7618759922060807,4.812918406742672,1.2921303258145362,0,0.05
1757328993.4356797,-0.824,0.149,9.945,0.7618759922060807,4.812918406742672,1.2921303258145362,0,0.05
1757328993.4622972,-0.713,0.069,9.986,0.762709610533393,4.102999967938629,1.2976942355889725,0,0.05
1757328993.4900217,-0.713,0.069,9.986,0.762709610533393,4.102999967938629,1.2976942355889725,0,0.05
1757328993.5157545,-1.102,-0.162,10.027,0.7646972995898442,6.338682885925238,1.3171929824561401,0,0.05
1757328993.542533,-1.102,-0.162,10.027,0.7646972995898442,6.338682885925238,1.3171929824561401,0,0.05
1757328993.5694253,-0.806,0.105,10.013,0.7657584802011663,4.640839419661143,1.33203007518797,0,0.05
1757328993.5965197,-0.806,0.105,10.013,0.7657584802011663,4.640839419661143,1.33203007518797,0,0.05
1757328993.6231475,-0.685,0.057,10.004,0.7665240456110951,3.9305730436201145,1.338095238095238,0,0.05
1757328993.6512444,-0.685,0.057,10.004,0.7665240456110951,3.9305730436201145,1.338095238095238,0,0.05
1757328993.6786232,-0.567,-0.092,10.04,0.7670481308236139,3.274475713422935,1.3440100250626565,0,0.05
1757328993.7063773,-0.567,-0.092,10.04,0.7670481308236139,3.274475713422935,1.3440100250626565,0,0.05
1757328993.733352,-1.095,-0.108,9.949,0.7689996082573775,6.310999538832868,1.3704761904761906,0,0.05
1757328993.7610106,-1.095,-0.108,9.949,0.7689996082573775,6.310999538832868,1.3704761904761906,0,0.05
1757328993.7870023,-0.891,0.238,9.867,0.7702889717502127,5.339752532408037,1.3807017543859652,0,0.05
1757328993.8144104,-0.891,0.238,9.867,0.7702889717502127,5.339752532408037,1.3807017543859652,0,0.05
1757328993.8404663,-0.914,0.041,9.866,0.7716434344954929,5.298145819431916,1.3818546365914783,0,0.05
1757328993.8676155,-0.914,0.041,9.866,0.7716434344954929,5.298145819431916,1.3818546365914783,0,0.05
1757328993.893245,-0.941,0.284,9.964,0.7730765114139738,5.6338518818350565,1.3832080200501253,0,0.05
1757328993.919056,-0.941,0.284,9.964,0.7730765114139738,5.6338518818350565,1.3832080200501253,0,0.05
1757328993.945422,-0.748,0.275,9.879,0.7739806538279881,4.61212596778191,1.3928822055137844,0,0.05
1757328993.9709606,-0.748,0.275,9.879,0.7739806538279881,4.61212596778191,1.3928822055137844,0,0.05
1757328993.996896,-0.911,0.248,9.969,0.7753198404529579,5.410282626771054,1.4010526315789473,0,0.05
1757328994.0229034,-0.911,0.248,9.969,0.7753198404529579,5.410282626771054,1.4010526315789473,0,0.05
1757328994.0492778,-0.967,0.176,9.726,0.7768259634564231,5.770581950102662,1.4038596491228068,0,0.05
1757328994.0759165,-0.967,0.176,9.726,0.7768259634564231,5.770581950102662,1.4038596491228068,0,0.05
1757328994.1032243,-0.947,0.319,9.797,0.7782676917359477,5.823973942862673,1.404862155388471,0,0.05
1757328994.130612,-0.947,0.319,9.797,0.7782676917359477,5.823973942862673,1.404862155388471,0,0.05
1757328994.1566074,-0.877,0.007,9.803,0.7795020349556504,5.112370894330772,1.4083709273182954,0,0.05
1757328994.1841676,-0.877,0.007,9.803,0.7795020349556504,5.112370894330772,1.4083709273182954,0,0.05
1757328994.2103515,-0.875,0.269,9.737,0.7807288165554029,5.370827341962726,1.408471177944862,0,0.05
1757328994.236015,-0.875,0.269,9.737,0.7807288165554029,5.370827341962726,1.408471177944862,0,0.05
1757328994.2624683,-0.704,-0.047,9.789,0.7815219286750692,4.122610114868363,1.4170426065162907,0,0.05
1757328994.2901332,-0.704,-0.047,9.789,0.7815219286750692,4.122610114868363,1.4170426065162907,0,0.05
1757328994.3178287,-0.995,0.28,9.997,0.78310381655308,5.90315860557363,1.4316290726817043,0,0.05
1757328994.3460212,-0.995,0.28,9.997,0.78310381655308,5.90315860557363,1.4316290726817043,0,0.05
1757328994.372475,-0.887,0.094,9.635,0.7843586615828246,5.28912189983486,1.4370426065162905,0,0.05
1757328994.4004924,-0.887,0.094,9.635,0.7843586615828246,5.28912189983486,1.4370426065162905,0,0.05
1757328994.4265304,-1.062,0.505,9.625,0.7861540052686878,6.965708987851711,1.445814536340852,0,0.05
1757328994.4537988,-1.062,0.505,9.625,0.7861540052686878,6.965708987851711,1.445814536340852,0,0.05
1757328994.4797893,-0.94,0.397,10.024,0.7875576931247641,5.812421884261194,1.4519298245614036,0,0.05
1757328994.5067942,-0.94,0.397,10.024,0.7875576931247641,5.812421884261194,1.4519298245614036,0,0.05
1757328994.5332983,-0.943,0.359,9.738,0.7889678336282158,5.915717036224593,1.4520802005012532,0,0.05
1757328994.5601766,-0.943,0.359,9.738,0.7889678336282158,5.915717036224593,1.4520802005012532,0,0.05
1757328994.5874763,-0.976,0.244,9.726,0.7904756052529388,5.90555732840624,1.4537343358395989,0,0.05
1757328994.6141114,-0.976,0.244,9.726,0.7904756052529388,5.90555732840624,1.4537343358395989,0,0.05
1757328994.6410553,-0.817,0.162,10.055,0.7915304195038875,4.735287486320795,1.461704260651629,0,0.05
1757328994.6671584,-0.817,0.162,10.055,0.7915304195038875,4.735287486320795,1.461704260651629,0,0.05
1757328994.6946983,-1.08,0.276,9.839,0.7933702824028639,6.4637603019848555,1.474887218045113,0,0.05
1757328994.7222803,-1.08,0.276,9.839,0.7933702824028639,6.4637603019848555,1.474887218045113,0,0.05
1757328994.7491949,-1.15,0.288,9.837,0.7954512272917805,6.871907049935224,1.478395989974937,0,0.05
1757328994.7766387,-1.15,0.288,9.837,0.7954512272917805,6.871907049935224,1.478395989974937,0,0.05
1757328994.8035393,-0.947,0.463,9.863,0.7968592582758891,6.100423024567279,1.4885714285714284,0,0.05
1757328994.8293736,-0.947,0.463,9.863,0.7968592582758891,6.100423024567279,1.4885714285714284,0,0.05
1757328994.8566473,-0.78,0.347,9.643,0.7978130592438306,5.059254644858022,1.4969423558897244,0,0.05
1757328994.8836727,-0.78,0.347,9.643,0.7978130592438306,5.059254644858022,1.4969423558897244,0,0.05
1757328994.9092047,-1.163,0.631,9.808,0.799929434387809,7.6831209663715905,1.5161403508771931,0,0.05
1757328994.9354937,-1.163,0.631,9.808,0.799929434387809,7.6831209663715905,1.5161403508771931,0,0.05
1757328994.9621031,-1.358,0.27,9.916,0.8028060226480617,7.948872528155092,1.5259147869674181,0,0.05
1757328994.9901097,-1.358,0.27,9.916,0.8028060226480617,7.948872528155092,1.5259147869674181,0,0.05
1757328995.018352,-1.191,0.083,10.033,0.8050116225869041,6.786068111236261,1.5342857142857138,0,0.05
1757328995.0453608,-1.191,0.083,10.033,0.8050116225869041,6.786068111236261,1.5342857142857138,0,0.05
1757328995.0728648,-0.418,0.483,9.8,0.8052828835260315,3.729234320923535,1.5730325814536337,0,0.05
1757328995.100562,-0.418,0.483,9.8,0.8052828835260315,3.729234320923535,1.5730325814536337,0,0.05
1757328995.1271806,-0.605,0.34,10.058,0.8058508453802106,3.947096317507127,1.5824060150375936,0,0.05
1757328995.1539676,-0.605,0.34,10.058,0.8058508453802106,3.947096317507127,1.5824060150375936,0,0.05
1757328995.1799996,-0.838,0.237,10.098,0.8069393998312389,4.9290916852194995,1.594085213032581,0,0.05
1757328995.2062976,-0.838,0.237,10.098,0.8069393998312389,4.9290916852194995,1.594085213032581,0,0.05
1757328995.2334526,-0.835,-0.077,9.678,0.8080187234835589,4.951981096244281,1.594235588972431,0,0.05
1757328995.2608256,-0.835,-0.077,9.678,0.8080187234835589,4.951981096244281,1.594235588972431,0,0.05
1757328995.2879736,-1.071,0.231,9.81,0.8097912447044608,6.372662827663343,1.6060651629072678,0,0.05
1757328995.3161998,-1.071,0.231,9.81,0.8097912447044608,6.372662827663343,1.6060651629072678,0,0.05
1757328995.344073,-1.138,0.122,10.02,0.8117878232641828,6.516290917329882,1.6094235588972428,0,0.05
1757328995.3702176,-1.138,0.122,10.02,0.8117878232641828,6.516290917329882,1.6094235588972428,0,0.05
1757328995.39648,-0.97,0.093,9.577,0.8132353410913719,5.8097814193747945,1.617844611528822,0,0.05
1757328995.4229689,-0.97,0.093,9.577,0.8132353410913719,5.8097814193747945,1.617844611528822,0,0.05
1757328995.4491847,-1.195,0.11,9.751,0.8154273618784201,7.016090812140943,1.6291228070175439,0,0.05
1757328995.4767418,-1.195,0.11,9.751,0.8154273618784201,7.016090812140943,1.6291228070175439,0,0.05
1757328995.503872,-0.845,-0.107,9.985,0.8165211846608758,4.875682390656206,1.646666666666667,0,0.05
1757328995.5313687,-0.845,-0.107,9.985,0.8165211846608758,4.875682390656206,1.646666666666667,0,0.05
1757328995.5584655,-1.02,0.153,9.693,0.8181123669765663,6.07386476954194,1.655438596491228,0,0.05
1757328995.5849555,-1.02,0.153,9.693,0.8181123669765663,6.07386476954194,1.655438596491228,0,0.05
1757328995.6117215,-0.834,0.021,9.532,0.8191744228184862,5.001923218864982,1.6647619047619044,0,0.05
1757328995.6379874,-0.834,0.021,9.532,0.8191744228184862,5.001923218864982,1.6647619047619044,0,0.05
1757328995.6652784,-1.382,0.111,9.862,0.8220836605844931,8.002488486897484,1.6922305764411025,0,0.05
1757328995.691685,-1.382,0.111,9.862,0.8220836605844931,8.002488486897484,1.6922305764411025,0,0.05
1757328995.718788,-1.115,-0.113,9.663,0.8239718487302827,6.615587543242689,1.7056140350877191,0,0.05
1757328995.746156,-1.115,-0.113,9.663,0.8239718487302827,6.615587543242689,1.7056140350877191,0,0.05
1757328995.7727365,-1.103,0.608,9.339,0.8258154333747947,7.6806647660943375,1.7062155388471174,0,0.05
1757328995.8003001,-1.103,0.608,9.339,0.8258154333747947,7.6806647660943375,1.7062155388471174,0,0.05
1757328995.8271594,-0.783,0.459,9.784,0.8267429180222834,5.299904333243588,1.722255639097744,0,0.05
1757328995.8538857,-0.783,0.459,9.784,0.8267429180222834,5.299904333243588,1.722255639097744,0,0.05
1757328995.880613,-0.979,0.374,9.791,0.8281907721050749,6.109547291682119,1.732080200501253,0,0.05
1757328995.9072845,-0.979,0.374,9.791,0.8281907721050749,6.109547291682119,1.732080200501253,0,0.05
1757328995.9337704,-1.134,0.185,9.598,0.8301294146095535,6.8264795569270325,1.7398496240601502,0,0.05
1757328995.960461,-1.134,0.185,9.598,0.8301294146095535,6.8264795569270325,1.7398496240601502,0,0.05
1757328995.9869177,-1.378,-0.018,9.776,0.8329838263735977,8.024081985742521,1.752080200501253,0,0.05
1757328996.0133755,-1.378,-0.018,9.776,0.8329838263735977,8.024081985742521,1.752080200501253,0,0.05
1757328996.0400314,-1.204,0.263,9.831,0.8351563296772647,7.145185709710406,1.7608020050125313,0,0.05
1757328996.0667717,-1.204,0.263,9.831,0.8351563296772647,7.145185709710406,1.7608020050125313,0,0.05
1757328996.093935,-1.033,0.045,9.731,0.8367519450231352,6.065277254191932,1.7693734335839597,0,0.05
1757328996.1215532,-1.033,0.045,9.731,0.8367519450231352,6.065277254191932,1.7693734335839597,0,0.05
1757328996.1484146,-1.116,0.078,9.908,0.8386104325012895,6.44204162079585,1.7735338345864662,0,0.05
1757328996.176028,-1.116,0.078,9.908,0.8386104325012895,6.44204162079585,1.7735338345864662,0,0.05
1757328996.2036216,-0.946,0.004,9.875,0.8399433001697199,5.472140602376993,1.7820551378446114,0,0.05
1757328996.231055,-0.946,0.004,9.875,0.8399433001697199,5.472140602376993,1.7820551378446114,0,0.05
1757328996.2585073,-1.041,0.167,9.706,0.841554484273003,6.199423445568579,1.7868170426065162,0,0.05
1757328996.2845776,-1.041,0.167,9.706,0.841554484273003,6.199423445568579,1.7868170426065162,0,0.05
1757328996.311569,-0.954,0.041,9.889,0.8429052378529867,5.515374384730974,1.7911779448621552,0,0.05
1757328996.3387964,-0.954,0.041,9.889,0.8429052378529867,5.515374384730974,1.7911779448621552,0,0.05
1757328996.3656354,-1.397,-0.133,10.063,0.8457944564136136,7.938876728983395,1.8133834586466164,0,0.05
1757328996.3933225,-1.397,-0.133,10.063,0.8457944564136136,7.938876728983395,1.8133834586466164,0,0.05
1757328996.4197779,-1.307,-0.329,9.862,0.8483153216817435,7.782014357664834,1.817894736842105,0,0.05
1757328996.4466286,-1.307,-0.329,9.862,0.8483153216817435,7.782014357664834,1.817894736842105,0,0.05
1757328996.4745982,-0.94,0.09,9.723,0.8496163163452076,5.5471742958743135,1.8362907268170425,0,0.05
1757328996.5021539,-0.94,0.09,9.723,0.8496163163452076,5.5471742958743135,1.8362907268170425,0,0.05
1757328996.5290577,-0.863,-0.229,9.954,0.8507113538092694,5.125669917647551,1.8401503759398496,0,0.05
1757328996.555188,-0.863,-0.229,9.954,0.8507113538092694,5.125669917647551,1.8401503759398496,0,0.05
1757328996.5812547,-0.951,-0.262,9.773,0.85203920684438,5.763586864003143,1.844561403508772,0,0.05
1757328996.607375,-0.951,-0.262,9.773,0.85203920684438,5.763586864003143,1.844561403508772,0,0.05
1757328996.6347532,-0.933,-0.336,9.717,0.853315318331975,5.827083690344621,1.8454636591478695,0,0.05
1757328996.6606092,-0.933,-0.336,9.717,0.853315318331975,5.827083690344621,1.8454636591478695,0,0.05
1757328996.6875942,-1.237,-0.192,9.876,0.8555538878410874,7.22388496498661,1.8607017543859647,0,0.05
1757328996.7156081,-1.237,-0.192,9.876,0.8555538878410874,7.22388496498661,1.8607017543859647,0,0.05
1757328996.7431588,-1.102,-0.082,9.933,0.8573263468481532,6.348054352183877,1.867468671679198,0,0.05
1757328996.7700522,-1.102,-0.082,9.933,0.8573263468481532,6.348054352183877,1.867468671679198,0,0.05
1757328996.7955003,-1.127,-0.365,9.758,0.8591762261026548,6.9219006693416905,1.868721804511278,0,0.05
1757328996.82178,-1.127,-0.365,9.758,0.8591762261026548,6.9219006693416905,1.868721804511278,0,0.05
1757328996.848214,-1.19,-0.18,9.915,0.8612340201710567,6.921012525908016,1.8718796992481204,0,0.05
1757328996.8760405,-1.19,-0.18,9.915,0.8612340201710567,6.921012525908016,1.8718796992481204,0,0.05
1757328996.901668,-1.064,-0.141,9.841,0.8628755863390736,6.22432319802403,1.8781954887218042,0,0.05
1757328996.9273734,-1.064,-0.141,9.841,0.8628755863390736,6.22432319802403,1.8781954887218042,0,0.05
1757328996.953676,-1.227,0.001,9.713,0.8650538133549843,7.19978606792916,1.8863659147869674,0,0.05
1757328996.9816022,-1.227,0.001,9.713,0.8650538133549843,7.19978606792916,1.8863659147869674,0,0.05
1757328997.0080247,-1.259,-0.084,9.881,0.8673412261042364,7.277257841889071,1.8879699248120296,0,0.05
1757328997.034086,-1.259,-0.084,9.881,0.8673412261042364,7.277257841889071,1.8879699248120296,0,0.05
1757328997.0603359,-1.043,0.196,9.761,0.8689076044091224,6.205061072159034,1.8987969924812027,0,0.05
1757328997.0876665,-1.043,0.196,9.761,0.8689076044091224,6.205061072159034,1.8987969924812027,0,0.05
1757328997.1150522,-1.171,0.136,9.86,0.8708780210224621,6.81797410499861,1.9052130325814531,0,0.05
1757328997.1425438,-1.171,0.136,9.86,0.8708780210224621,6.81797410499861,1.9052130325814531,0,0.05
1757328997.1689386,-1.171,0.136,9.86,0.8708780210224621,6.81797410499861,1.9052130325814531,0,0.05
1757328997.1955647,-1.005,-0.248,10.16,0.8723265386310336,5.817479757487879,1.9135338345864656,0,0.05
1757328997.2208552,-1.005,-0.248,10.16,0.8723265386310336,5.817479757487879,1.9135338345864656,0,0.05
1757328997.2472765,-0.846,0.019,9.78,0.8733515214391053,4.945194187036292,1.9215037593984958,0,0.05
1757328997.2741,-0.846,0.019,9.78,0.8733515214391053,4.945194187036292,1.9215037593984958,0,0.05
1757328997.3006556,-0.996,-0.101,9.698,0.8747702098265578,5.893669618666642,1.9290225563909773,0,0.05
1757328997.327145,-0.996,-0.101,9.698,0.8747702098265578,5.893669618666642,1.9290225563909773,0,0.05
1757328997.354233,-0.953,-0.112,9.835,0.8760670308258381,5.572466477498129,1.931177944862155,0,0.05
1757328997.3810515,-0.953,-0.112,9.835,0.8760670308258381,5.572466477498129,1.931177944862155,0,0.05
1757328997.4080515,-1.127,-0.016,9.702,0.87787742025866,6.62653647089232,1.9398997493734336,0,0.05
1757328997.4344733,-1.127,-0.016,9.702,0.87787742025866,6.62653647089232,1.9398997493734336,0,0.05
1757328997.4613936,-1.236,-0.186,9.721,0.8800500014203738,7.326835377236893,1.9453634085213032,0,0.05
1757328997.4877353,-1.236,-0.186,9.721,0.8800500014203738,7.326835377236893,1.9453634085213032,0,0.05
1757328997.513976,-0.964,-0.314,9.777,0.8813689607650136,5.920266904729216,1.9589974937343357,0,0.05
1757328997.5410125,-0.964,-0.314,9.777,0.8813689607650136,5.920266904729216,1.9589974937343357,0,0.05
1757328997.567112,-1.069,-0.144,9.82,0.882988192163406,6.268392694913608,1.9642606516290726,0,0.05
1757328997.5931897,-1.069,-0.144,9.82,0.882988192163406,6.268392694913608,1.9642606516290726,0,0.05
1757328997.6196966,-0.892,-0.104,9.73,0.8841138543762336,5.273244748036511,1.9731328320802004,0,0.05
1757328997.645724,-0.892,-0.104,9.73,0.8841138543762336,5.273244748036511,1.9731328320802004,0,0.05
1757328997.6722312,-0.89,-0.074,9.861,0.8852330526477195,5.174930503567674,1.9732330827067668,0,0.05
1757328997.698644,-0.89,-0.074,9.861,0.8852330526477195,5.174930503567674,1.9732330827067668,0,0.05
1757328997.7245624,-1.007,0.128,9.554,0.8866637919752898,6.064862894673679,1.9790977443609021,0,0.05
1757328997.7515488,-1.007,0.128,9.554,0.8866637919752898,6.064862894673679,1.9790977443609021,0,0.05
1757328997.7775867,-1.232,-0.004,9.707,0.8888010126006832,7.233271554744194,1.990375939849624,0,0.05
1757328997.8036747,-1.232,-0.004,9.707,0.8888010126006832,7.233271554744194,1.990375939849624,0,0.05
1757328997.8298092,-1.219,-0.238,9.82,0.8908884006989876,7.208396087833223,1.9910275689223056,0,0.05
1757328997.8557541,-1.219,-0.238,9.82,0.8908884006989876,7.208396087833223,1.9910275689223056,0,0.05
1757328997.8817928,-1.328,0.076,9.705,0.8933594475349774,7.804365258120626,1.9964912280701752,0,0.05
1757328997.9086657,-1.328,0.076,9.705,0.8933594475349774,7.804365258120626,1.9964912280701752,0,0.05
1757328997.935835,-0.919,0.036,9.628,0.8945403875734175,5.456564137759365,2.0169924812030073,0,0.05
1757328997.9644566,-0.919,0.036,9.628,0.8945403875734175,5.456564137759365,2.0169924812030073,0,0.05
1757328997.9927208,-1.056,-0.398,9.753,0.8960972854551006,6.600299669979198,2.023859649122807,0,0.05
1757328998.0202446,-1.056,-0.398,9.753,0.8960972854551006,6.600299669979198,2.023859649122807,0,0.05
1757328998.047659,-0.752,-0.027,9.625,0.8968857814682981,4.470303335781023,2.039097744360902,0,0.05
1757328998.0743332,-0.752,-0.027,9.625,0.8968857814682981,4.470303335781023,2.039097744360902,0,0.05
1757328998.1009383,-0.726,0.078,9.697,0.8976200727479304,4.306210049943788,2.0404010025062655,0,0.05
1757328998.1280286,-0.726,0.078,9.697,0.8976200727479304,4.306210049943788,2.0404010025062655,0,0.05
1757328998.1557076,-0.857,0.311,9.918,0.8986422633617895,5.251999712621702,2.046967418546366,0,0.05
1757328998.1823835,-0.857,0.311,9.918,0.8986422633617895,5.251999712621702,2.046967418546366,0,0.05
1757328998.2099407,-0.863,0.216,9.737,0.8996776311546264,5.220333649135683,2.047268170426065,0,0.05
1757328998.237569,-0.863,0.216,9.737,0.8996776311546264,5.220333649135683,2.047268170426065,0,0.05
1757328998.2639897,-1.061,0.095,9.66,0.9012403355931202,6.292796098068182,2.05719298245614,0,0.05
1757328998.2902381,-1.061,0.095,9.66,0.9012403355931202,6.292796098068182,2.05719298245614,0,0.05
1757328998.3162644,-0.7,-0.077,9.817,0.9019196984765329,4.103083011360667,2.0752882205513785,0,0.05
1757328998.3422232,-0.7,-0.077,9.817,0.9019196984765329,4.103083011360667,2.0752882205513785,0,0.05
1757328998.3694758,-0.7,-0.077,9.817,0.9019196984765329,4.103083011360667,2.0752882205513785,0,0.05
1757328998.396669,-0.881,-0.009,9.578,0.9029947646581346,5.255643622717711,2.0843609022556393,0,0.05
1757328998.4229963,-1.018,-0.054,9.444,0.9044281922850481,6.160929297117463,2.091228070175439,0,0.05
1757328998.449121,-1.018,-0.054,9.444,0.9044281922850481,6.160929297117463,2.091228070175439,0,0.05
1757328998.4762468,-1.128,-0.058,9.741,0.906185033533439,6.614034174676804,2.0967418546365915,0,0.05
1757328998.5081654,-1.128,-0.058,9.741,0.906185033533439,6.614034174676804,2.0967418546365915,0,0.05
1757328998.5340269,-0.884,-0.548,9.807,0.9072623407813201,6.053848468754334,2.108972431077694,0,0.05
1757328998.5595765,-0.884,-0.548,9.807,0.9072623407813201,6.053848468754334,2.108972431077694,0,0.05
1757328998.5851412,-1.028,-0.017,9.476,0.9087171809754673,6.19233598036468,2.1161904761904764,0,0.05
1757328998.6105635,-1.028,-0.017,9.476,0.9087171809754673,6.19233598036468,2.1161904761904764,0,0.05
1757328998.6365666,-0.702,-0.1,9.692,0.9093948124989498,4.1844222188030304,2.132531328320802,0,0.05
1757328998.662212,-0.702,-0.1,9.692,0.9093948124989498,4.1844222188030304,2.132531328320802,0,0.05
1757328998.6877136,-1.156,0.14,9.939,0.9112298091041579,6.682272337112593,2.155288220551378,0,0.05
1757328998.7134213,-1.156,0.14,9.939,0.9112298091041579,6.682272337112593,2.155288220551378,0,0.05
1757328998.739953,-1.115,0.061,9.689,0.9129336380591966,6.574392002675355,2.15734335839599,0,0.05
1757328998.7662745,-1.115,0.061,9.689,0.9129336380591966,6.574392002675355,2.15734335839599,0,0.05
1757328998.7921078,-0.994,0.124,9.618,0.9142854682756365,5.945858540820942,2.163408521303258,0,0.05
1757328998.8184655,-0.994,0.124,9.618,0.9142854682756365,5.945858540820942,2.163408521303258,0,0.05
1757328998.8446996,-1.075,-0.101,9.864,0.9158640619655299,6.246846182934986,2.167468671679198,0,0.05
1757328998.8722575,-1.075,-0.101,9.864,0.9158640619655299,6.246846182934986,2.167468671679198,0,0.05
1757328998.8982975,-1.075,-0.101,9.864,0.9158640619655299,6.246846182934986,2.167468671679198,0,0.05
1757328998.9240847,-1.043,-0.259,9.623,0.9173475908836302,6.372269878222927,2.16907268170426,0,0.05
1757328998.9518745,-0.998,-0.106,9.672,0.9187037675442504,5.924085915703284,2.171328320802005,0,0.1
1757328998.9787683,-0.998,-0.106,9.672,0.9187037675442504,5.924085915703284,2.171328320802005,0,0.1
1757328999.0046785,-0.857,-0.237,9.916,0.9197025252765157,5.1240043413584395,2.1783959899749368,0,0.1
1757328999.0304255,-0.857,-0.237,9.916,0.9197025252765157,5.1240043413584395,2.1783959899749368,0,0.1
1757328999.0572891,-0.857,-0.237,9.916,0.9197025252765157,5.1240043413584395,2.1783959899749368,0,0.1
1757328999.0847354,-0.978,-0.348,9.483,0.9210015988042584,6.247086182381049,2.1844611528822058,0,0.1
1757328999.1123326,-1.238,-0.101,9.435,0.9230793871601727,7.499831692329011,2.1974937343358394,0,0.1
1757328999.1389697,-1.238,-0.101,9.435,0.9230793871601727,7.499831692329011,2.1974937343358394,0,0.1
1757328999.164929,-1.238,-0.101,9.435,0.9230793871601727,7.499831692329011,2.1974937343358394,0,0.1
1757328999.1906774,-0.926,-0.111,9.707,0.924239820068363,5.488018282853148,2.2131328320802,0,0.1
1757328999.2163756,-0.926,-0.111,9.707,0.924239820068363,5.488018282853148,2.2131328320802,0,0.1
1757328999.2430134,-1.003,0.033,9.548,0.9255994098420763,6.000044432660978,2.2169924812030075,0,0.1
1757328999.2698267,-1.003,0.033,9.548,0.9255994098420763,6.000044432660978,2.2169924812030075,0,0.1
1757328999.296332,-0.867,0.297,9.312,0.9266139919081732,5.620780290014009,2.223809523809524,0,0.1
1757328999.3218784,-0.867,0.297,9.312,0.9266139919081732,5.620780290014009,2.223809523809524,0,0.1
1757328999.3474834,-0.929,0.245,9.656,0.9277775016133987,5.682176008465416,2.2269172932330825,0,0.1
1757328999.3729725,-0.929,0.245,9.656,0.9277775016133987,5.682176008465416,2.2269172932330825,0,0.1
1757328999.3994584,-0.927,0.174,9.514,0.9289345590513898,5.661628234093935,2.227017543859649,0,0.1
1757328999.424935,-0.927,0.174,9.514,0.9289345590513898,5.661628234093935,2.227017543859649,0,0.1
1757328999.4510586,-1.02,0.092,9.213,0.9303334966559035,6.343103278073511,2.2316791979949873,0,0.1
1757328999.4766943,-1.02,0.092,9.213,0.9303334966559035,6.343103278073511,2.2316791979949873,0,0.1
1757328999.5028846,-0.935,0.225,9.551,0.9315073684625367,5.7497392275194725,2.23593984962406,0,0.1
1757328999.5293725,-0.935,0.225,9.551,0.9315073684625367,5.7497392275194725,2.23593984962406,0,0.1
1757328999.556727,-0.946,0.202,9.64,0.9327074930008872,5.730166221907033,2.236491228070175,0,0.1
1757328999.5836184,-0.946,0.202,9.64,0.9327074930008872,5.730166221907033,2.236491228070175,0,0.1
1757328999.6096845,-1.041,0.237,9.386,0.9341586963680207,6.48938143789051,2.24125313283208,0,0.1
1757328999.6373866,-1.041,0.237,9.386,0.9341586963680207,6.48938143789051,2.24125313283208,0,0.1
1757328999.6654918,-0.88,0.219,9.688,0.9351943487853207,5.34756586363076,2.2493233082706765,0,0.1
1757328999.6921113,-0.88,0.219,9.688,0.9351943487853207,5.34756586363076,2.2493233082706765,0,0.1
1757328999.718961,-0.878,0.315,9.726,0.9362241611921794,5.4783388696665085,2.249423558897243,0,0.1
1757328999.7464674,-0.878,0.315,9.726,0.9362241611921794,5.4783388696665085,2.249423558897243,0,0.1
1757328999.7725234,-0.99,0.181,9.512,0.9375318287930282,6.039666354543068,2.2550375939849623,0,0.1
1757328999.7989366,-0.99,0.181,9.512,0.9375318287930282,6.039666354543068,2.2550375939849623,0,0.1
1757328999.8261058,-1.147,0.383,9.709,0.9392842767235061,7.099623815074817,2.2629072681704256,0,0.1
1757328999.8526952,-1.147,0.383,9.709,0.9392842767235061,7.099623815074817,2.2629072681704256,0,0.1
1757328999.8788397,-1.007,0.356,9.864,0.9406328056154537,6.179918156277274,2.2699248120300752,0,0.1
1757328999.9068244,-1.007,0.356,9.864,0.9406328056154537,6.179918156277274,2.2699248120300752,0,0.1
1757328999.9333766,-1.093,0.114,9.731,0.9422190284111227,6.443156659677525,2.274235588972431,0,0.1
1757328999.9597757,-1.093,0.114,9.731,0.9422190284111227,6.443156659677525,2.274235588972431,0,0.1
1757328999.986297,-0.78,0.414,9.644,0.9430258201661288,5.231745005436578,2.2899248120300753,0,0.1
1757329000.0130298,-0.78,0.414,9.644,0.9430258201661288,5.231745005436578,2.2899248120300753,0,0.1
1757329000.0398648,-0.997,0.202,9.986,0.9443424802475,5.816563486540177,2.3008020050125317,0,0.1
1757329000.0667918,-0.997,0.202,9.986,0.9443424802475,5.816563486540177,2.3008020050125317,0,0.1
1757329000.0935733,-0.985,0.446,9.787,0.9456258681423642,6.304473006639615,2.30140350877193,0,0.1
1757329000.1213489,-0.985,0.446,9.787,0.9456258681423642,6.304473006639615,2.30140350877193,0,0.1
1757329000.1482756,-1.122,0.275,9.798,0.9472884948631013,6.724276946682622,2.308270676691729,0,0.1
1757329000.176233,-1.122,0.275,9.798,0.9472884948631013,6.724276946682622,2.308270676691729,0,0.1
1757329000.203478,-1.161,0.146,9.858,0.9490654850957335,6.769331605210958,2.3102255639097744,0,0.1
1757329000.2312822,-1.161,0.146,9.858,0.9490654850957335,6.769331605210958,2.3102255639097744,0,0.1
1757329000.2578537,-1.022,0.361,9.786,0.9504401638188488,6.320243120616075,2.3171929824561404,0,0.1
1757329000.2843041,-1.022,0.361,9.786,0.9504401638188488,6.320243120616075,2.3171929824561404,0,0.1
1757329000.3110917,-1.153,0.084,9.646,0.9521869708728428,6.834199561014838,2.3237593984962404,0,0.1
1757329000.3379078,-1.153,0.084,9.646,0.9521869708728428,6.834199561014838,2.3237593984962404,0,0.1
1757329000.3660645,-1.091,0.174,9.848,0.9537482529472858,6.400907971674401,2.326867167919799,0,0.1
1757329000.3943489,-1.091,0.174,9.848,0.9537482529472858,6.400907971674401,2.326867167919799,0,0.1
1757329000.421871,-1.05,0.072,9.549,0.9551921168016412,6.289603746779756,2.3289223057644106,0,0.1
1757329000.449555,-1.05,0.072,9.549,0.9551921168016412,6.289603746779756,2.3289223057644106,0,0.1
1757329000.4770865,-1.075,0.075,9.597,0.9567032154748932,6.406704100722633,2.330175438596491,0,0.1
1757329000.5037487,-1.075,0.075,9.597,0.9567032154748932,6.406704100722633,2.330175438596491,0,0.1
1757329000.5300457,-1.076,0.011,9.832,0.9582147371544648,6.245837215366331,2.3302255639097744,0,0.1
1757329000.5555873,-1.076,0.011,9.832,0.9582147371544648,6.245837215366331,2.3302255639097744,0,0.1
1757329000.5823848,-1.287,0.12,9.556,0.960373055119728,7.703299741711513,2.340802005012531,0,0.1
1757329000.6093974,-1.287,0.12,9.556,0.960373055119728,7.703299741711513,2.340802005012531,0,0.1
1757329000.6366975,-1.173,-0.22,9.614,0.9621622667201204,7.076322335963905,2.346516290726817,0,0.1
1757329000.6637578,-1.173,-0.22,9.614,0.9621622667201204,7.076322335963905,2.346516290726817,0,0.1
1757329000.6905925,-1.07,0.226,9.699,0.9636485238405132,6.43319157615759,2.351679197994987,0,0.1
1757329000.7179317,-1.07,0.226,9.699,0.9636485238405132,6.43319157615759,2.351679197994987,0,0.1
1757329000.744357,-0.933,0.054,9.552,0.9647770208706259,5.587996220238198,2.358546365914787,0,0.1
1757329000.7716684,-0.933,0.054,9.552,0.9647770208706259,5.587996220238198,2.358546365914787,0,0.1
1757329000.7988162,-1.181,-0.338,9.5,0.9665824344048468,7.367857514568879,2.370977443609022,0,0.1
1757329000.8260076,-1.181,-0.338,9.5,0.9665824344048468,7.367857514568879,2.370977443609022,0,0.1
1757329000.852772,-1.131,-0.237,9.399,0.9682352529215201,7.009084255653995,2.3734837092731826,0,0.1
1757329000.880235,-1.131,-0.237,9.399,0.9682352529215201,7.009084255653995,2.3734837092731826,0,0.1
1757329000.906265,-1.249,-0.041,9.528,0.9702471373315151,7.472144358400088,2.379398496240601,0,0.1
1757329000.9339006,-1.249,-0.041,9.528,0.9702471373315151,7.472144358400088,2.379398496240601,0,0.1
1757329000.961587,-1.217,-0.009,9.696,0.9721533983893694,7.1542996333094875,2.3810025062656637,0,0.1
1757329000.9890022,-1.217,-0.009,9.696,0.9721533983893694,7.1542996333094875,2.3810025062656637,0,0.1
1757329001.0158064,-0.985,-0.07,9.78,0.9734001194267443,5.765600424798652,2.392631578947368,0,0.1
1757329001.042506,-0.985,-0.07,9.78,0.9734001194267443,5.765600424798652,2.392631578947368,0,0.1
1757329001.0690987,-1.014,0.16,9.817,0.9747195917288213,5.969619270581288,2.3940852130325814,0,0.1
1757329001.0960224,-1.014,0.16,9.817,0.9747195917288213,5.969619270581288,2.3940852130325814,0,0.1
1757329001.1225438,-1.026,0.102,9.781,0.9760686310398464,6.017573280618862,2.3946867167919796,0,0.1
1757329001.148514,-1.026,0.102,9.781,0.9760686310398464,6.017573280618862,2.3946867167919796,0,0.1
1757329001.1752534,-1.237,-0.013,9.765,0.9780262752094138,7.21999277258883,2.4052631578947365,0,0.1
1757329001.2020266,-1.237,-0.013,9.765,0.9780262752094138,7.21999277258883,2.4052631578947365,0,0.1
1757329001.2293742,-1.374,0.19,9.554,0.9804361707933872,8.260634081045128,2.412130325814536,0,0.1
1757329001.2574856,-1.374,0.19,9.554,0.9804361707933872,8.260634081045128,2.412130325814536,0,0.1
1757329001.2835252,-1.382,0.06,9.673,0.9828681981832559,8.138488402543649,2.4125313283208016,0,0.1
1757329001.310476,-1.382,0.06,9.673,0.9828681981832559,8.138488402543649,2.4125313283208016,0,0.1
1757329001.3380747,-1.18,0.046,9.874,0.9846374434277827,6.819984117454641,2.42265664160401,0,3.1
1757329001.365541,-1.18,0.046,9.874,0.9846374434277827,6.819984117454641,2.42265664160401,0,3.1
1757329001.3922012,-1.18,0.046,9.874,0.9846374434277827,6.819984117454641,2.42265664160401,0,3.1
1757329001.4198973,-0.928,0.008,9.676,0.9857301126576179,5.478535567155268,2.435288220551378,0,3.1
1757329001.4469647,-1.269,0.036,9.674,0.9877700934428011,7.476154394585563,2.4523809523809526,0,3.1
1757329001.4729939,-1.269,0.036,9.674,0.9877700934428011,7.476154394585563,2.4523809523809526,0,3.1
1757329001.5001664,-1.099,0.141,9.734,0.9892973567133393,6.493950454852335,2.4609022556390974,0,3.1
1757329001.5270154,-1.099,0.141,9.734,0.9892973567133393,6.493950454852335,2.4609022556390974,0,3.1
1757329001.5542178,-1.135,0.278,9.692,0.9909237218373572,6.874881828301308,2.462706766917293,0,3.1
1757329001.581077,-1.135,0.278,9.692,0.9909237218373572,6.874881828301308,2.462706766917293,0,3.1
1757329001.609083,-1.41,0.098,9.631,0.9934284435730637,8.348870330077318,2.4764912280701754,0,3.1
1757329001.6365044,-1.41,0.098,9.631,0.9934284435730637,8.348870330077318,2.4764912280701754,0,3.1
1757329001.662768,-1.291,0.002,9.739,0.9955233673801935,7.551102500228351,2.482456140350877,0,3.1
1757329001.6888108,-1.291,0.002,9.739,0.9955233673801935,7.551102500228351,2.482456140350877,0,3.1
1757329001.7145164,-1.244,-0.266,9.884,0.9974645933565762,7.333939968749395,2.4357894736842107,0,3.1
1757329001.7409656,-1.244,-0.266,9.884,0.9974645933565762,7.333939968749395,2.4357894736842107,0,3.1
1757329001.7666166,-1.118,-0.191,9.765,0.9978322579471963,6.625178667269026,2.440852130325814,0,3.1
1757329001.7922335,-1.118,-0.191,9.765,0.9978322579471963,6.625178667269026,2.440852130325814,0,3.1
1757329001.8179326,-1.188,-0.062,9.886,0.9984623440571007,6.861608211851821,2.4429072681704254,0,3.1
1757329001.8445284,-1.188,-0.062,9.886,0.9984623440571007,6.861608211851821,2.4429072681704254,0,3.1
1757329001.8707728,-0.652,0.133,9.964,0.9979255345465412,3.820717102920484,2.469674185463659,0,3.1
1757329001.897669,-0.652,0.133,9.964,0.9979255345465412,3.820717102920484,2.469674185463659,0,3.1
1757329001.923474,-0.937,0.08,9.787,0.9979604626436861,5.488561431187465,2.483508771929824,0,3.1
1757329001.949064,-0.937,0.08,9.787,0.9979604626436861,5.488561431187465,2.483508771929824,0,3.1
1757329001.9764242,-0.977,-0.478,9.673,0.9980703908041756,6.415578464342098,2.485413533834586,0,3.1
1757329002.0032973,-0.977,-0.478,9.673,0.9980703908041756,6.415578464342098,2.485413533834586,0,3.1
1757329002.031038,-1.269,0.157,9.774,0.9990059083909364,7.453341937655516,2.49859649122807,0,3.1
1757329002.0569184,-1.269,0.157,9.774,0.9990059083909364,7.453341937655516,2.49859649122807,0,3.1
1757329002.083254,-1.297,-0.143,9.723,0.9999619580264041,7.643616546011285,2.4992982456140345,0,3.1
1757329002.1101332,-1.297,-0.143,9.723,0.9999619580264041,7.643616546011285,2.4992982456140345,0,3.1
1757329002.1362689,-0.964,0.441,9.474,0.9999425971024536,6.38449552698383,2.515639097744361,0,3.1
1757329002.1622112,-0.964,0.441,9.474,0.9999425971024536,6.38449552698383,2.515639097744361,0,3.1
1757329002.1880925,-0.964,0.441,9.474,0.9999425971024536,6.38449552698383,2.515639097744361,0,3.1
1757329002.2155633,-1.046,0.068,9.634,1.0001121862071274,6.209525958862563,2.5193984962406013,0,3.1
1757329002.2430801,-1.046,0.068,9.634,1.0001121862071274,6.209525958862563,2.5193984962406013,0,3.1
1757329002.2701447,-1.13,0.01,9.671,1.0005271985308546,6.664717260413772,2.522305764411027,0,3.1
1757329002.2971807,-1.13,0.01,9.671,1.0005271985308546,6.664717260413772,2.522305764411027,0,3.1
1757329002.3231578,-1.315,0.163,9.498,1.0015689928806701,7.942060237514276,2.530426065162907,0,3.1
1757329002.3509078,-1.315,0.163,9.498,1.0015689928806701,7.942060237514276,2.530426065162907,0,3.1
1757329002.3786798,-1.16,0.024,9.609,1.0021849255501702,6.884905201285936,2.537994987468671,0,3.1
1757329002.4047396,-1.16,0.024,9.609,1.0021849255501702,6.884905201285936,2.537994987468671,0,3.1
1757329002.4318395,-1.303,0.11,9.77,1.0032485958126232,7.62326847186799,2.545062656641604,0,3.1
1757329002.4592278,-1.303,0.11,9.77,1.0032485958126232,7.62326847186799,2.545062656641604,0,3.1
1757329002.4874837,-1.197,0.202,9.481,1.003976675525881,7.296316733024743,2.54922305764411,0,3.1
1757329002.5144322,-1.197,0.202,9.481,1.003976675525881,7.296316733024743,2.54922305764411,0,3.1
1757329002.5415092,-1.189,0.242,9.696,1.0046271086826197,7.133031028668069,2.5483709273182957,0,3.1
1757329002.5674412,-1.189,0.242,9.696,1.0046271086826197,7.133031028668069,2.5483709273182957,0,3.1
1757329002.5939133,-1.004,0.146,9.511,1.0047130261920565,6.088845846867474,2.5566917293233082,0,3.1
1757329002.6208563,-1.004,0.146,9.511,1.0047130261920565,6.088845846867474,2.5566917293233082,0,3.1
1757329002.6473694,-1.083,0.032,9.352,1.0049577739885394,6.60852021673872,2.560501253132832,0,3.1
1757329002.6741865,-1.083,0.032,9.352,1.0049577739885394,6.60852021673872,2.560501253132832,0,3.1
1757329002.701016,-0.943,-0.13,9.532,1.0048570482909498,5.702966879990222,2.5666165413533832,0,3.1
1757329002.727806,-0.943,-0.13,9.532,1.0048570482909498,5.702966879990222,2.5666165413533832,0,3.1
1757329002.7552254,-1.338,-0.097,9.636,1.0059202627445178,7.925701426662122,2.5854636591478695,0,3.1
1757329002.7814615,-1.338,-0.097,9.636,1.0059202627445178,7.925701426662122,2.5854636591478695,0,3.1
1757329002.8076894,-1.308,-0.142,9.51,1.0069289821035046,7.876732033360252,2.5856641604010027,0,3.1
1757329002.8337686,-1.308,-0.142,9.51,1.0069289821035046,7.876732033360252,2.5856641604010027,0,3.1
1757329002.8597562,-0.997,-0.114,9.579,1.007107634515795,5.980493631462169,2.600250626566416,0,3.1
1757329002.8860064,-0.997,-0.114,9.579,1.007107634515795,5.980493631462169,2.600250626566416,0,3.1
1757329002.911836,-1.26,-0.076,9.617,1.008067843699024,7.477674294986745,2.6120802005012527,0,3.1
1757329002.9377794,-1.26,-0.076,9.617,1.008067843699024,7.477674294986745,2.6120802005012527,0,3.1
1757329002.9636774,-1.233,-0.42,9.571,1.0088824993526253,7.750083569444238,2.613333333333333,0,3.1
1757329002.990806,-1.233,-0.42,9.571,1.0088824993526253,7.750083569444238,2.613333333333333,0,3.1
1757329003.0171816,-0.93,-0.022,9.577,1.0088801935809821,5.548010148506025,2.627017543859649,0,3.1
1757329003.0436738,-0.93,-0.022,9.577,1.0088801935809821,5.548010148506025,2.627017543859649,0,3.1
1757329003.0703769,-0.977,0.025,9.724,1.0089186116828255,5.739293167495535,2.6284210526315785,0,3.1
1757329003.097418,-0.977,0.025,9.724,1.0089186116828255,5.739293167495535,2.6284210526315785,0,3.1
1757329003.1240563,-1.159,-0.143,9.586,1.0093928707396342,6.945678704395006,2.637293233082706,0,3.1
1757329003.1497657,-1.159,-0.143,9.586,1.0093928707396342,6.945678704395006,2.637293233082706,0,3.1
1757329003.1753569,-1.168,-0.043,9.729,1.0099049286937856,6.850385885111671,2.6376942355889725,0,3.1
1757329003.201009,-1.168,-0.043,9.729,1.0099049286937856,6.850385885111671,2.6376942355889725,0,3.1
1757329003.227302,-0.958,-0.128,9.759,1.0098618395602441,5.656023743774615,2.6471679197994984,0,3.1
1757329003.2537324,-0.958,-0.128,9.759,1.0098618395602441,5.656023743774615,2.6471679197994984,0,3.1
1757329003.2802038,-1.112,0.103,9.564,1.0102634470770484,6.660099167837337,2.653533834586466,0,3.1
1757329003.3061311,-1.112,0.103,9.564,1.0102634470770484,6.660099167837337,2.653533834586466,0,3.1
1757329003.331701,-1.035,0.14,9.686,1.0105232976037712,6.154332480424588,2.6567418546365915,0,3.1
1757329003.35838,-1.035,0.14,9.686,1.0105232976037712,6.154332480424588,2.6567418546365915,0,3.1
1757329003.3844512,-1.07,0.108,9.864,1.0108441435255981,6.2221778212548955,2.6581954887218044,0,3.1
1757329003.4115508,-1.07,0.108,9.864,1.0108441435255981,6.2221778212548955,2.6581954887218044,0,3.1
1757329003.438292,-1.201,-0.118,9.517,1.0115465004140938,7.226701336397629,2.664411027568922,0,3.1
1757329003.465684,-1.201,-0.118,9.517,1.0115465004140938,7.226701336397629,2.664411027568922,0,3.1
1757329003.4923387,-1.254,-0.056,9.666,1.0123928103754984,7.399158052899784,2.6661654135338346,0,3.1
1757329003.5185704,-1.254,-0.056,9.666,1.0123928103754984,7.399158052899784,2.6661654135338346,0,3.1
1757329003.5457158,-1.254,-0.056,9.666,1.0123928103754984,7.399158052899784,2.6661654135338346,0,3.1
1757329003.5724664,-0.996,-0.12,9.517,1.0124797491801998,6.017421737732444,2.67859649122807,0,3.1
1757329003.5999887,-1.342,-0.218,9.392,1.0135410216167868,8.23694998563761,2.6954887218045114,0,3.1
1757329003.6257823,-1.342,-0.218,9.392,1.0135410216167868,8.23694998563761,2.6954887218045114,0,3.1
1757329003.6513898,-1.259,-0.322,9.62,1.0143135622183113,7.693272878735913,2.699548872180451,0,3.1
1757329003.6782389,-1.259,-0.322,9.62,1.0143135622183113,7.693272878735913,2.699548872180451,0,3.1
1757329003.7052636,-1.586,-0.345,9.493,1.0162352926365035,9.702473213133144,2.714837092731829,0,3.1
1757329003.73325,-1.586,-0.345,9.493,1.0162352926365035,9.702473213133144,2.714837092731829,0,3.1
1757329003.75924,-1.256,-0.56,9.444,1.0170535617655543,8.284882121989762,2.7304260651629075,0,3.1
1757329003.7856007,-1.256,-0.56,9.444,1.0170535617655543,8.284882121989762,2.7304260651629075,0,3.1
1757329003.8117664,-0.811,-0.143,9.592,1.0167851346277639,4.907034324880129,2.7526817042606515,0,3.1
1757329003.8394167,-0.811,-0.143,9.592,1.0167851346277639,4.907034324880129,2.7526817042606515,0,3.1
1757329003.866289,-1.024,-0.231,9.768,1.0169994530480337,6.133830625217049,2.7629573934837093,0,3.1
1757329003.8927915,-1.024,-0.231,9.768,1.0169994530480337,6.133830625217049,2.7629573934837093,0,3.1
1757329003.919935,-1.024,-0.231,9.768,1.0169994530480337,6.133830625217049,2.7629573934837093,0,3.1
1757329003.9470994,-1.134,-0.218,9.53,1.01752368768496,6.908931311298765,2.7665664160401007,0,3.1
1757329003.974921,-1.134,-0.218,9.53,1.01752368768496,6.908931311298765,2.7665664160401007,0,3.1
1757329004.0024278,-1.042,-0.092,9.553,1.0177135169093512,6.24899177200261,2.770375939849624,0,3.1
1757329004.0297086,-1.268,-0.071,9.619,1.0185059940913455,7.521199163843018,2.781152882205513,0,3.1
1757329004.0568652,-1.268,-0.071,9.619,1.0185059940913455,7.521199163843018,2.781152882205513,0,3.1
1757329004.0835526,-1.116,-0.087,9.643,1.0188267468024188,6.62141632873809,2.7885714285714283,0,3.1
1757329004.1111717,-1.116,-0.087,9.643,1.0188267468024188,6.62141632873809,2.7885714285714283,0,3.1
1757329004.1390512,-1.447,-0.428,9.756,1.0201970900272161,8.792327254579348,2.8050125313283205,0,3.1
1757329004.1674016,-1.447,-0.428,9.756,1.0201970900272161,8.792327254579348,2.8050125313283205,0,3.1
1757329004.1951137,-1.319,-0.07,9.897,1.0211250180560654,7.601788404820205,2.809273182957393,0,0.05
1757329004.2233214,-1.319,-0.07,9.897,1.0211250180560654,7.601788404820205,2.809273182957393,0,0.05
1757329004.256886,-1.063,-0.203,9.863,1.0214080795646763,6.261684718932599,2.8207017543859645,0,0.05
1757329004.284141,-1.063,-0.203,9.863,1.0214080795646763,6.261684718932599,2.8207017543859645,0,0.05
1757329004.3135598,-0.826,-0.085,9.854,1.0212072047336915,4.8167346494127745,2.8324812030075184,0,0.05
1757329004.3442411,-0.826,-0.085,9.854,1.0212072047336915,4.8167346494127745,2.8324812030075184,0,0.05
1757329004.371039,-0.896,-0.374,10.099,1.021158354517065,5.4915689204448785,2.8353884711779447,0,0.05
1757329004.3975554,-0.896,-0.374,10.099,1.021158354517065,5.4915689204448785,2.8353884711779447,0,0.05
1757329004.4240463,-1.063,0.07,9.906,1.0214827739614605,6.138062244230184,2.843107769423559,0,0.05
1757329004.451043,-1.063,0.07,9.906,1.0214827739614605,6.138062244230184,2.843107769423559,0,0.05
1757329004.478637,-1.407,-0.003,9.802,1.0228162383830246,8.168579151815623,2.859248120300751,0,0.05
1757329004.5061555,-1.407,-0.003,9.802,1.0228162383830246,8.168579151815623,2.859248120300751,0,0.05
1757329004.533575,-1.305,-0.209,10.066,1.0237590329271824,7.479946545060579,2.8638095238095236,0,0.05
1757329004.5606508,-1.305,-0.209,10.066,1.0237590329271824,7.479946545060579,2.8638095238095236,0,0.05
1757329004.5884814,-1.477,0.155,9.928,1.025258474727227,8.507684043732805,2.87187969924812,0,0.05
1757329004.6154137,-1.477,0.155,9.928,1.025258474727227,8.507684043732805,2.87187969924812,0,0.05
1757329004.6423666,-1.319,-0.079,9.864,1.0262437722100926,7.629817368215978,2.8795989974937344,0,0.05
1757329004.6695695,-1.319,-0.079,9.864,1.0262437722100926,7.629817368215978,2.8795989974937344,0,0.05
1757329004.695546,-1.189,-0.203,10.03,1.0268406789760522,6.857441454463247,2.885513784461153,0,0.05
1757329004.7234666,-1.189,-0.203,10.03,1.0268406789760522,6.857441454463247,2.885513784461153,0,0.05
1757329004.7507207,-0.982,-0.134,9.908,1.0269182477198464,5.7123130715106205,2.895037593984962,0,0.05
1757329004.7784367,-0.982,-0.134,9.908,1.0269182477198464,5.7123130715106205,2.895037593984962,0,0.05
1757329004.806691,-0.968,-0.033,9.784,1.027001503163457,5.653547837986464,2.8956390977443607,0,0.05
1757329004.8344707,-0.968,-0.033,9.784,1.027001503163457,5.653547837986464,2.8956390977443607,0,0.05
1757329004.8615782,-1.139,0.01,9.881,1.027527683325369,6.575813105540493,2.9034586466165413,0,0.05
1757329004.8886354,-1.139,0.01,9.881,1.027527683325369,6.575813105540493,2.9034586466165413,0,0.05
1757329004.9157307,-1.21,-0.007,9.711,1.0282221683566253,7.10262176691116,2.9063659147869676,0,0.05
1757329004.9618108,-1.28,-0.11,9.661,1.0290978658514456,7.574740412613151,2.9078195488721805,0,0.05
1757329004.9896953,-1.28,-0.11,9.661,1.0290978658514456,7.574740412613151,2.9078195488721805,0,0.05
1757329005.0154452,-1.117,0.169,9.76,1.029401106226334,6.602559433448323,2.91593984962406,0,0.05
1757329005.041225,-1.117,0.169,9.76,1.029401106226334,6.602559433448323,2.91593984962406,0,0.05
1757329005.0682583,-1.131,-0.032,9.591,1.0297448858819354,6.728100451212616,2.9165914786967413,0,0.05
1757329005.0955162,-1.131,-0.032,9.591,1.0297448858819354,6.728100451212616,2.9165914786967413,0,0.05
1757329005.121569,-1.287,0.102,9.516,1.0305437642332322,7.726144958648218,2.923458646616541,0,0.05
1757329005.1482713,-1.287,0.102,9.516,1.0305437642332322,7.726144958648218,2.923458646616541,0,0.05
1757329005.174742,-1.078,0.09,9.758,1.0307883681920358,6.325854807233779,2.932982456140351,0,0.05
1757329005.2015054,-1.078,0.09,9.758,1.0307883681920358,6.325854807233779,2.932982456140351,0,0.05
1757329005.2293048,-1.078,0.09,9.758,1.0307883681920358,6.325854807233779,2.932982456140351,0,0.05
1757329005.2566772,-1.2,-0.201,9.662,1.0314144935475746,7.177368487308393,2.9379949874686724,0,0.05
1757329005.2844837,-1.219,-0.121,9.631,1.0321465290839282,7.248669074945204,2.9388972431077693,0,0.05
1757329005.3121936,-1.219,-0.121,9.631,1.0321465290839282,7.248669074945204,2.9388972431077693,0,0.05
1757329005.3386247,-0.994,-0.072,9.852,1.0322775486757425,5.776251950720489,2.949824561403509,0,0.05
1757329005.3663595,-0.994,-0.072,9.852,1.0322775486757425,5.776251950720489,2.949824561403509,0,0.05
1757329005.3928485,-1.337,-0.022,9.81,1.0333601973658555,7.7620336504245335,2.965914786967419,0,0.05
1757329005.4196665,-1.337,-0.022,9.81,1.0333601973658555,7.7620336504245335,2.965914786967419,0,0.05
1757329005.4460735,-1.332,0.016,9.551,1.034374755589095,7.939931855372161,2.965112781954887,0,0.05
1757329005.4738498,-1.332,0.016,9.551,1.034374755589095,7.939931855372161,2.965112781954887,0,0.05
1757329005.5002487,-1.296,0.098,9.686,1.0352245239560354,7.642489917240261,2.9662656641604013,0,0.05
1757329005.5279546,-1.296,0.098,9.686,1.0352245239560354,7.642489917240261,2.9662656641604013,0,0.05
1757329005.555818,-1.457,0.457,9.955,1.0365770280109434,8.720586377237915,2.9740852130325814,0,0.05
1757329005.583471,-1.457,0.457,9.955,1.0365770280109434,8.720586377237915,2.9740852130325814,0,0.05
1757329005.6105485,-1.332,-0.004,9.582,1.0375198576412887,7.9140419072235755,2.977644110275689,0,0.05
1757329005.636548,-1.332,-0.004,9.582,1.0375198576412887,7.9140419072235755,2.977644110275689,0,0.05
1757329005.6631012,-1.4,0.045,9.581,1.0388113616051762,8.317602599830716,2.971027568922306,0,0.05
1757329005.6907165,-1.4,0.045,9.581,1.0388113616051762,8.317602599830716,2.971027568922306,0,0.05
1757329005.7179928,-1.454,0.131,9.764,1.040691080484502,8.503729738014753,2.9583458646616543,0,0.05
1757329005.7449677,-1.454,0.131,9.764,1.040691080484502,8.503729738014753,2.9583458646616543,0,0.05
1757329005.772499,-1.208,0.05,9.446,1.042215439580512,7.2938759871190095,2.966817042606517,0,0.05
1757329005.798831,-1.208,0.05,9.446,1.042215439580512,7.2938759871190095,2.966817042606517,0,0.05
1757329005.8264973,-1.164,0.032,9.614,1.0436857058041946,6.905978927490023,2.946015037593985,0,0.05
1757329005.852701,-1.164,0.032,9.614,1.0436857058041946,6.905978927490023,2.946015037593985,0,0.05
1757329005.8790498,-1.294,0.099,9.741,1.0448910086702823,7.588757591376413,2.9359899749373435,0,0.05
1757329005.906217,-1.294,0.099,9.741,1.0448910086702823,7.588757591376413,2.9359899749373435,0,0.05
1757329005.93375,-1.104,0.125,9.501,1.044775209076096,6.6699171321313315,2.92516290726817,0,0.05
1757329005.9599457,-1.104,0.125,9.501,1.044775209076096,6.6699171321313315,2.92516290726817,0,0.05
1757329005.9869018,-1.33,-0.02,9.565,1.0462336187487,7.917024566637482,2.9348370927318297,0,0.05
1757329006.0143466,-1.33,-0.02,9.565,1.0462336187487,7.917024566637482,2.9348370927318297,0,0.05
1757329006.0422812,-1.15,-0.057,9.598,1.0470975814125443,6.840723971709406,2.935288220551378,0,0.05
1757329006.069366,-1.15,-0.057,9.598,1.0470975814125443,6.840723971709406,2.935288220551378,0,0.05
1757329006.0988429,-1.255,-0.012,9.6,1.0479114203977358,7.448328791221352,2.9381954887218047,0,0.05
1757329006.1250198,-1.255,-0.012,9.6,1.0479114203977358,7.448328791221352,2.9381954887218047,0,0.05
1757329006.1539986,-1.274,-0.19,9.621,1.0488851343211991,7.625594650578991,2.9306766917293237,0,0.05
1757329006.1802237,-1.274,-0.19,9.621,1.0488851343211991,7.625594650578991,2.9306766917293237,0,0.05
1757329006.2088182,-1.354,0.014,9.679,1.0497128619293945,7.963876364539807,2.92390977443609,0,0.05
1757329006.2351649,-1.354,0.014,9.679,1.0497128619293945,7.963876364539807,2.92390977443609,0,0.05
1757329006.2611134,-1.117,-0.014,9.73,1.0503340206810403,6.549373202462223,2.930576441102757,0,0.05
1757329006.288337,-1.117,-0.014,9.73,1.0503340206810403,6.549373202462223,2.930576441102757,0,0.05
1757329006.3148155,-1.169,-0.125,9.664,1.051294058529772,6.936175897318433,2.9325313283208017,0,0.05
1757329006.342588,-1.169,-0.125,9.664,1.051294058529772,6.936175897318433,2.9325313283208017,0,0.05
1757329006.3698204,-1.364,0.214,9.669,1.0528165248513153,8.126615810358386,2.9328822055137844,0,0.05
1757329006.3964908,-1.364,0.214,9.669,1.0528165248513153,8.126615810358386,2.9328822055137844,0,0.05
1757329006.4234622,-1.434,-0.026,9.603,1.0541878497212913,8.49450068139798,2.932982456140351,0,0.05
1757329006.4506867,-1.434,-0.026,9.603,1.0541878497212913,8.49450068139798,2.932982456140351,0,0.05
1757329006.4783235,-1.04,0.034,9.671,1.0542439471014287,6.141139829467054,2.945513784461153,0,0.05
1757329006.5054858,-1.04,0.034,9.671,1.0542439471014287,6.141139829467054,2.945513784461153,0,0.05
1757329006.532828,-1.114,0.082,9.676,1.0548115791457733,6.585172293949873,2.9395488721804512,0,0.05
1757329006.5594513,-1.114,0.082,9.676,1.0548115791457733,6.585172293949873,2.9395488721804512,0,0.05
1757329006.5862045,-1.223,0.281,9.785,1.0552373666621173,7.307944860036946,2.9430075187969917,0,0.05
1757329006.6126168,-1.223,0.281,9.785,1.0552373666621173,7.307944860036946,2.9430075187969917,0,0.05
1757329006.638767,-1.055,-0.089,9.637,1.0551068062049453,6.26952884448231,2.934035087719298,0,0.05
1757329006.6656778,-1.055,-0.089,9.637,1.0551068062049453,6.26952884448231,2.934035087719298,0,0.05
1757329006.6926787,-1.086,0.115,9.627,1.0558213201105573,6.471877957369405,2.926315789473684,0,0.05
1757329006.720356,-1.086,0.115,9.627,1.0558213201105573,6.471877957369405,2.926315789473684,0,0.05
1757329006.7480104,-1.405,0.135,9.529,1.0571025884463627,8.425599070318839,2.930827067669173,0,0.05
1757329006.7740004,-1.405,0.135,9.529,1.0571025884463627,8.425599070318839,2.930827067669173,0,0.05
1757329006.801518,-1.244,-0.015,9.623,1.0573054903858203,7.366510803232144,2.932431077694236,0,0.05
1757329006.8281026,-1.244,-0.015,9.623,1.0573054903858203,7.366510803232144,2.932431077694236,0,0.05
1757329006.8540237,-1.204,0.089,9.716,1.0577306367880246,7.083119682206084,2.930325814536341,0,0.05
1757329006.8807788,-1.204,0.089,9.716,1.0577306367880246,7.083119682206084,2.930325814536341,0,0.05
1757329006.9073994,-1.321,0.202,9.802,1.0582943883910563,7.763552051430562,2.92280701754386,0,0.05
1757329006.9348693,-1.321,0.202,9.802,1.0582943883910563,7.763552051430562,2.92280701754386,0,0.05
1757329006.9621809,-1.156,0.07,9.881,1.0590010151081064,6.684938043379581,2.922857142857143,0,0.05
1757329006.9893596,-1.156,0.07,9.881,1.0590010151081064,6.684938043379581,2.922857142857143,0,0.05
1757329007.0156784,-1.222,0.045,9.692,1.0595282145842082,7.190945444637482,2.9261152882205512,0,0.05
1757329007.0430615,-1.222,0.045,9.692,1.0595282145842082,7.190945444637482,2.9261152882205512,0,0.05
1757329007.0702562,-1.348,-0.055,9.72,1.0604393370202747,7.902082594234539,2.931929824561404,0,0.05
1757329007.0967987,-1.348,-0.055,9.72,1.0604393370202747,7.902082594234539,2.931929824561404,0,0.05
1757329007.122773,-1.527,-0.039,10.004,1.0619314243396323,8.681368260509938,2.935839598997494,0,0.05
1757329007.1490388,-1.527,-0.039,10.004,1.0619314243396323,8.681368260509938,2.935839598997494,0,0.05
1757329007.1753829,-1.073,0.084,9.803,1.0617756118879356,6.265476859428691,2.9509273182957396,0,0.05
1757329007.2022927,-1.073,0.084,9.803,1.0617756118879356,6.265476859428691,2.9509273182957396,0,0.05
1757329007.229189,-1.484,0.04,9.797,1.0632366105434858,8.616477419633478,2.9659649122807012,0,0.05
1757329007.2557359,-1.484,0.04,9.797,1.0632366105434858,8.616477419633478,2.9659649122807012,0,0.05
1757329007.28295,-1.673,0.295,9.877,1.0651261474586005,9.759187354890482,2.975137844611529,0,0.05
1757329007.3106425,-1.673,0.295,9.877,1.0651261474586005,9.759187354890482,2.975137844611529,0,0.05
1757329007.3374267,-1.279,-0.051,9.691,1.0656642294831895,7.524244691707158,2.9798496240601504,0,0.05
1757329007.3631866,-1.279,-0.051,9.691,1.0656642294831895,7.524244691707158,2.9798496240601504,0,0.05
1757329007.3890646,-1.095,0.249,9.511,1.066347621556873,6.733680338812469,2.9862155388471177,0,0.05
1757329007.4159267,-1.095,0.249,9.511,1.066347621556873,6.733680338812469,2.9862155388471177,0,0.05
1757329007.443537,-1.114,0.274,9.562,1.0669711008270093,6.841366446029296,2.9610526315789474,0,0.05
1757329007.4698756,-1.114,0.274,9.562,1.0669711008270093,6.841366446029296,2.9610526315789474,0,0.05
1757329007.4976404,-1.083,0.083,9.656,1.0661684341603814,6.418059329342399,2.9527318295739344,0,0.05
1757329007.523735,-1.083,0.083,9.656,1.0661684341603814,6.418059329342399,2.9527318295739344,0,0.05
1757329007.5496671,-1.187,0.086,9.84,1.066226365505937,6.8962152903047444,2.9562907268170426,0,0.05
1757329007.5759318,-1.187,0.086,9.84,1.066226365505937,6.8962152903047444,2.9562907268170426,0,0.05
1757329007.6026506,-1.22,0.216,9.715,1.0664663332707696,7.2678148330448,2.946766917293233,0,0.05
1757329007.6288257,-1.22,0.216,9.715,1.0664663332707696,7.2678148330448,2.946766917293233,0,0.05
1757329007.6547773,-1.264,0.183,9.663,1.0673679918378665,7.529259096916323,2.9486716791979948,0,0.05
1757329007.6812289,-1.264,0.183,9.663,1.0673679918378665,7.529259096916323,2.9486716791979948,0,0.05
1757329007.7078562,-1.143,0.18,9.616,1.06791521784269,6.861371638247911,2.9468170426065163,0,0.05
1757329007.7356663,-1.143,0.18,9.616,1.06791521784269,6.861371638247911,2.9468170426065163,0,0.05
1757329007.7617571,-1.32,0.264,9.707,1.0686043339328173,7.895272118711265,2.954285714285714,0,0.05
1757329007.7884355,-1.32,0.264,9.707,1.0686043339328173,7.895272118711265,2.954285714285714,0,0.05
1757329007.8144634,-1.324,0.128,9.768,1.0692341429733714,7.754644374534173,2.9512280701754383,0,0.05
1757329007.8411553,-1.324,0.128,9.768,1.0692341429733714,7.754644374534173,2.9512280701754383,0,0.05
1757329007.8682017,-1.049,0.038,9.852,1.0689284038231932,6.081674080002756,2.964210526315789,0,0.05
1757329007.8942287,-1.049,0.038,9.852,1.0689284038231932,6.081674080002756,2.964210526315789,0,0.05
1757329007.9198775,-1.049,0.038,9.852,1.0689284038231932,6.081674080002756,2.964210526315789,0,0.05
1757329007.945913,-1.189,0.037,9.84,1.0690323814085334,6.893140511527704,2.97077694235589,0,0.05
1757329007.9732254,-1.137,0.115,9.62,1.068970605302129,6.774661563582883,2.961604010025063,0,0.05
1757329008.002304,-1.137,0.115,9.62,1.068970605302129,6.774661563582883,2.961604010025063,0,0.05
1757329008.0291574,-1.107,-0.159,9.548,1.0694029712881856,6.6806329569043585,2.9589473684210525,0,0.05
1757329008.057479,-1.107,-0.159,9.548,1.0694029712881856,6.6806329569043585,2.9589473684210525,0,0.05
1757329008.0850747,-1.26,0.061,9.783,1.070429495576425,7.347500767563487,2.958145363408521,0,0.05
1757329008.1118407,-1.26,0.061,9.783,1.070429495576425,7.347500767563487,2.958145363408521,0,0.05
1757329008.1390014,-1.351,-0.135,9.733,1.071366886271925,7.941365477480457,2.9544862155388474,0,0.05
1757329008.164998,-1.351,-0.135,9.733,1.071366886271925,7.941365477480457,2.9544862155388474,0,0.05
1757329008.192112,-1.155,-0.208,9.623,1.0713125150953853,6.953209632228717,2.9618546365914784,0,0.05
1757329008.219257,-1.155,-0.208,9.623,1.0713125150953853,6.953209632228717,2.9618546365914784,0,0.05
1757329008.2460678,-1.38,-0.169,9.847,1.072054949617789,8.036537758675056,2.9653132832080202,0,0.05
1757329008.272526,-1.38,-0.169,9.847,1.072054949617789,8.036537758675056,2.9653132832080202,0,0.05
1757329008.2999141,-1.256,-0.146,9.743,1.0727970008347338,7.394577819677059,2.966015037593985,0,0.05
1757329008.3264105,-1.256,-0.146,9.743,1.0727970008347338,7.394577819677059,2.966015037593985,0,0.05
1757329008.353873,-1.136,-0.161,9.631,1.072941585082804,6.7936939909983245,2.9663659147869677,0,0.05
1757329008.3811436,-1.136,-0.161,9.631,1.072941585082804,6.7936939909983245,2.9663659147869677,0,0.05
1757329008.4068196,-1.16,-0.056,9.766,1.0734197326768313,6.781638601125362,2.9615538847117797,0,0.05
1757329008.4338143,-1.16,-0.056,9.766,1.0734197326768313,6.781638601125362,2.9615538847117797,0,0.05
1757329008.4594715,-1.249,-0.083,9.681,1.073860327277249,7.367476650926978,2.9629573934837095,0,0.05
1757329008.4868193,-1.249,-0.083,9.681,1.073860327277249,7.367476650926978,2.9629573934837095,0,0.05
1757329008.5129943,-1.203,-0.081,9.489,1.0743194752958731,7.241506279006752,2.960250626566416,0,0.05
1757329008.5393934,-1.203,-0.081,9.489,1.0743194752958731,7.241506279006752,2.960250626566416,0,0.05
1757329008.59412,-1.224,-0.087,9.744,1.0745874022153805,7.177626688398684,2.955388471177945,0,0.05
1757329008.6215322,-1.242,0.015,9.566,1.074581618584647,7.398139274965316,2.9562406015037594,0,0.05
1757329008.6471746,-1.242,0.015,9.566,1.074581618584647,7.398139274965316,2.9562406015037594,0,0.05
1757329008.6745322,-1.083,0.089,9.491,1.0741486186743434,6.531511572923532,2.9530325814536345,0,0.05
1757329008.700516,-1.083,0.089,9.491,1.0741486186743434,6.531511572923532,2.9530325814536345,0,0.05
1757329008.726135,-1.083,0.089,9.491,1.0741486186743434,6.531511572923532,2.9530325814536345,0,0.05
1757329008.7538097,-1.13,0.046,9.619,1.0744238013931002,6.705658543215115,2.949172932330827,0,0.05
1757329008.7818534,-1.266,0.381,9.543,1.0753540602982814,7.887555528137948,2.9408521303258146,0,0.05
1757329008.8094103,-1.266,0.381,9.543,1.0753540602982814,7.887555528137948,2.9408521303258146,0,0.05
1757329008.8354719,-1.159,0.03,9.546,1.075247202972414,6.924815585389965,2.940601503759399,0,0.05
1757329008.8631554,-1.159,0.03,9.546,1.075247202972414,6.924815585389965,2.940601503759399,0,0.05
1757329008.889362,-1.32,0.02,9.767,1.0759015092005402,7.697703073931847,2.947268170426065,0,0.05
1757329008.917072,-1.32,0.02,9.767,1.0759015092005402,7.697703073931847,2.947268170426065,0,0.05
1757329008.9430954,-1.32,0.02,9.767,1.0759015092005402,7.697703073931847,2.947268170426065,0,0.05
1757329008.9689882,-1.105,0.027,9.532,1.076019614133497,6.614471118317667,2.9437092731829573,0,0.05
1757329008.9950776,-0.962,0.003,9.425,1.0764022761031304,5.827966377982226,2.9457142857142857,0,0.05
1757329009.021846,-0.962,0.003,9.425,1.0764022761031304,5.827966377982226,2.9457142857142857,0,0.05
1757329009.048237,-0.962,0.003,9.425,1.0764022761031304,5.827966377982226,2.9457142857142857,0,0.05
1757329009.075426,-1.034,-0.108,9.635,1.0767547016382144,6.158438430800002,2.946365914786967,0,0.05
1757329009.1019526,-1.034,-0.108,9.635,1.0767547016382144,6.158438430800002,2.946365914786967,0,0.05
1757329009.1289353,-1.498,0.218,9.659,1.0783458663619943,8.907065484532263,2.964411027568923,0,0.05
1757329009.1583533,-1.15,0.214,9.612,1.079080074646919,6.938547725305942,2.9689223057644107,0,0.05
1757329009.187516,-1.15,0.214,9.612,1.079080074646919,6.938547725305942,2.9689223057644107,0,0.05
1757329009.2151132,-1.321,-0.048,9.561,1.0797300820112405,7.8716202746317165,2.972230576441103,0,0.05
1757329009.2424834,-1.321,-0.048,9.561,1.0797300820112405,7.8716202746317165,2.972230576441103,0,0.05
1757329009.2701569,-1.735,-0.012,9.661,1.0820937528698704,10.18134737359573,2.9877192982456138,1,0.05
1757329009.297265,-1.735,-0.012,9.661,1.0820937528698704,10.18134737359573,2.9877192982456138,1,0.05
1757329009.3243835,-1.38,0.221,9.386,1.082925911593217,8.469168474032399,2.995288220551379,1,0.05
1757329009.3511012,-1.38,0.221,9.386,1.082925911593217,8.469168474032399,2.995288220551379,1,0.05
1757329009.3781035,-1.048,0.071,9.336,1.0832915812467112,6.419406729719306,3.0070676691729328,1,0.05
1757329009.4050891,-1.048,0.071,9.336,1.0832915812467112,6.419406729719306,3.0070676691729328,1,0.05
1757329009.4322274,-0.925,0.049,9.611,1.083564160536883,5.505096780356862,3.0121303258145367,1,0.05
1757329009.4597757,-0.925,0.049,9.611,1.083564160536883,5.505096780356862,3.0121303258145367,1,0.05
1757329009.486449,-1.213,0.473,9.597,1.0845061133990899,7.7257603504859516,3.0244611528822056,1,0.05
1757329009.512653,-1.213,0.473,9.597,1.0845061133990899,7.7257603504859516,3.0244611528822056,1,0.05
1757329009.5396538,-1.257,0.381,9.536,1.0854921142044285,7.8424767162446996,3.0143859649122806,1,0.05
1757329009.5677028,-1.257,0.381,9.536,1.0854921142044285,7.8424767162446996,3.0143859649122806,1,0.05
1757329009.5953221,-1.222,0.387,9.758,1.0858283934397737,7.483557246016675,3.0117794486215534,1,0.05
1757329009.6217096,-1.222,0.387,9.758,1.0858283934397737,7.483557246016675,3.0117794486215534,1,0.05
1757329009.6489277,-1.222,0.387,9.758,1.0858283934397737,7.483557246016675,3.0117794486215534,1,0.05
1757329009.6760385,-1.331,0.199,9.807,1.0866954495165608,7.81377604745239,3.0118796992481203,1,0.05
1757329009.7027037,-1.331,0.199,9.807,1.0866954495165608,7.81377604745239,3.0118796992481203,1,0.05
1757329009.73026,-1.262,-0.084,9.675,1.0870947382818115,7.447921028706534,3.007619047619047,1,0.05
1757329009.7566876,-1.168,0.241,9.753,1.0875991541004433,6.971561557102517,3.006365914786967,1,0.05
1757329009.7850127,-1.168,0.241,9.753,1.0875991541004433,6.971561557102517,3.006365914786967,1,0.05
1757329009.8110805,-1.427,0.059,9.574,1.0885960407791313,8.4846348979804,3.0157894736842104,1,0.05
1757329009.838374,-1.427,0.059,9.574,1.0885960407791313,8.4846348979804,3.0157894736842104,1,0.05
1757329009.8651276,-1.235,0.088,9.645,1.0891759052145802,7.315068254695781,3.021754385964912,1,0.05
1757329009.8920667,-1.235,0.088,9.645,1.0891759052145802,7.315068254695781,3.021754385964912,1,0.05
1757329009.917683,-0.968,0.03,9.749,1.0889051795266658,5.6731446778867705,3.032832080200501,1,0.05
1757329009.9439757,-0.968,0.03,9.749,1.0889051795266658,5.6731446778867705,3.032832080200501,1,0.05
1757329009.969717,-1.149,-0.062,9.704,1.0891861962033857,6.762387382615089,3.0415538847117793,1,0.05
1757329009.9958239,-1.149,-0.062,9.704,1.0891861962033857,6.762387382615089,3.0415538847117793,1,0.05
1757329010.0228488,-0.86,0.026,9.584,1.0887840603168288,5.1299130758661935,3.0476190476190474,1,0.05
1757329010.0492878,-0.86,0.026,9.584,1.0887840603168288,5.1299130758661935,3.0476190476190474,1,0.05
1757329010.0761456,-1.102,-0.037,9.801,1.0892971587220817,6.418835617145202,3.0550375939849626,1,0.05
1757329010.1027663,-1.102,-0.037,9.801,1.0892971587220817,6.418835617145202,3.0550375939849626,1,0.05
1757329010.1288357,-1.236,-0.1,9.602,1.0899703161095717,7.358665148188616,3.061453634085213,1,0.05
1757329010.1559985,-1.236,-0.1,9.602,1.0899703161095717,7.358665148188616,3.061453634085213,1,0.05
1757329010.18338,-1.319,0.018,9.453,1.0908727022434836,7.944063723075405,3.0541353383458643,1,0.05
1757329010.211109,-1.319,0.018,9.453,1.0908727022434836,7.944063723075405,3.0541353383458643,1,0.05
1757329010.2388773,-1.399,0.048,9.626,1.0914514155472061,8.274014457001835,3.0542857142857143,1,0.05
1757329010.2655625,-1.399,0.048,9.626,1.0914514155472061,8.274014457001835,3.0542857142857143,1,0.05
1757329010.2925465,-1.399,0.048,9.626,1.0914514155472061,8.274014457001835,3.0542857142857143,1,0.05
1757329010.3190348,-1.443,-0.157,9.499,1.0919537558889572,8.688002875400628,3.0546867167919802,1,0.05
1757329010.3453898,-1.443,-0.157,9.499,1.0919537558889572,8.688002875400628,3.0546867167919802,1,0.05
1757329010.3713665,-1.528,0.048,9.574,1.0928488802208656,9.072267264636338,3.030325814536341,1,0.05
1757329010.3988569,-1.282,-0.012,9.601,1.094206754914262,7.605917475911483,3.023107769423559,1,0.05
1757329010.4259498,-1.282,-0.012,9.601,1.094206754914262,7.605917475911483,3.023107769423559,1,0.05
1757329010.4520445,-1.282,-0.012,9.601,1.094206754914262,7.605917475911483,3.023107769423559,1,0.05
1757329010.4787421,-1.155,-0.103,9.523,1.094434978653369,6.942535598251258,3.023558897243108,1,0.05
1757329010.5050523,-1.155,-0.103,9.523,1.094434978653369,6.942535598251258,3.023558897243108,1,0.05
1757329010.531412,-1.045,0.137,9.507,1.094657920311181,6.325956009223591,3.0249122807017543,1,0.05
1757329010.561137,-1.045,0.137,9.507,1.094657920311181,6.325956009223591,3.0249122807017543,1,0.05
1757329010.58722,-1.159,-0.026,9.423,1.0949803263072813,7.013732982877362,3.0272180451127824,1,0.05
1757329010.614656,-1.159,-0.026,9.423,1.0949803263072813,7.013732982877362,3.0272180451127824,1,0.05
1757329010.6426108,-1.225,0.103,9.603,1.0956367406672707,7.295009795113199,3.0283208020050125,1,0.05
1757329010.6707206,-1.225,0.103,9.603,1.0956367406672707,7.295009795113199,3.0283208020050125,1,0.05
1757329010.6983063,-1.228,0.035,9.583,1.0963954658333825,7.305223860898702,3.021203007518797,1,0.05
1757329010.7247312,-1.271,-0.076,9.534,1.0969488126161584,7.606866832162116,3.0232581453634086,1,0.05
1757329010.751937,-1.271,-0.076,9.534,1.0969488126161584,7.606866832162116,3.0232581453634086,1,0.05
1757329010.7795448,-1.225,0.017,9.768,1.0973662549486385,7.14879802606745,3.022456140350877,1,0.05
1757329010.806526,-1.225,0.017,9.768,1.0973662549486385,7.14879802606745,3.022456140350877,1,0.05
1757329010.8321667,-1.225,0.017,9.768,1.0973662549486385,7.14879802606745,3.022456140350877,1,0.05
1757329010.858739,-1.154,0.1,9.687,1.0977372021572376,6.818776662298735,3.0134335839599,1,0.05
1757329010.8861647,-1.154,0.1,9.687,1.0977372021572376,6.818776662298735,3.0134335839599,1,0.05
1757329010.9133053,-1.417,0.218,9.545,1.0993784277945424,8.542043672083029,3.0249122807017543,1,0.05
1757329010.93963,-1.205,0.203,9.809,1.1004427199995463,7.101173417708425,3.019749373433584,1,0.05
1757329010.9667041,-1.205,0.203,9.809,1.1004427199995463,7.101173417708425,3.019749373433584,1,0.05
1757329010.9934118,-1.375,0.076,9.852,1.1013777825977789,7.957168552508883,3.027117794486216,1,0.05
1757329011.0212684,-1.375,0.076,9.852,1.1013777825977789,7.957168552508883,3.027117794486216,1,0.05
1757329011.0485566,-1.409,0.106,9.706,1.1024726629263877,8.282828429586306,3.0287218045112785,1,0.05
1757329011.075329,-1.409,0.106,9.706,1.1024726629263877,8.282828429586306,3.0287218045112785,1,0.05
1757329011.1017334,-1.409,0.106,9.706,1.1024726629263877,8.282828429586306,3.0287218045112785,1,0.05
1757329011.1287746,-1.205,0.136,9.801,1.102966851269792,7.053201674807845,3.0201503759398496,1,0.05
1757329011.155973,-1.205,0.136,9.801,1.102966851269792,7.053201674807845,3.0201503759398496,1,0.05
1757329011.1835651,-1.268,-0.02,10.023,1.1043340583808867,7.211018700144635,3.0132330827067673,1,0.05
1757329011.2120671,-1.314,-0.046,9.854,1.1055004805516822,7.600003503749724,3.01453634085213,1,0.05
1757329011.2413423,-1.314,-0.046,9.854,1.1055004805516822,7.600003503749724,3.01453634085213,1,0.05
1757329011.268018,-1.221,-0.086,9.75,1.1063612090994515,7.155535425719772,3.019197994987469,1,0.05
1757329011.2954473,-1.221,-0.086,9.75,1.1063612090994515,7.155535425719772,3.019197994987469,1,0.05
1757329011.3223913,-1.362,-0.014,9.994,1.107632360036488,7.760965922715187,3.025814536340852,1,0.05
1757329011.3497918,-1.362,-0.014,9.994,1.107632360036488,7.760965922715187,3.025814536340852,1,0.05
1757329011.3765461,-1.281,0.032,9.69,1.1086432812225941,7.533050677383786,3.0257644110275694,1,0.05
1757329011.4030454,-1.281,0.032,9.69,1.1086432812225941,7.533050677383786,3.0257644110275694,1,0.05
1757329011.431284,-1.304,-0.203,9.664,1.109553244553861,7.776156241674746,3.0259147869674186,1,0.05
1757329011.4592783,-1.304,-0.203,9.664,1.109553244553861,7.776156241674746,3.0259147869674186,1,0.05
1757329011.4866753,-1.36,-0.189,9.948,1.110587385125547,7.858580824580978,3.014085213032581,1,0.05
1757329011.5132418,-1.36,-0.189,9.948,1.110587385125547,7.858580824580978,3.014085213032581,1,0.05
1757329011.5405757,-1.213,0.067,9.622,1.1117330794754647,7.195942203071387,3.0185964912280703,1,0.05
1757329011.567817,-1.213,0.067,9.622,1.1117330794754647,7.195942203071387,3.0185964912280703,1,0.05
1757329011.593914,-1.211,-0.052,9.429,1.1127823203574003,7.325306267632913,3.0117293233082703,1,0.05
1757329011.6201372,-1.211,-0.052,9.429,1.1127823203574003,7.325306267632913,3.0117293233082703,1,0.05
1757329011.6477346,-1.254,0.21,9.768,1.1137000853012449,7.416268783978226,3.010426065162907,1,0.05
1757329011.6743639,-1.254,0.21,9.768,1.1137000853012449,7.416268783978226,3.010426065162907,1,0.05
1757329011.702573,-1.044,0.062,9.617,1.1139358644015374,6.206470228040656,3.0159398496240604,1,0.05
1757329011.7304008,-1.044,0.062,9.617,1.1139358644015374,6.206470228040656,3.0159398496240604,1,0.05
1757329011.7583046,-1.299,-0.015,9.426,1.1146201157793627,7.847042031907023,3.0129824561403504,1,0.05
1757329011.7862613,-1.299,-0.015,9.426,1.1146201157793627,7.847042031907023,3.0129824561403504,1,0.05
1757329011.813912,-1.199,-0.017,9.743,1.1156440135634664,7.016397758171685,3.007719298245614,1,0.05
1757329011.8406234,-1.199,-0.017,9.743,1.1156440135634664,7.016397758171685,3.007719298245614,1,0.05
1757329011.8670704,-1.095,-0.086,9.727,1.1160203963189919,6.442544072076245,3.008771929824561,1,0.05
1757329011.8937235,-1.095,-0.086,9.727,1.1160203963189919,6.442544072076245,3.008771929824561,1,0.05
1757329011.9211712,-1.34,-0.08,9.48,1.1172292669814912,8.059607833009533,3.018045112781955,1,0.05
1757329011.9485407,-1.34,-0.08,9.48,1.1172292669814912,8.059607833009533,3.018045112781955,1,0.05
1757329011.9756653,-1.283,-0.165,9.676,1.118152211239597,7.614615955342073,3.01468671679198,1,0.05
1757329012.0038989,-1.283,-0.165,9.676,1.118152211239597,7.614615955342073,3.01468671679198,1,0.05
1757329012.030802,-1.178,0.059,9.647,1.1185174685716803,6.970590440452558,3.0178947368421047,1,0.05
1757329012.0577111,-1.178,0.059,9.647,1.1185174685716803,6.970590440452558,3.0178947368421047,1,0.05
1757329012.084547,-1.173,0.127,9.453,1.1187732332783082,7.114453422567125,3.0170426065162905,1,0.05
1757329012.111779,-1.173,0.127,9.453,1.1187732332783082,7.114453422567125,3.0170426065162905,1,0.05
1757329012.1379633,-1.218,-0.011,9.575,1.1190959453952105,7.2497398386959935,3.0165413533834586,1,0.05
1757329012.1656995,-1.218,-0.011,9.575,1.1190959453952105,7.2497398386959935,3.0165413533834586,1,0.05
1757329012.191893,-1.388,0.033,9.714,1.119775573496761,8.134021071921392,3.006265664160401,1,0.05
