timestamp,ax,ay,az,rms,tilt_now,jerk,tilt_crosses,freq
1757327784.7382863,-0.799,-0.088,9.8,0.03995,4.689109981339564,0.04005012531328321,0,0.8500000000000001
1757327784.7662013,-0.783,-0.071,9.815,0.05593500692768349,4.579793816508144,0.040852130325814535,0,0.05
1757327784.7951214,-0.775,-0.071,9.799,0.06804621591242234,4.540951130129709,0.0412531328320802,0,0.05
1757327784.8209572,-0.792,-0.056,9.767,0.0787302197380396,4.647459533984519,0.042105263157894736,0,0.05
1757327784.8489685,-0.818,-0.041,9.774,0.08872010764195454,4.7899944033740995,0.043408521303258146,0,0.05
1757327784.8762882,-0.827,-0.061,9.756,0.09788299137235233,4.858385055547241,0.043859649122807015,0,0.05
1757327784.9019146,-0.831,-0.064,9.764,0.10633664702255756,4.878974706410842,0.04406015037593985,0,0.05
1757327784.9275289,-0.813,-0.069,9.763,0.11384157852032797,4.777276224871807,0.044962406015037586,0,0.05
1757327784.9528604,-0.788,-0.077,9.757,0.12046686266355575,4.63922634424139,0.046215538847117786,0,0.05
1757327784.9783003,-0.777,-0.079,9.757,0.12657640972945947,4.576522239777895,0.046766917293233075,0,0.05
1757327785.0038166,-0.784,-0.067,9.751,0.13250746205402925,4.613490662618288,0.04711779448621553,0,0.05
1757327785.0292442,-0.797,-0.064,9.754,0.1383699750668475,4.686234237883415,0.04776942355889724,0,0.05
1757327785.0550392,-0.823,-0.061,9.755,0.14435917878680246,4.8356180527578365,0.04907268170426065,0,0.05
1757327785.079991,-0.833,-0.038,9.749,0.15024744590175235,4.888810778267511,0.04957393483709273,0,0.05
1757327785.1051786,-0.822,-0.042,9.751,0.15576747093022983,4.82484312055941,0.05012531328320801,0,0.05
1757327785.130159,-0.813,-0.057,9.745,0.16098424612365025,4.780646485626387,0.05057644110275688,0,0.05
1757327785.155125,-0.793,-0.058,9.732,0.16579520499700828,4.670772385623788,0.05157894736842104,0,0.05
1757327785.1803641,-0.799,-0.056,9.735,0.17054047173618347,4.703492151029005,0.05187969924812028,0,0.05
1757327785.2053468,-0.799,-0.056,9.735,0.17054047173618347,4.703492151029005,0.05187969924812028,0,0.05
1757327785.2304523,-0.795,-0.058,9.746,0.17511172148088774,4.675741335976855,0.052080200501253116,0,0.05
1757327785.2558062,-0.795,-0.058,9.746,0.17511172148088774,4.675741335976855,0.052080200501253116,0,0.05
1757327785.28087,-0.813,-0.047,9.753,0.1797680102242888,4.773019493452772,0.05298245614035086,0,0.05
1757327785.306056,-0.813,-0.047,9.753,0.1797680102242888,4.773019493452772,0.05298245614035086,0,0.05
1757327785.3315017,-0.839,-0.037,9.744,0.18459777896822052,4.926032811502546,0.05428571428571427,0,0.05
1757327785.356715,-0.839,-0.037,9.744,0.18459777896822052,4.926032811502546,0.05428571428571427,0,0.05
1757327785.3818467,-0.839,-0.037,9.744,0.18459777896822052,4.926032811502546,0.05428571428571427,0,0.05
1757327785.407173,-0.838,-0.038,9.72,0.18929329095348307,4.932552041823898,0.054335839598997474,0,0.05
1757327785.4326525,-0.836,-0.045,9.717,0.1938535271796724,4.924404905402101,0.054436090225563886,0,0.05
1757327785.4580917,-0.836,-0.045,9.717,0.1938535271796724,4.924404905402101,0.054436090225563886,0,0.05
1757327785.4834247,-0.836,-0.045,9.717,0.1938535271796724,4.924404905402101,0.054436090225563886,0,0.05
1757327785.5085955,-0.801,-0.059,9.711,0.19794744883428025,4.728014517169628,0.056190476190476166,0,0.05
1757327785.5340152,-0.801,-0.059,9.711,0.19794744883428025,4.728014517169628,0.056190476190476166,0,0.05
1757327785.5591187,-0.79,-0.062,9.716,0.2018500495417328,4.662677593981274,0.056741854636591454,0,0.05
1757327785.584228,-0.79,-0.062,9.716,0.2018500495417328,4.662677593981274,0.056741854636591454,0,0.05
1757327785.6094933,-0.791,-0.052,9.711,0.20568822280334867,4.666698319692468,0.05679197994987465,0,0.05
1757327785.6349301,-0.791,-0.052,9.711,0.20568822280334867,4.666698319692468,0.05679197994987465,0,0.05
1757327785.6600106,-0.791,-0.052,9.711,0.20568822280334867,4.666698319692468,0.05679197994987465,0,0.05
1757327785.6851158,-0.794,-0.045,9.725,0.2094844504969283,4.675032102458331,0.05694235588972428,0,0.05
1757327785.710294,-0.815,-0.039,9.741,0.21341109975818973,4.788072843570054,0.057994987468671634,0,0.05
1757327785.7354832,-0.815,-0.039,9.741,0.21341109975818973,4.788072843570054,0.057994987468671634,0,0.05
1757327785.7606688,-0.815,-0.039,9.741,0.21341109975818973,4.788072843570054,0.057994987468671634,0,0.05
1757327785.7863302,-0.823,-0.033,9.738,0.2173421726218821,4.834694885685481,0.05839598997493731,0,0.05
1757327785.811685,-0.823,-0.033,9.738,0.2173421726218821,4.834694885685481,0.05839598997493731,0,0.05
1757327785.8367267,-0.827,-0.029,9.743,0.22124068906961936,4.854687168642198,0.05859649122807015,0,0.05
1757327785.861992,-0.827,-0.029,9.743,0.22124068906961936,4.854687168642198,0.05859649122807015,0,0.05
1757327785.8873837,-0.808,-0.043,9.745,0.22489909403997163,4.746474967555559,0.059548872180451094,0,0.05
1757327785.9123902,-0.808,-0.043,9.745,0.22489909403997163,4.746474967555559,0.059548872180451094,0,0.05
1757327785.9372864,-0.798,-0.042,9.743,0.22841106037142772,4.688808535103122,0.06005012531328317,0,0.05
1757327785.9625096,-0.798,-0.042,9.743,0.22841106037142772,4.688808535103122,0.06005012531328317,0,0.05
1757327785.987782,-0.788,-0.045,9.751,0.23178432324037793,4.627654099459502,0.06055137844611525,0,0.05
1757327786.012963,-0.788,-0.045,9.751,0.23178432324037793,4.627654099459502,0.06055137844611525,0,0.05
1757327786.038193,-0.788,-0.045,9.751,0.23178432324037793,4.627654099459502,0.06055137844611525,0,0.05
1757327786.0633733,-0.785,-0.05,9.747,0.23508410197203894,4.613816845409665,0.060701754385964875,0,0.05
1757327786.0889287,-0.785,-0.05,9.747,0.23508410197203894,4.613816845409665,0.060701754385964875,0,0.05
1757327786.1141272,-0.785,-0.05,9.747,0.23508410197203894,4.613816845409665,0.060701754385964875,0,0.05
1757327786.139511,-0.803,-0.034,9.732,0.23848806573914763,4.721071624669861,0.06160401002506262,0,0.05
1757327786.1648316,-0.83,-0.031,9.726,0.24207190563962602,4.88108923693666,0.06295739348370923,0,0.05
1757327786.1902354,-0.836,-0.043,9.722,0.24565432522143793,4.9212697986778515,0.06325814536340849,0,0.05
1757327786.2157254,-0.836,-0.043,9.722,0.24565432522143793,4.9212697986778515,0.06325814536340849,0,0.05
1757327786.241021,-0.836,-0.043,9.722,0.24565432522143793,4.9212697986778515,0.06325814536340849,0,0.05
1757327786.2662973,-0.837,-0.049,9.744,0.24919363956569998,4.917964026124622,0.06330827067669169,0,0.05
1757327786.291784,-0.837,-0.049,9.744,0.24919363956569998,4.917964026124622,0.06330827067669169,0,0.05
1757327786.3173497,-0.816,-0.053,9.724,0.25251160369377085,4.806858967514789,0.06436090225563906,0,0.05
1757327786.3428528,-0.816,-0.053,9.724,0.25251160369377085,4.806858967514789,0.06436090225563906,0,0.05
1757327786.3684108,-0.798,-0.042,9.724,0.25564451881470096,4.697929163549511,0.0652631578947368,0,0.05
1757327786.3938348,-0.798,-0.042,9.724,0.25564451881470096,4.697929163549511,0.0652631578947368,0,0.05
1757327786.4192257,-0.797,-0.046,9.737,0.25873179646112304,4.687136771543451,0.06531328320802002,0,0.05
1757327786.444514,-0.797,-0.046,9.737,0.25873179646112304,4.687136771543451,0.06531328320802002,0,0.05
1757327786.4696262,-0.804,-0.051,9.745,0.26183617492623135,4.7258766352117,0.06566416040100248,0,0.05
1757327786.4947684,-0.804,-0.051,9.745,0.26183617492623135,4.7258766352117,0.06566416040100248,0,0.05
1757327786.5199506,-0.821,-0.053,9.757,0.26503449775453763,4.819771470005041,0.066516290726817,0,0.05
1757327786.545417,-0.821,-0.053,9.757,0.26503449775453763,4.819771470005041,0.066516290726817,0,0.05
1757327786.5706267,-0.844,-0.043,9.735,0.26837310781820145,4.961404571403217,0.0676691729323308,0,0.05
1757327786.5960407,-0.844,-0.043,9.735,0.26837310781820145,4.961404571403217,0.0676691729323308,0,0.05
1757327786.6216052,-0.851,-0.041,9.742,0.27172527946438846,4.998088664057225,0.06802005012531324,0,0.05
1757327786.6467702,-0.851,-0.041,9.742,0.27172527946438846,4.998088664057225,0.06802005012531324,0,0.05
1757327786.6729941,-0.851,-0.041,9.742,0.27172527946438846,4.998088664057225,0.06802005012531324,0,0.05
1757327786.698094,-0.837,-0.048,9.723,0.27492917269726036,4.928195344216615,0.06872180451127817,0,0.05
1757327786.7233393,-0.837,-0.048,9.723,0.27492917269726036,4.928195344216615,0.06872180451127817,0,0.05
1757327786.7484803,-0.809,-0.061,9.735,0.27788892115375885,4.763913441714387,0.07012531328320798,0,0.05
1757327786.7739003,-0.809,-0.061,9.735,0.27788892115375885,4.763913441714387,0.07012531328320798,0,0.05
1757327786.79911,-0.789,-0.066,9.716,0.28067517702853595,4.658731959795877,0.07112781954887215,0,0.05
1757327786.8242104,-0.789,-0.066,9.716,0.28067517702853595,4.658731959795877,0.07112781954887215,0,0.05
1757327786.8494103,-0.801,-0.066,9.715,0.2835181784295321,4.729266300272559,0.07172932330827066,0,0.05
1757327786.8745768,-0.801,-0.066,9.715,0.2835181784295321,4.729266300272559,0.07172932330827066,0,0.05
1757327786.8997693,-0.801,-0.066,9.715,0.2835181784295321,4.729266300272559,0.07172932330827066,0,0.05
1757327786.9250677,-0.808,-0.073,9.728,0.2863821179822511,4.767293184912523,0.07208020050125309,0,0.05
1757327786.9502778,-0.808,-0.073,9.728,0.2863821179822511,4.767293184912523,0.07208020050125309,0,0.05
1757327786.976047,-0.83,-0.052,9.73,0.2893734049632067,4.885222378316979,0.07318295739348368,0,0.05
1757327787.0015047,-0.84,-0.055,9.736,0.2924054847296815,4.941645248552879,0.07368421052631574,0,0.05
1757327787.0272832,-0.84,-0.055,9.736,0.2924054847296815,4.941645248552879,0.07368421052631574,0,0.05
1757327787.0529542,-0.833,-0.058,9.715,0.29535688581781877,4.912572394036148,0.07403508771929822,0,0.05
1757327787.078766,-0.833,-0.058,9.715,0.29535688581781877,4.912572394036148,0.07403508771929822,0,0.05
1757327787.1046684,-0.833,-0.058,9.715,0.29535688581781877,4.912572394036148,0.07403508771929822,0,0.05
1757327787.1297984,-0.825,-0.057,9.724,0.2982234942119752,4.8609593505548165,0.07443609022556387,0,0.05
1757327787.155618,-0.825,-0.057,9.724,0.2982234942119752,4.8609593505548165,0.07443609022556387,0,0.05
1757327787.1808474,-0.797,-0.074,9.73,0.3008741846686086,4.702786431676135,0.07583959899749368,0,0.05
1757327787.2062633,-0.797,-0.074,9.73,0.3008741846686086,4.702786431676135,0.07583959899749368,0,0.05
1757327787.2316453,-0.79,-0.066,9.748,0.30345596879942893,4.649324442653739,0.07619047619047613,0,0.05
1757327787.2568398,-0.79,-0.066,9.748,0.30345596879942893,4.649324442653739,0.07619047619047613,0,0.05
1757327787.2820315,-0.793,-0.057,9.736,0.30603536968788425,4.668439124241249,0.07634085213032576,0,0.05
1757327787.3073983,-0.793,-0.057,9.736,0.30603536968788425,4.668439124241249,0.07634085213032576,0,0.05
1757327787.3328912,-0.803,-0.044,9.73,0.3086578526459354,4.724874812919188,0.07684210526315784,0,0.05
1757327787.3583422,-0.803,-0.044,9.73,0.3086578526459354,4.724874812919188,0.07684210526315784,0,0.05
1757327787.3836396,-0.821,-0.046,9.726,0.31137561320694335,4.832596852909923,0.07774436090225559,0,0.05
1757327787.4088144,-0.821,-0.046,9.726,0.31137561320694335,4.832596852909923,0.07774436090225559,0,0.05
1757327787.434118,-0.821,-0.048,9.712,0.31406985687900707,4.8401996075829095,0.07774436090225557,0,0.05
1757327787.4591165,-0.821,-0.048,9.712,0.31406985687900707,4.8401996075829095,0.07774436090225557,0,0.05
1757327787.4842794,-0.821,-0.048,9.712,0.31406985687900707,4.8401996075829095,0.07774436090225557,0,0.05
1757327787.5106933,-0.826,-0.05,9.726,0.3167736810405814,4.863153181818772,0.07799498746867163,0,0.05
1757327787.5368695,-0.826,-0.05,9.726,0.3167736810405814,4.863153181818772,0.07799498746867163,0,0.05
1757327787.5623813,-0.81,-0.065,9.738,0.319352180202359,4.770091534779557,0.07879699248120293,0,0.05
1757327787.5880706,-0.81,-0.065,9.738,0.319352180202359,4.770091534779557,0.07879699248120293,0,0.05
1757327787.6134892,-0.809,-0.074,9.722,0.32190373949365675,4.776580217975706,0.07884711779448615,0,0.05
1757327787.639222,-0.809,-0.074,9.722,0.32190373949365675,4.776580217975706,0.07884711779448615,0,0.05
1757327787.6655998,-0.804,-0.06,9.748,0.32440415764906594,4.728046976614876,0.0790977443609022,0,0.05
1757327787.690983,-0.804,-0.06,9.748,0.32440415764906594,4.728046976614876,0.0790977443609022,0,0.05
1757327787.7162297,-0.822,-0.054,9.755,0.3269973509067008,4.826953593143337,0.07999999999999995,0,0.05
1757327787.741893,-0.822,-0.054,9.755,0.3269973509067008,4.826953593143337,0.07999999999999995,0,0.05
1757327787.7672775,-0.843,-0.057,9.758,0.32970272974302167,4.948778797291283,0.0810526315789473,0,0.05
1757327787.7930043,-0.843,-0.057,9.758,0.32970272974302167,4.948778797291283,0.0810526315789473,0,0.05
1757327787.819118,-0.851,-0.051,9.762,0.33243705043210814,4.99104442242574,0.08145363408521296,0,0.05
1757327787.8456166,-0.851,-0.051,9.762,0.33243705043210814,4.99104442242574,0.08145363408521296,0,0.05
1757327787.871618,-0.849,-0.045,9.77,0.33513638268621326,4.97338736910182,0.08155388471177938,0,0.05
1757327787.8971956,-0.849,-0.045,9.77,0.33513638268621326,4.97338736910182,0.08155388471177938,0,0.05
1757327787.9221807,-0.834,-0.038,9.761,0.33772072041851386,4.88865087946474,0.0823057644110275,0,0.05
1757327787.9489331,-0.834,-0.038,9.761,0.33772072041851386,4.88865087946474,0.0823057644110275,0,0.05
1757327787.9754336,-0.808,-0.053,9.764,0.34012857127856816,4.740736792211787,0.08360902255639088,0,0.05
1757327788.0016768,-0.808,-0.053,9.764,0.34012857127856816,4.740736792211787,0.08360902255639088,0,0.05
1757327788.0283768,-0.8,-0.045,9.751,0.3424725463449589,4.697586591829469,0.08401002506265656,0,0.05
1757327788.0551283,-0.8,-0.045,9.751,0.3424725463449589,4.697586591829469,0.08401002506265656,0,0.05
1757327788.0815983,-0.8,-0.045,9.751,0.3424725463449589,4.697586591829469,0.08401002506265656,0,0.05
1757327788.108458,-0.809,-0.047,9.768,0.3448530810359681,4.742461255209463,0.08446115288220543,0,0.05
1757327788.1344833,-0.804,-0.045,9.763,0.34718825945011444,4.7151186417204505,0.08471177944862147,0,0.05
1757327788.1606364,-0.804,-0.045,9.763,0.34718825945011444,4.7151186417204505,0.08471177944862147,0,0.05
1757327788.1865098,-0.73,0.1,9.772,0.34910161486306535,4.3119933751641,0.08842105263157887,0,0.05
1757327788.2135818,-0.73,0.1,9.772,0.34910161486306535,4.3119933751641,0.08842105263157887,0,0.05
1757327788.2400863,-0.557,-0.195,9.661,0.3502107365572906,3.495600291684033,0.09709273182957387,0,0.05
1757327788.2664115,-0.557,-0.195,9.661,0.3502107365572906,3.495600291684033,0.09709273182957387,0,0.05
1757327788.2927215,-0.557,-0.195,9.661,0.3502107365572906,3.495600291684033,0.09709273182957387,0,0.05
1757327788.3186913,-0.622,0.16,9.769,0.351588921896012,3.7614174912463962,0.10035087719298239,0,0.05
1757327788.3453622,-0.622,0.16,9.769,0.351588921896012,3.7614174912463962,0.10035087719298239,0,0.05
1757327788.3710387,-0.685,-0.104,9.869,0.35325321300732704,4.015842455587688,0.10350877192982448,0,0.05
1757327788.3972442,-0.685,-0.104,9.869,0.35325321300732704,4.015842455587688,0.10350877192982448,0,0.05
1757327788.4228997,-0.79,-0.031,9.749,0.3554547545047049,4.63633067506839,0.10877192982456135,0,0.05
1757327788.4505649,-0.79,-0.031,9.749,0.3554547545047049,4.63633067506839,0.10877192982456135,0,0.05
1757327788.4772093,-0.845,0.162,9.75,0.3579569038306148,5.043003552607602,0.1115288220551378,0,0.05
1757327788.5027144,-0.845,0.162,9.75,0.3579569038306148,5.043003552607602,0.1115288220551378,0,0.05
1757327788.5278242,-0.471,-0.065,10.003,0.35873074512787445,2.7213427278591023,0.13027568922305757,0,0.05
1757327788.5535836,-0.471,-0.065,10.003,0.35873074512787445,2.7213427278591023,0.13027568922305757,0,0.05
1757327788.5793037,-0.47,0.137,9.821,0.35949964881763097,2.8537342061463282,0.1303258145363408,0,0.05
1757327788.605473,-0.47,0.137,9.821,0.35949964881763097,2.8537342061463282,0.1303258145363408,0,0.05
1757327788.63119,-0.732,0.039,9.815,0.3613579354324463,4.271234270358902,0.14345864661654129,0,0.05
1757327788.6589022,-0.732,0.039,9.815,0.3613579354324463,4.271234270358902,0.14345864661654129,0,0.05
1757327788.6843586,-0.798,-0.007,9.972,0.36355407782061805,4.575466723997136,0.14676691729323305,0,0.05
1757327788.7108722,-0.798,-0.007,9.972,0.36355407782061805,4.575466723997136,0.14676691729323305,0,0.05
1757327788.7366812,-0.765,0.059,9.739,0.3655607063129187,4.504653337002181,0.1484210526315789,0,0.05
1757327788.7625751,-0.765,0.059,9.739,0.3655607063129187,4.504653337002181,0.1484210526315789,0,0.05
1757327788.7901077,-0.754,0.219,9.808,0.3674995510201339,4.576942496458409,0.1489724310776942,0,0.05
1757327788.8164015,-0.754,0.219,9.808,0.3674995510201339,4.576942496458409,0.1489724310776942,0,0.05
1757327788.8417451,-0.754,0.219,9.808,0.3674995510201339,4.576942496458409,0.1489724310776942,0,0.05
1757327788.8677392,-0.718,0.112,9.991,0.369248872713242,4.160011336873104,0.15077694235588968,0,0.05
1757327788.8936815,-0.743,0.183,9.918,0.3711129915537854,4.41180753607166,0.15203007518796988,0,0.05
1757327788.9192896,-0.743,0.183,9.918,0.3711129915537854,4.41180753607166,0.15203007518796988,0,0.05
1757327788.9448295,-0.628,-0.128,9.858,0.372439005073314,3.7198149539385805,0.15779448621553877,0,0.05
1757327788.970984,-0.628,-0.128,9.858,0.372439005073314,3.7198149539385805,0.15779448621553877,0,0.05
1757327788.9968119,-0.74,0.156,10.162,0.3742723774205091,4.256153691917396,0.16340852130325806,0,0.05
1757327789.0231729,-0.74,0.156,10.162,0.3742723774205091,4.256153691917396,0.16340852130325806,0,0.05
1757327789.0502033,-0.774,-0.085,9.753,0.3762678600412212,4.564659202558712,0.16511278195488718,0,0.05
1757327789.0764787,-0.774,-0.085,9.753,0.3762678600412212,4.564659202558712,0.16511278195488718,0,0.05
1757327789.1019824,-0.774,-0.085,9.753,0.3762678600412212,4.564659202558712,0.16511278195488718,0,0.05
1757327789.1281192,-0.853,-0.057,9.688,0.37867733626400196,5.042913524106025,0.16907268170426057,0,0.05
1757327789.1544716,-0.853,-0.057,9.688,0.37867733626400196,5.042913524106025,0.16907268170426057,0,0.05
1757327789.1800025,-0.927,0.096,9.674,0.3815034043098436,5.502683918240379,0.172781954887218,0,0.05
1757327789.2062945,-0.927,0.096,9.674,0.3815034043098436,5.502683918240379,0.172781954887218,0,0.05
1757327789.2321546,-0.73,0.161,9.271,0.3832454794253939,4.609924896837776,0.18265664160401,0,0.05
1757327789.2576387,-0.73,0.161,9.271,0.3832454794253939,4.609924896837776,0.18265664160401,0,0.05
1757327789.2831619,-0.646,0.015,9.494,0.3846041958949486,3.8936213136845566,0.18686716791979943,0,0.05
1757327789.3094442,-0.646,0.015,9.494,0.3846041958949486,3.8936213136845566,0.18686716791979943,0,0.05
1757327789.335144,-0.846,-0.038,9.567,0.3869233483520993,5.058531067916473,0.19689223057644104,0,0.05
1757327789.362136,-0.846,-0.038,9.567,0.3869233483520993,5.058531067916473,0.19689223057644104,0,0.05
1757327789.3886108,-0.712,0.076,9.54,0.38855763729464904,4.292406349461143,0.20360902255639096,0,0.05
1757327789.41468,-0.712,0.076,9.54,0.38855763729464904,4.292406349461143,0.20360902255639096,0,0.05
1757327789.4414525,-0.78,0.038,9.516,0.39050997106348,4.691432598948194,0.20701754385964907,0,0.05
1757327789.468099,-0.78,0.038,9.516,0.39050997106348,4.691432598948194,0.20701754385964907,0,0.05
1757327789.4933474,-0.817,-0.031,9.591,0.39264075183302105,4.872417912067653,0.20887218045112776,0,0.05
1757327789.5192368,-0.817,-0.031,9.591,0.39264075183302105,4.872417912067653,0.20887218045112776,0,0.05
1757327789.546038,-0.925,-0.074,9.739,0.3953553117134004,5.442847594025495,0.2142857142857142,0,0.05
1757327789.5728202,-0.925,-0.074,9.739,0.3953553117134004,5.442847594025495,0.2142857142857142,0,0.05
1757327789.5994258,-0.882,-0.184,9.439,0.39780728060205234,5.452579229001798,0.21644110275689216,0,0.05
1757327789.6254005,-0.882,-0.184,9.439,0.39780728060205234,5.452579229001798,0.21644110275689216,0,0.05
1757327789.6516645,-0.88,-0.258,9.45,0.4002332226340038,5.542705492628507,0.2165413533834586,0,0.05
1757327789.678093,-0.88,-0.258,9.45,0.4002332226340038,5.542705492628507,0.2165413533834586,0,0.05
1757327789.7030535,-0.843,-0.221,9.685,0.40244658651801235,5.141809384434202,0.21839598997493728,0,0.05
1757327789.728699,-0.843,-0.221,9.685,0.40244658651801235,5.141809384434202,0.21839598997493728,0,0.05
1757327789.7541938,-0.879,-0.338,9.621,0.4048392983641781,5.590552817207227,0.22020050125313276,0,0.05
1757327789.7811537,-0.879,-0.338,9.621,0.4048392983641781,5.590552817207227,0.22020050125313276,0,0.05
1757327789.806755,-1.024,-0.246,9.789,0.40806408504057295,6.14045987693179,0.22746867167919793,0,0.05
1757327789.833177,-1.024,-0.246,9.789,0.40806408504057295,6.14045987693179,0.22746867167919793,0,0.05
1757327789.859573,-0.701,-0.078,9.948,0.4095666002007488,4.055558772075907,0.2436591478696741,0,0.05
1757327789.8847573,-0.701,-0.078,9.948,0.4095666002007488,4.055558772075907,0.2436591478696741,0,0.05
1757327789.909815,-0.701,-0.078,9.948,0.4095666002007488,4.055558772075907,0.2436591478696741,0,0.05
1757327789.936024,-0.814,-0.182,9.544,0.4115838796648868,4.994676791677935,0.24932330827067664,0,0.05
1757327789.9634137,-0.814,-0.182,9.544,0.4115838796648868,4.994676791677935,0.24932330827067664,0,0.05
1757327789.9894483,-1.003,-0.256,9.913,0.4146279205504617,5.961445460106383,0.258796992481203,0,0.05
1757327790.0154047,-1.003,-0.256,9.913,0.4146279205504617,5.961445460106383,0.258796992481203,0,0.05
1757327790.0425344,-0.815,-0.386,10.022,0.4166255813077252,5.141673834552044,0.2682205513784461,0,0.05
1757327790.0705204,-0.815,-0.386,10.022,0.4166255813077252,5.141673834552044,0.2682205513784461,0,0.05
1757327790.0968113,-0.831,-0.208,9.893,0.41869234229921143,4.948903222817847,0.26902255639097744,0,0.05
1757327790.1227477,-0.831,-0.208,9.893,0.41869234229921143,4.948903222817847,0.26902255639097744,0,0.05
1757327790.1494994,-0.74,-0.437,9.869,0.42032401489803073,4.976807587176931,0.2735839598997494,0,0.05
1757327790.1753552,-0.74,-0.437,9.869,0.42032401489803073,4.976807587176931,0.2735839598997494,0,0.05
1757327790.2022672,-0.88,-0.307,10.006,0.4226207253554894,5.321486961472306,0.2806015037593984,0,0.05
1757327790.2289789,-0.88,-0.307,10.006,0.4226207253554894,5.321486961472306,0.2806015037593984,0,0.05
1757327790.2550092,-0.853,-0.223,9.728,0.4247673480859846,5.178680415264537,0.28195488721804507,0,0.05
1757327790.2816596,-0.853,-0.223,9.728,0.4247673480859846,5.178680415264537,0.28195488721804507,0,0.05
1757327790.3073714,-0.778,-0.232,9.587,0.4265448511000924,4.840422517507568,0.2857142857142857,0,0.05
1757327790.333621,-0.778,-0.232,9.587,0.4265448511000924,4.840422517507568,0.2857142857142857,0,0.05
1757327790.3599222,-0.778,-0.232,9.587,0.4265448511000924,4.840422517507568,0.2857142857142857,0,0.05
1757327790.3860674,-0.872,-0.271,9.546,0.4287673844872065,5.464107687267466,0.29042606516290725,0,0.05
1757327790.4128313,-0.79,-0.135,9.603,0.430583000128895,4.770762685393775,0.2945363408521302,0,0.05
1757327790.4386535,-0.79,-0.135,9.603,0.430583000128895,4.770762685393775,0.2945363408521302,0,0.05
1757327790.4652371,-0.745,-0.223,9.502,0.43219125685279663,4.6787532440714195,0.29679197994987466,0,0.05
1757327790.4911668,-0.745,-0.223,9.502,0.43219125685279663,4.6787532440714195,0.29679197994987466,0,0.05
1757327790.5177882,-0.768,-0.003,9.595,0.43389381477499767,4.5763293965267975,0.2979448621553884,0,0.05
1757327790.543772,-0.768,-0.003,9.595,0.43389381477499767,4.5763293965267975,0.2979448621553884,0,0.05
1757327790.5697918,-0.768,-0.003,9.595,0.43389381477499767,4.5763293965267975,0.2979448621553884,0,0.05
1757327790.5957496,-0.64,-0.019,9.56,0.4350722267624078,3.8316682858406175,0.30436090225563905,0,0.05
1757327790.621699,-0.809,0.235,9.584,0.4369485610458055,5.02342893085577,0.3128320802005012,0,0.05
1757327790.6485531,-0.809,0.235,9.584,0.4369485610458055,5.02342893085577,0.3128320802005012,0,0.05
1757327790.6750288,-0.799,0.142,9.557,0.43877106502138447,4.853553413870489,0.31333333333333324,0,0.05
1757327790.701196,-0.799,0.142,9.557,0.43877106502138447,4.853553413870489,0.31333333333333324,0,0.05
1757327790.7278636,-0.915,0.415,9.701,0.4411497591521501,5.912932303186221,0.3191478696741854,0,0.05
1757327790.7544334,-0.915,0.415,9.701,0.4411497591521501,5.912932303186221,0.3191478696741854,0,0.05
1757327790.7813506,-0.606,0.235,9.585,0.4421890998204275,3.8793545144202617,0.3346365914786967,0,0.05
1757327790.8071904,-0.606,0.235,9.585,0.4421890998204275,3.8793545144202617,0.3346365914786967,0,0.05
1757327790.8332539,-0.684,0.469,9.61,0.4435096842234677,4.932430636239242,0.33854636591478693,0,0.05
1757327790.8589542,-0.684,0.469,9.61,0.4435096842234677,4.932430636239242,0.33854636591478693,0,0.05
1757327790.8842885,-0.612,0.226,9.628,0.4445640561268983,3.87645014409118,0.3421553884711779,0,0.05
1757327790.910785,-0.612,0.226,9.628,0.4445640561268983,3.87645014409118,0.3421553884711779,0,0.05
1757327790.9379807,-0.612,0.226,9.628,0.4445640561268983,3.87645014409118,0.3421553884711779,0,0.05
1757327790.9644115,-0.764,0.3,9.694,0.4462022411418392,4.839683865109599,0.34977443609022557,0,0.05
1757327790.9907238,-0.764,0.3,9.694,0.4462022411418392,4.839683865109599,0.34977443609022557,0,0.05
1757327791.0166402,-0.888,0.464,9.612,0.4484058429592549,5.950803083099842,0.35598997493734336,0,0.05
1757327791.0435936,-0.888,0.464,9.612,0.4484058429592549,5.950803083099842,0.35598997493734336,0,0.05
1757327791.0702572,-0.736,0.213,9.303,0.449913369439051,4.7082942774087835,0.36360902255639094,0,0.05
1757327791.0961132,-0.736,0.213,9.303,0.449913369439051,4.7082942774087835,0.36360902255639094,0,0.05
1757327791.1222763,-0.721,0.206,9.856,0.4513553395053614,4.350721192165072,0.3643609022556391,0,0.05
1757327791.148257,-0.721,0.206,9.856,0.4513553395053614,4.350721192165072,0.3643609022556391,0,0.05
1757327791.1745546,-0.586,0.182,9.339,0.4523053531631038,3.7591745407484014,0.3711278195488722,0,0.05
1757327791.2006643,-0.586,0.182,9.339,0.4523053531631038,3.7591745407484014,0.3711278195488722,0,0.05
1757327791.2267992,-0.673,0.07,9.574,0.45355534943378184,4.042586767795109,0.37548872180451126,0,0.05
1757327791.2533832,-0.673,0.07,9.574,0.45355534943378184,4.042586767795109,0.37548872180451126,0,0.05
1757327791.279746,-0.613,0.042,9.745,0.45458979036049635,3.6078105622585666,0.3784962406015037,0,0.05
1757327791.3069813,-0.613,0.042,9.745,0.45458979036049635,3.6078105622585666,0.3784962406015037,0,0.05
1757327791.3338933,-0.862,0.267,9.816,0.4566283910358619,5.2525486075734085,0.39097744360902253,0,0.05
1757327791.3610384,-0.862,0.267,9.816,0.4566283910358619,5.2525486075734085,0.39097744360902253,0,0.05
1757327791.387008,-0.694,0.3,9.755,0.45794495029424664,4.4318778575816715,0.39939849624060153,0,0.05
1757327791.4134254,-0.694,0.3,9.755,0.45794495029424664,4.4318778575816715,0.39939849624060153,0,0.05
1757327791.4395995,-0.809,0.271,9.81,0.45972794128701816,4.970552105846518,0.4051629072681704,0,0.05
1757327791.4656978,-0.809,0.271,9.81,0.45972794128701816,4.970552105846518,0.4051629072681704,0,0.05
1757327791.4910986,-0.621,-0.026,9.699,0.4607753058704427,3.6666895158930877,0.4145864661654135,0,0.05
1757327791.5183847,-0.621,-0.026,9.699,0.4607753058704427,3.6666895158930877,0.4145864661654135,0,0.05
1757327791.5452156,-0.717,0.117,9.607,0.4621678320696931,4.324488056362107,0.41939849624060144,0,0.05
1757327791.572047,-0.717,0.117,9.607,0.4621678320696931,4.324488056362107,0.41939849624060144,0,0.05
1757327791.5987165,-0.668,-0.02,9.612,0.4633731379784547,3.977237764048862,0.4218546365914786,0,0.05
1757327791.624301,-0.668,-0.02,9.612,0.4633731379784547,3.977237764048862,0.4218546365914786,0,0.05
1757327791.6499255,-0.862,0.075,9.695,0.4653732641654439,5.100005338385467,0.431578947368421,0,0.05
1757327791.67559,-0.862,0.075,9.695,0.4653732641654439,5.100005338385467,0.431578947368421,0,0.05
1757327791.7027004,-1.006,0.049,9.476,0.4680837158030602,6.0671204824841265,0.43879699248120296,0,0.05
1757327791.7292354,-1.006,0.049,9.476,0.4680837158030602,6.0671204824841265,0.43879699248120296,0,0.05
1757327791.7562225,-0.74,0.042,9.516,0.46954378390092655,4.453714310743059,0.4521303258145362,0,0.05
1757327791.782993,-0.74,0.042,9.516,0.46954378390092655,4.453714310743059,0.4521303258145362,0,0.05
1757327791.8088164,-0.707,0.015,9.571,0.47087258096007245,4.225654974275884,0.45378446115288207,0,0.05
1757327791.8344717,-0.707,0.015,9.571,0.47087258096007245,4.225654974275884,0.45378446115288207,0,0.05
1757327791.860724,-0.78,-0.138,9.741,0.472484907166356,4.648919692302397,0.45744360902255626,0,0.05
1757327791.8874712,-0.78,-0.138,9.741,0.472484907166356,4.648919692302397,0.45744360902255626,0,0.05
1757327791.913222,-0.758,0.017,9.524,0.4740025290016922,4.551627465069794,0.45854636591478687,0,0.05
1757327791.9402738,-0.758,0.017,9.524,0.4740025290016922,4.551627465069794,0.45854636591478687,0,0.05
1757327791.966401,-0.766,0.179,9.328,0.4755473556860557,4.8203862072802295,0.45894736842105266,0,0.05
1757327791.9918914,-0.766,0.179,9.328,0.4755473556860557,4.8203862072802295,0.45894736842105266,0,0.05
1757327792.0179477,-0.766,0.179,9.328,0.4755473556860557,4.8203862072802295,0.45894736842105266,0,0.05
1757327792.0440893,-0.709,-0.294,9.294,0.47686684724354667,4.7210252654727,0.46180451127819544,0,0.05
1757327792.0709488,-0.709,-0.294,9.294,0.47686684724354667,4.7210252654727,0.46180451127819544,0,0.05
1757327792.0970795,-0.803,-0.178,9.318,0.4785540852401116,5.04437591092075,0.466516290726817,0,0.05
1757327792.1241536,-0.803,-0.178,9.318,0.4785540852401116,5.04437591092075,0.466516290726817,0,0.05
1757327792.1510332,-0.879,-0.007,9.426,0.4805680128764294,5.327747054947769,0.47032581453634087,0,0.05
1757327792.1769102,-0.879,-0.007,9.426,0.4805680128764294,5.327747054947769,0.47032581453634087,0,0.05
1757327792.2031517,-0.428,-0.218,9.511,0.48104425472091444,2.8910724513781503,0.49293233082706767,0,0.05
1757327792.2292585,-0.428,-0.218,9.511,0.48104425472091444,2.8910724513781503,0.49293233082706767,0,0.05
1757327792.2545898,-0.655,0.07,9.721,0.48215779315489654,3.8766411212048584,0.5043107769423559,0,0.05
1757327792.2808127,-0.655,0.07,9.721,0.48215779315489654,3.8766411212048584,0.5043107769423559,0,0.05
1757327792.3069706,-0.869,-0.198,9.64,0.48411159870426573,5.282296253732422,0.5150375939849624,0,0.05
1757327792.333019,-0.869,-0.198,9.64,0.48411159870426573,5.282296253732422,0.5150375939849624,0,0.05
1757327792.359591,-0.908,0.012,9.85,0.48623574529234276,5.267254525866417,0.5169924812030076,0,0.05
1757327792.3854737,-0.908,0.012,9.85,0.48623574529234276,5.267254525866417,0.5169924812030076,0,0.05
1757327792.4108396,-0.943,-0.316,9.663,0.48851645059301735,5.876318859996232,0.5187468671679197,0,0.05
1757327792.4366293,-0.943,-0.316,9.663,0.48851645059301735,5.876318859996232,0.5187468671679197,0,0.05
1757327792.4640286,-0.797,-0.068,9.764,0.490139107805121,4.683380283644607,0.5260651629072681,0,0.05
1757327792.490402,-0.797,-0.068,9.764,0.490139107805121,4.683380283644607,0.5260651629072681,0,0.05
1757327792.517181,-0.795,-0.185,9.709,0.4917483172314878,4.805589658666982,0.5261654135338345,0,0.05
1757327792.5433326,-0.795,-0.185,9.709,0.4917483172314878,4.805589658666982,0.5261654135338345,0,0.05
1757327792.569358,-0.734,-0.268,9.754,0.4931159067602666,4.580202608708082,0.5292230576441102,0,0.05
1757327792.5964892,-0.734,-0.268,9.754,0.4931159067602666,4.580202608708082,0.5292230576441102,0,0.05
1757327792.623401,-0.703,-0.085,9.712,0.4943670903286342,4.170162943388674,0.5307769423558896,0,0.05
1757327792.6523726,-0.703,-0.085,9.712,0.4943670903286342,4.170162943388674,0.5307769423558896,0,0.05
1757327792.6789,-0.711,-0.246,9.606,0.4956436446682233,4.4783372111769415,0.5311779448621552,0,0.05
1757327792.707245,-0.711,-0.246,9.606,0.4956436446682233,4.4783372111769415,0.5311779448621552,0,0.05
1757327792.735811,-0.714,-0.031,9.538,0.4969276733087019,4.285107167552079,0.531328320802005,0,0.05
1757327792.7612138,-0.714,-0.031,9.538,0.4969276733087019,4.285107167552079,0.531328320802005,0,0.05
1757327792.7867494,-0.834,-0.251,9.411,0.49867424487334416,5.287442611170038,0.53734335839599,0,0.05
1757327792.8128371,-0.834,-0.251,9.411,0.49867424487334416,5.287442611170038,0.53734335839599,0,0.05
1757327792.8384852,-0.989,0.093,9.506,0.5011200504869068,5.965672368545391,0.5451127819548871,0,0.05
1757327792.864536,-0.989,0.093,9.506,0.5011200504869068,5.965672368545391,0.5451127819548871,0,0.05
1757327792.890846,-0.712,-0.198,9.689,0.5023829863759322,4.3617298704975,0.5589974937343358,0,0.05
1757327792.9169924,-0.712,-0.198,9.689,0.5023829863759322,4.3617298704975,0.5589974937343358,0,0.05
1757327792.9423456,-0.915,0.288,9.754,0.5044618196652746,5.616676281793297,0.5691729323308271,0,0.05
1757327792.9685612,-0.915,0.288,9.754,0.5044618196652746,5.616676281793297,0.5691729323308271,0,0.05
1757327792.9941702,-0.771,-0.013,9.736,0.5059326338555361,4.528480788426675,0.5763909774436089,0,0.05
1757327793.0207765,-0.771,-0.013,9.736,0.5059326338555361,4.528480788426675,0.5763909774436089,0,0.05
1757327793.046782,-0.771,-0.013,9.736,0.5059326338555361,4.528480788426675,0.5763909774436089,0,0.05
1757327793.0743208,-0.963,0.336,9.692,0.5082187053818464,6.007388094441491,0.586015037593985,0,0.05
1757327793.1009138,-0.884,-0.022,9.586,0.5101371310735967,5.270412175041092,0.5899749373433584,0,0.05
1757327793.12762,-0.884,-0.022,9.586,0.5101371310735967,5.270412175041092,0.5899749373433584,0,0.05
1757327793.154298,-1.004,0.076,9.655,0.5126011436780062,5.953574363686853,0.5959899749373434,0,0.05
1757327793.1809757,-1.004,0.076,9.655,0.5126011436780062,5.953574363686853,0.5959899749373434,0,0.05
1757327793.2072678,-0.852,-0.095,9.985,0.5143682460066912,4.907197431159695,0.6036090225563909,0,0.05
1757327793.232969,-0.852,-0.095,9.985,0.5143682460066912,4.907197431159695,0.6036090225563909,0,0.05
1757327793.2590334,-0.852,-0.095,9.985,0.5143682460066912,4.907197431159695,0.6036090225563909,0,0.05
1757327793.2848353,-0.793,-0.165,9.904,0.5158941897327397,4.675444901857678,0.6065664160401003,0,0.05
1757327793.3122628,-0.793,-0.165,9.904,0.5158941897327397,4.675444901857678,0.6065664160401003,0,0.05
1757327793.3388345,-0.955,-0.09,10.054,0.5180992930896547,5.449975985718405,0.61468671679198,0,0.05
1757327793.3643785,-0.955,-0.09,10.054,0.5180992930896547,5.449975985718405,0.61468671679198,0,0.05
1757327793.3912327,-1.079,0.099,10.21,0.5209006431172839,6.057817782221948,0.6209022556390977,0,0.05
1757327793.4184089,-1.079,0.099,10.21,0.5209006431172839,6.057817782221948,0.6209022556390977,0,0.05
1757327793.4462101,-1.318,-0.214,9.958,0.5250526545023843,7.637190763182565,0.6328822055137845,0,0.05
1757327793.4725344,-1.318,-0.214,9.958,0.5250526545023843,7.637190763182565,0.6328822055137845,0,0.05
1757327793.498826,-1.069,0.012,10.002,0.5277662290256928,6.100916996937828,0.6453634085213033,0,0.05
1757327793.525296,-1.069,0.012,10.002,0.5277662290256928,6.100916996937828,0.6453634085213033,0,0.05
1757327793.551708,-0.591,0.309,9.846,0.528592844257279,3.874929428726998,0.6693233082706767,0,0.05
1757327793.5783842,-0.591,0.309,9.846,0.528592844257279,3.874929428726998,0.6693233082706767,0,0.05
1757327793.6042225,-0.22,-0.307,9.893,0.5287072866908494,2.1863421396847635,0.6879197994987468,0,0.05
1757327793.6299675,-0.22,-0.307,9.893,0.5287072866908494,2.1863421396847635,0.6879197994987468,0,0.05
1757327793.6552691,-0.635,0.232,9.9,0.5296597563530762,3.9065654007866004,0.7087218045112781,0,0.05
1757327793.6819375,-0.635,0.232,9.9,0.5296597563530762,3.9065654007866004,0.7087218045112781,0,0.05
1757327793.7085412,-0.479,0.032,9.8,0.5302009619002968,2.8044778770711942,0.7165413533834586,0,0.05
1757327793.7349026,-0.479,0.032,9.8,0.5302009619002968,2.8044778770711942,0.7165413533834586,0,0.05
1757327793.760267,-0.432,-0.072,10.036,0.5306407636056619,2.4987331783057196,0.7188972431077694,0,0.05
1757327793.7867868,-0.432,-0.072,10.036,0.5306407636056619,2.4987331783057196,0.7188972431077694,0,0.05
1757327793.8127613,-0.846,-0.076,9.879,0.5323240648326919,4.914265440882557,0.7396491228070176,0,0.05
1757327793.8385415,-0.846,-0.076,9.879,0.5323240648326919,4.914265440882557,0.7396491228070176,0,0.05
1757327793.864407,-1.079,-0.263,9.774,0.5350509438361921,6.482541924573282,0.7513283208020051,0,0.05
1757327793.8909993,-1.079,-0.263,9.774,0.5350509438361921,6.482541924573282,0.7513283208020051,0,0.05
1757327793.9180977,-0.831,-0.107,9.933,0.536661825547523,4.821553484385596,0.7637593984962406,0,0.05
1757327793.9446297,-0.831,-0.107,9.933,0.536661825547523,4.821553484385596,0.7637593984962406,0,0.05
1757327793.970199,-0.75,-0.236,9.727,0.5379704127551997,4.621294114439502,0.7678195488721803,0,0.05
1757327793.9962153,-0.75,-0.236,9.727,0.5379704127551997,4.621294114439502,0.7678195488721803,0,0.05
1757327794.0236561,-0.805,-0.161,9.892,0.5394740285685679,4.74413436871121,0.770576441102757,0,0.05
1757327794.0502863,-0.805,-0.161,9.892,0.5394740285685679,4.74413436871121,0.770576441102757,0,0.05
1757327794.0767004,-0.756,-0.239,10.041,0.5407966970128424,4.514943455210671,0.7730325814536342,0,0.05
1757327794.1029713,-0.756,-0.239,10.041,0.5407966970128424,4.514943455210671,0.7730325814536342,0,0.05
1757327794.130074,-0.924,-0.11,10.021,0.5427665313005214,5.305127489015057,0.7814536340852131,0,0.05
1757327794.1565819,-0.924,-0.11,10.021,0.5427665313005214,5.305127489015057,0.7814536340852131,0,0.05
1757327794.1825922,-0.701,-0.188,10.107,0.5438970582748173,4.107293700315418,0.7926315789473686,0,0.05
1757327794.2088823,-0.701,-0.188,10.107,0.5438970582748173,4.107293700315418,0.7926315789473686,0,0.05
1757327794.2342963,-0.393,-0.03,10.219,0.5442519016962641,2.2087840019015927,0.8080701754385965,0,0.05
1757327794.2604015,-0.393,-0.03,10.219,0.5442519016962641,2.2087840019015927,0.8080701754385965,0,0.05
1757327794.287389,-0.327,-0.342,10.079,0.5444974334191117,2.6878602953933157,0.8113784461152884,0,0.05
1757327794.3137226,-0.327,-0.342,10.079,0.5444974334191117,2.6878602953933157,0.8113784461152884,0,0.05
1757327794.3412957,-0.327,-0.342,10.079,0.5444974334191117,2.6878602953933157,0.8113784461152884,0,0.05
1757327794.3683884,-0.451,0.079,10.063,0.5449641800155309,2.6051628449423356,0.8175939849624062,0,0.05
1757327794.3939116,-0.394,-0.035,10.055,0.5453201330411339,2.2527849130898066,0.8204511278195491,0,0.05
1757327794.4211907,-0.394,-0.035,10.055,0.5453201330411339,2.2527849130898066,0.8204511278195491,0,0.05
1757327794.4477894,-0.547,-0.238,10.017,0.5460055585797638,3.408063348272081,0.8281203007518799,0,0.05
1757327794.473954,-0.547,-0.238,10.017,0.5460055585797638,3.408063348272081,0.8281203007518799,0,0.05
1757327794.5009048,-0.547,-0.238,10.017,0.5460055585797638,3.408063348272081,0.8281203007518799,0,0.05
1757327794.5273988,-0.753,-0.126,9.884,0.5473021035040885,4.416922971306704,0.8384461152882206,0,0.05
1757327794.5540102,-0.753,-0.126,9.884,0.5473021035040885,4.416922971306704,0.8384461152882206,0,0.05
1757327794.5796554,-0.923,0.023,9.86,0.549244403703852,5.34955500979387,0.846967418546366,0,0.05
1757327794.6057103,-0.923,0.023,9.86,0.549244403703852,5.34955500979387,0.846967418546366,0,0.05
1757327794.633093,-0.587,0.08,9.838,0.5500280333764817,3.446085640253946,0.8638095238095239,0,0.05
1757327794.658831,-0.587,0.08,9.838,0.5500280333764817,3.446085640253946,0.8638095238095239,0,0.05
1757327794.684781,-0.58,-0.041,9.752,0.5507920092920738,3.4121293106765442,0.8641604010025061,0,0.05
1757327794.7109942,-0.58,-0.041,9.752,0.5507920092920738,3.4121293106765442,0.8641604010025061,0,0.05
1757327794.7366338,-0.636,0.111,9.789,0.5517092327485557,3.7733622657798342,0.8669674185463658,0,0.05
1757327794.7633436,-0.636,0.111,9.789,0.5517092327485557,3.7733622657798342,0.8669674185463658,0,0.05
1757327794.790289,-0.633,-0.026,9.703,0.5526163225964286,3.7356857660426517,0.8671177944862156,0,0.05
1757327794.8164659,-0.633,-0.026,9.703,0.5526163225964286,3.7356857660426517,0.8671177944862156,0,0.05
1757327794.8422031,-0.642,-0.047,9.659,0.5535478389443861,3.812803784392258,0.8675689223057644,0,0.05
1757327794.868234,-0.642,-0.047,9.659,0.5535478389443861,3.812803784392258,0.8675689223057644,0,0.05
1757327794.894537,-0.714,0.013,9.681,0.5546978456781674,4.218778701604273,0.8711779448621553,0,0.05
1757327794.9215093,-0.714,0.013,9.681,0.5546978456781674,4.218778701604273,0.8711779448621553,0,0.05
1757327794.9475303,-0.64,-0.029,9.656,0.5556201040279231,3.7958993846173854,0.8748872180451129,0,0.05
1757327794.9746182,-0.64,-0.029,9.656,0.5556201040279231,3.7958993846173854,0.8748872180451129,0,0.05
1757327795.0008318,-0.618,-0.004,9.67,0.5564786698517743,3.6568191091339455,0.8759899749373434,0,0.05
1757327795.0267134,-0.618,-0.004,9.67,0.5564786698517743,3.6568191091339455,0.8759899749373434,0,0.05
1757327795.052514,-0.593,-0.069,9.698,0.5572680077844053,3.5226354469148595,0.8772431077694236,0,0.05
1757327795.0793002,-0.593,-0.069,9.698,0.5572680077844053,3.5226354469148595,0.8772431077694236,0,0.05
1757327795.1061776,-0.286,-0.003,9.806,0.5574514530432224,1.670696475252942,0.8926315789473684,0,0.05
1757327795.1329982,-0.286,-0.003,9.806,0.5574514530432224,1.670696475252942,0.8926315789473684,0,0.05
1757327795.1594946,-0.305,0.016,9.717,0.5576600084280744,1.8002966323655558,0.8935839598997493,0,0.05
1757327795.187406,-0.305,0.016,9.717,0.5576600084280744,1.8002966323655558,0.8935839598997493,0,0.05
1757327795.2139318,-0.452,0.021,9.682,0.5581177698299885,2.6757671445429847,0.9009523809523808,0,0.05
1757327795.2400234,-0.452,0.021,9.682,0.5581177698299885,2.6757671445429847,0.9009523809523808,0,0.05
1757327795.265899,-0.455,0.063,9.676,0.558581245209683,2.7179151874923226,0.9011027568922305,0,0.05
1757327795.2921746,-0.455,0.063,9.676,0.558581245209683,2.7179151874923226,0.9011027568922305,0,0.05
1757327795.3188515,-0.574,-0.028,9.664,0.5593180647002205,3.4031614931078433,0.9070676691729322,0,0.05
1757327795.344589,-0.574,-0.028,9.664,0.5593180647002205,3.4031614931078433,0.9070676691729322,0,0.05
1757327795.3710794,-0.611,-0.021,9.721,0.5601517651494102,3.5986338485880616,0.9089223057644109,0,0.05
1757327795.3972666,-0.611,-0.021,9.721,0.5601517651494102,3.5986338485880616,0.9089223057644109,0,0.05
1757327795.4240313,-0.917,-0.168,9.666,0.5620251084248816,5.508999588963826,0.9242606516290726,0,0.05
1757327795.4501214,-0.917,-0.168,9.666,0.5620251084248816,5.508999588963826,0.9242606516290726,0,0.05
1757327795.475713,-0.686,-0.1,9.68,0.563070788178538,4.096344777925152,0.9358395989974938,0,0.05
1757327795.502688,-0.686,-0.1,9.68,0.563070788178538,4.096344777925152,0.9358395989974938,0,0.05
1757327795.5300019,-0.632,-0.126,9.771,0.5639568002072499,3.7734278398643313,0.9385463659147869,0,0.05
1757327795.5562181,-0.632,-0.126,9.771,0.5639568002072499,3.7734278398643313,0.9385463659147869,0,0.05
1757327795.5820882,-0.668,-0.095,9.667,0.5649449818345146,3.9925620266894586,0.9403508771929824,0,0.05
1757327795.607673,-0.668,-0.095,9.667,0.5649449818345146,3.9925620266894586,0.9403508771929824,0,0.05
1757327795.6337667,-0.668,-0.095,9.667,0.5649449818345146,3.9925620266894586,0.9403508771929824,0,0.05
1757327795.660536,-0.638,-0.035,9.648,0.5658448926163423,3.7890017031776533,0.9418546365914788,0,0.05
1757327795.6875453,-0.638,-0.035,9.648,0.5658448926163423,3.7890017031776533,0.9418546365914788,0,0.05
1757327795.7154732,-0.717,-0.135,9.487,0.5669794220251737,4.3976804261755795,0.9458145363408521,0,0.05
1757327795.7415972,-0.717,-0.135,9.487,0.5669794220251737,4.3976804261755795,0.9458145363408521,0,0.05
1757327795.7694194,-0.485,0.158,9.633,0.5674977775286878,3.0310990000170484,0.9574436090225563,0,0.05
1757327795.7962348,-0.485,0.158,9.633,0.5674977775286878,3.0310990000170484,0.9574436090225563,0,0.05
1757327795.8233447,-0.289,0.095,9.723,0.5676817154004522,1.7920887626894635,0.9672681704260652,0,0.05
1757327795.8504252,-0.289,0.095,9.723,0.5676817154004522,1.7920887626894635,0.9672681704260652,0,0.05
1757327795.8769128,-0.355,-0.009,9.813,0.5679591468582929,2.072522409229391,0.970576441102757,0,0.05
1757327795.902321,-0.355,-0.009,9.813,0.5679591468582929,2.072522409229391,0.970576441102757,0,0.05
1757327795.9290626,-0.569,-0.04,9.66,0.5686712538892748,3.3792806883166824,0.9813032581453633,0,0.05
1757327795.9552906,-0.569,-0.04,9.66,0.5686712538892748,3.3792806883166824,0.9813032581453633,0,0.05
1757327795.9804108,-0.589,-0.022,9.564,0.5694333126012211,3.526567337319181,0.9823057644110275,0,0.05
1757327796.0064785,-0.589,-0.022,9.564,0.5694333126012211,3.526567337319181,0.9823057644110275,0,0.05
1757327796.032907,-0.633,-0.25,9.716,0.5703122127396537,4.006871761581857,0.9845112781954886,0,0.05
1757327796.0592253,-0.633,-0.25,9.716,0.5703122127396537,4.006871761581857,0.9845112781954886,0,0.05
1757327796.0848107,-1.162,-0.31,9.656,0.5732640142203241,7.099544532649176,1.0110275689223056,0,0.05
1757327796.1111522,-1.162,-0.31,9.656,0.5732640142203241,7.099544532649176,1.0110275689223056,0,0.05
1757327796.1373503,-0.993,-0.24,9.594,0.5754100733390058,6.078084651209841,1.0194987468671677,0,0.05
1757327796.1637967,-0.993,-0.24,9.594,0.5754100733390058,6.078084651209841,1.0194987468671677,0,0.05
1757327796.1905699,-0.796,-0.341,9.801,0.576784875408501,5.049248415601105,1.0293734335839597,0,0.05
1757327796.216677,-0.796,-0.341,9.801,0.576784875408501,5.049248415601105,1.0293734335839597,0,0.05
1757327796.2430162,-0.931,-0.29,9.717,0.5786602587010793,5.730564572711879,1.036140350877193,0,0.05
1757327796.2692177,-0.931,-0.29,9.717,0.5786602587010793,5.730564572711879,1.036140350877193,0,0.05
1757327796.2948916,-0.635,-0.164,9.67,0.5795306355146378,3.8799570486189525,1.0509774436090225,0,0.05
1757327796.3220499,-0.635,-0.164,9.67,0.5795306355146378,3.8799570486189525,1.0509774436090225,0,0.05
1757327796.3488667,-0.397,-0.058,9.73,0.5798704855396591,2.361241174109136,1.062907268170426,0,0.05
1757327796.3754847,-0.397,-0.058,9.73,0.5798704855396591,2.361241174109136,1.062907268170426,0,0.05
1757327796.4028199,-0.482,0.201,9.666,0.5803710795689254,3.0925468276908576,1.0671679197994985,0,0.05
1757327796.4288216,-0.482,0.201,9.666,0.5803710795689254,3.0925468276908576,1.0671679197994985,0,0.05
1757327796.4563518,-0.395,0.043,9.567,0.5807070281131441,2.378223406736459,1.0715288220551378,0,0.05
1757327796.4829574,-0.395,0.043,9.567,0.5807070281131441,2.378223406736459,1.0715288220551378,0,0.05
1757327796.5095413,-0.483,0.099,9.654,0.5812089770469827,2.9236253918839705,1.07593984962406,0,0.05
1757327796.5366707,-0.483,0.099,9.654,0.5812089770469827,2.9236253918839705,1.07593984962406,0,0.05
1757327796.5631707,-0.765,0.196,9.603,0.582466254387325,4.7011800844040925,1.0900751879699246,0,0.05
1757327796.590118,-0.765,0.196,9.603,0.582466254387325,4.7011800844040925,1.0900751879699246,0,0.05
1757327796.6160853,-0.676,0.075,9.691,0.583446122191244,4.014632254206542,1.0945363408521303,0,0.05
1757327796.6422443,-0.676,0.075,9.691,0.583446122191244,4.014632254206542,1.0945363408521303,0,0.05
1757327796.6685598,-0.68,0.216,9.776,0.5844359481585643,4.174215840067605,1.094736842105263,0,0.05
1757327796.6952295,-0.68,0.216,9.776,0.5844359481585643,4.174215840067605,1.094736842105263,0,0.05
1757327796.7208564,-0.566,0.21,9.615,0.5851207289953074,3.5927431197072335,1.1004511278195488,0,0.05
1757327796.7473218,-0.566,0.21,9.615,0.5851207289953074,3.5927431197072335,1.1004511278195488,0,0.05
1757327796.7746818,-0.619,0.071,9.723,0.585938708398754,3.6665518367581145,1.1031077694235585,0,0.05
1757327796.8029027,-0.619,0.071,9.723,0.585938708398754,3.6665518367581145,1.1031077694235585,0,0.05
1757327796.8290799,-0.41,0.037,9.647,0.586297211318628,2.4434985231820385,1.1135839598997495,0,0.05
1757327796.8562734,-0.41,0.037,9.647,0.586297211318628,2.4434985231820385,1.1135839598997495,0,0.05
1757327796.8825915,-0.41,0.037,9.647,0.586297211318628,2.4434985231820385,1.1135839598997495,0,0.05
1757327796.9099238,-0.542,0.122,9.742,0.5869231891823665,3.2638944784645796,1.1202005012531329,0,0.05
1757327796.9375634,-0.286,0.079,9.807,0.5870973684151548,1.7329523241361535,1.133032581453634,0,0.05
1757327796.9639282,-0.286,0.079,9.807,0.5870973684151548,1.7329523241361535,1.133032581453634,0,0.05
1757327796.9909885,-0.678,-0.08,9.979,0.5880752757938391,3.913735835542394,1.1526817042606519,0,0.05
1757327797.0196753,-0.678,-0.08,9.979,0.5880752757938391,3.913735835542394,1.1526817042606519,0,0.05
1757327797.0471454,-0.518,0.004,9.786,0.5886453431396531,3.0300861960617715,1.160701754385965,0,0.05
1757327797.0743911,-0.518,0.004,9.786,0.5886453431396531,3.0300861960617715,1.160701754385965,0,0.05
1757327797.100439,-0.544,-0.181,9.845,0.5892734339845976,3.332840754527803,1.1620050125313282,0,0.05
1757327797.126822,-0.544,-0.181,9.845,0.5892734339845976,3.332840754527803,1.1620050125313282,0,0.05
1757327797.1526423,-0.521,-0.219,9.76,0.5898489488843732,3.3140337943817815,1.163157894736842,0,0.05
1757327797.179951,-0.521,-0.219,9.76,0.5898489488843732,3.3140337943817815,1.163157894736842,0,0.05
1757327797.2066884,-0.706,-0.197,9.819,0.5909042837042222,4.26910489116969,1.1724310776942353,0,0.05
1757327797.2334135,-0.706,-0.197,9.819,0.5909042837042222,4.26910489116969,1.1724310776942353,0,0.05
1757327797.2599442,-0.959,-0.51,9.922,0.5928465863948278,6.24738378364089,1.185112781954887,0,0.05
1757327797.286958,-0.959,-0.51,9.922,0.5928465863948278,6.24738378364089,1.185112781954887,0,0.05
1757327797.3132517,-0.959,-0.51,9.922,0.5928465863948278,6.24738378364089,1.185112781954887,0,0.05
1757327797.3388047,-0.626,-0.315,9.902,0.5936722707016052,4.048196686494146,1.2018045112781954,0,0.05
1757327797.3646293,-0.342,-0.244,9.783,0.5939184918825141,2.458986679348493,1.2160401002506265,0,0.05
1757327797.3922176,-0.342,-0.244,9.783,0.5939184918825141,2.458986679348493,1.2160401002506265,0,0.05
1757327797.4187124,-0.526,-0.134,9.876,0.5945005172411543,3.14589901976427,1.2252631578947368,0,0.05
1757327797.4463522,-0.526,-0.134,9.876,0.5945005172411543,3.14589901976427,1.2252631578947368,0,0.05
1757327797.473877,-0.526,-0.134,9.876,0.5945005172411543,3.14589901976427,1.2252631578947368,0,0.05
1757327797.4998913,-0.397,-0.068,9.803,0.5948318144652318,2.352821702743324,1.2317293233082707,0,0.05
1757327797.5264404,-0.573,-0.159,9.859,0.5955213766104455,3.451645725011279,1.2405513784461153,0,0.05
1757327797.5537891,-0.573,-0.159,9.859,0.5955213766104455,3.451645725011279,1.2405513784461153,0,0.05
1757327797.580394,-0.404,-0.051,9.969,0.5958638686814296,2.3390752718757546,1.2490225563909774,0,0.05
1757327797.60732,-0.404,-0.051,9.969,0.5958638686814296,2.3390752718757546,1.2490225563909774,0,0.05
1757327797.633164,-0.404,-0.051,9.969,0.5958638686814296,2.3390752718757546,1.2490225563909774,0,0.05
1757327797.6605356,-0.491,-0.07,9.804,0.5963693926586106,2.8960099333195486,1.2533834586466164,0,0.05
1757327797.686968,-0.491,-0.07,9.804,0.5963693926586106,2.8960099333195486,1.2533834586466164,0,0.05
1757327797.7131975,-0.798,-0.276,9.795,0.5977026539174809,4.927022148043489,1.2687719298245612,0,0.05
1757327797.7398303,-0.798,-0.276,9.795,0.5977026539174809,4.927022148043489,1.2687719298245612,0,0.05
1757327797.765581,-0.834,-0.113,9.878,0.5991555328126412,4.86992526063529,1.2705764411027567,0,0.05
1757327797.7918148,-0.834,-0.113,9.878,0.5991555328126412,4.86992526063529,1.2705764411027567,0,0.05
1757327797.8180144,-0.686,-0.239,9.771,0.6001365198852674,4.251927929560905,1.2779949874686716,0,0.05
1757327797.8437529,-0.686,-0.239,9.771,0.6001365198852674,4.251927929560905,1.2779949874686716,0,0.05
1757327797.8703556,-0.935,-0.139,9.682,0.6019546536077283,5.576244030554108,1.29047619047619,0,0.05
1757327797.8961627,-0.935,-0.139,9.682,0.6019546536077283,5.576244030554108,1.29047619047619,0,0.05
1757327797.9214976,-0.74,-0.208,9.772,0.603090710424228,4.49769072157612,1.300250626566416,0,0.05
1757327797.9475927,-0.74,-0.208,9.772,0.603090710424228,4.49769072157612,1.300250626566416,0,0.05
1757327797.9731903,-0.745,-0.135,9.73,0.6042399916423937,4.4494625495677536,1.300501253132832,0,0.05
1757327798.0001605,-0.745,-0.135,9.73,0.6042399916423937,4.4494625495677536,1.300501253132832,0,0.05
1757327798.025971,-0.641,0.038,9.712,0.6050893900904228,3.7827022738319016,1.3057142857142854,0,0.05
1757327798.0535123,-0.641,0.038,9.712,0.6050893900904228,3.7827022738319016,1.3057142857142854,0,0.05
1757327798.0803382,-0.358,-0.115,9.786,0.6053540947247321,2.2004506737140974,1.3198997493734335,0,0.05
1757327798.1066077,-0.358,-0.115,9.786,0.6053540947247321,2.2004506737140974,1.3198997493734335,0,0.05
1757327798.1329644,-0.616,-0.002,9.848,0.6061371296992125,3.579250868590406,1.3328320802005011,0,0.05
1757327798.1598277,-0.616,-0.002,9.848,0.6061371296992125,3.579250868590406,1.3328320802005011,0,0.05
1757327798.1865425,-0.452,-0.048,9.708,0.6065583071725257,2.6807071567242557,1.3410526315789475,0,0.05
1757327798.213324,-0.452,-0.048,9.708,0.6065583071725257,2.6807071567242557,1.3410526315789475,0,0.05
1757327798.2404478,-0.601,-0.023,9.684,0.6073022167751407,3.55387915783829,1.3485213032581456,0,0.05
1757327798.2680795,-0.601,-0.023,9.684,0.6073022167751407,3.55387915783829,1.3485213032581456,0,0.05
1757327798.2954054,-0.58,0.022,9.723,0.6079942290022168,3.416232822356186,1.3495739348370928,0,0.05
1757327798.3231049,-0.58,0.022,9.723,0.6079942290022168,3.416232822356186,1.3495739348370928,0,0.05
1757327798.349414,-0.916,-0.045,9.457,0.6097168379666089,5.539011218396889,1.3664160401002508,0,0.05
1757327798.3759294,-0.916,-0.045,9.457,0.6097168379666089,5.539011218396889,1.3664160401002508,0,0.05
1757327798.4021952,-0.829,-0.134,9.655,0.6111241485983024,4.9708884515199925,1.3707769423558898,0,0.05
1757327798.4281018,-0.829,-0.134,9.655,0.6111241485983024,4.9708884515199925,1.3707769423558898,0,0.05
1757327798.4547355,-0.911,-0.17,9.723,0.6128193269635024,5.444571475583026,1.3748872180451128,0,0.05
1757327798.481503,-0.911,-0.17,9.723,0.6128193269635024,5.444571475583026,1.3748872180451128,0,0.05
1757327798.5079665,-0.674,-0.15,9.614,0.613745238270734,4.108001861636657,1.3867669172932333,0,0.05
1757327798.535294,-0.674,-0.15,9.614,0.613745238270734,4.108001861636657,1.3867669172932333,0,0.05
1757327798.5620413,-0.724,-0.122,9.727,0.6148118878974284,4.316577187799657,1.3892731829573937,0,0.05
1757327798.5880988,-0.724,-0.122,9.727,0.6148118878974284,4.316577187799657,1.3892731829573937,0,0.05
1757327798.6149518,-0.831,-0.047,9.792,0.6162142971402076,4.858509743961654,1.394636591478697,0,0.05
1757327798.6416936,-0.831,-0.047,9.792,0.6162142971402076,4.858509743961654,1.394636591478697,0,0.05
1757327798.6680286,-0.672,-0.079,9.6,0.6171296622266669,4.031656694829787,1.4026065162907269,0,0.05
1757327798.6950192,-0.672,-0.079,9.6,0.6171296622266669,4.031656694829787,1.4026065162907269,0,0.05
1757327798.721657,-0.499,0.195,9.736,0.6176338093887025,3.1496689454481226,1.4112781954887217,0,0.05
1757327798.7483358,-0.499,0.195,9.736,0.6176338093887025,3.1496689454481226,1.4112781954887217,0,0.05
1757327798.775521,-0.374,0.156,9.697,0.6179168329961565,2.392957932029639,1.4175438596491226,0,0.05
1757327798.8030243,-0.374,0.156,9.697,0.6179168329961565,2.392957932029639,1.4175438596491226,0,0.05
1757327798.8297215,-0.414,0.18,9.584,0.6182634571928055,2.6968250359240193,1.419548872180451,0,0.05
1757327798.8560507,-0.414,0.18,9.584,0.6182634571928055,2.6968250359240193,1.419548872180451,0,0.05
1757327798.8831456,-0.456,0.058,9.726,0.6186837176619407,2.7059206847735946,1.4216541353383456,0,0.05
1757327798.910628,-0.456,0.058,9.726,0.6186837176619407,2.7059206847735946,1.4216541353383456,0,0.05
1757327798.9377933,-0.602,-0.074,9.657,0.6194154926218749,3.5938785755728353,1.4289724310776943,0,0.05
1757327798.9649541,-0.602,-0.074,9.657,0.6194154926218749,3.5938785755728353,1.4289724310776943,0,0.05
1757327798.992255,-0.655,0.021,9.55,0.6202806743724972,3.9255756792304095,1.4316290726817043,0,0.05
1757327799.0189373,-0.655,0.021,9.55,0.6202806743724972,3.9255756792304095,1.4316290726817043,0,0.05
1757327799.0450258,-0.889,0.036,9.612,0.6218713030040862,5.288477236853907,1.4433583959899752,0,0.05
1757327799.0716012,-0.889,0.036,9.612,0.6218713030040862,5.288477236853907,1.4433583959899752,0,0.05
1757327799.0977128,-0.774,-0.333,9.603,0.6230743194033919,5.014450613465406,1.449122807017544,0,0.05
1757327799.1251059,-0.774,-0.333,9.603,0.6230743194033919,5.014450613465406,1.449122807017544,0,0.05
1757327799.1518753,-0.744,-0.225,9.657,0.6241838250868088,4.601734111769535,1.4506265664160403,0,0.05
1757327799.1801631,-0.744,-0.225,9.657,0.6241838250868088,4.601734111769535,1.4506265664160403,0,0.05
1757327799.206793,-0.71,-0.236,9.635,0.6251925283462687,4.440328812989268,1.4523308270676691,0,0.05
1757327799.2329433,-0.71,-0.236,9.635,0.6251925283462687,4.440328812989268,1.4523308270676691,0,0.05
1757327799.2594051,-0.542,-0.362,9.729,0.6257795997793472,3.832677903148115,1.4607518796992482,0,0.05
1757327799.2861035,-0.542,-0.362,9.729,0.6257795997793472,3.832677903148115,1.4607518796992482,0,0.05
1757327799.3126636,-0.716,-0.404,9.684,0.6268027979356825,4.852438078283578,1.4694736842105265,0,0.05
1757327799.3391368,-0.716,-0.404,9.684,0.6268027979356825,4.852438078283578,1.4694736842105265,0,0.05
1757327799.3656917,-0.594,-0.241,9.625,0.6275060457876084,3.810290256940396,1.475588972431078,0,0.05
1757327799.3930967,-0.594,-0.241,9.625,0.6275060457876084,3.810290256940396,1.475588972431078,0,0.05
1757327799.4210522,-0.402,-0.507,9.703,0.6278278804736216,3.8150585698019857,1.4852130325814539,0,0.05
1757327799.4485493,-0.402,-0.507,9.703,0.6278278804736216,3.8150585698019857,1.4852130325814539,0,0.05
1757327799.4747295,-0.436,0.126,9.746,0.6282062459893247,2.6661629768089816,1.4869172932330827,0,0.05
1757327799.5006106,-0.436,0.126,9.746,0.6282062459893247,2.6661629768089816,1.4869172932330827,0,0.05
1757327799.527208,-0.332,-0.009,9.651,0.6284255305921299,1.9709543412150263,1.4921303258145364,0,0.05
1757327799.554979,-0.332,-0.009,9.651,0.6284255305921299,1.9709543412150263,1.4921303258145364,0,0.05
1757327799.5810413,-0.54,0.006,9.633,0.6290052841590442,3.2086865127383075,1.5025563909774435,0,0.05
1757327799.6068144,-0.54,0.006,9.633,0.6290052841590442,3.2086865127383075,1.5025563909774435,0,0.05
1757327799.6321146,-0.269,0.152,9.757,0.6291490681865467,1.8137745745022988,1.5161403508771931,0,0.05
1757327799.6583593,-0.269,0.152,9.757,0.6291490681865467,1.8137745745022988,1.5161403508771931,0,0.05
1757327799.6846747,-0.269,0.152,9.757,0.6291490681865467,1.8137745745022988,1.5161403508771931,0,0.05
1757327799.710519,-0.505,0.187,9.626,0.6296555506783054,3.20198158346344,1.5279699248120302,0,0.05
1757327799.7368221,-0.505,0.187,9.626,0.6296555506783054,3.20198158346344,1.5279699248120302,0,0.05
1757327799.7632563,-0.579,0.033,9.667,0.6303207239175941,3.433155852449558,1.5316791979949878,0,0.05
1757327799.7900107,-0.579,0.033,9.667,0.6303207239175941,3.433155852449558,1.5316791979949878,0,0.05
1757327799.8171902,-0.8,0.12,9.632,0.6315886438181104,4.800757835772121,1.5427568922305768,0,0.05
1757327799.8430445,-0.8,0.12,9.632,0.6315886438181104,4.800757835772121,1.5427568922305768,0,0.05
1757327799.8698394,-0.663,0.092,9.536,0.6324580124403516,4.015130467855613,1.5496240601503761,0,0.05
1757327799.8970556,-0.663,0.092,9.536,0.6324580124403516,4.015130467855613,1.5496240601503761,0,0.05
1757327799.9232466,-0.555,-0.045,9.519,0.6330665051951493,3.3477464363614593,1.5550375939849626,0,0.05
1757327799.9497516,-0.555,-0.045,9.519,0.6330665051951493,3.3477464363614593,1.5550375939849626,0,0.05
1757327799.9758391,-0.521,0.006,9.586,0.633602243130499,3.1111760910949724,1.5567418546365916,0,0.05
1757327800.0024881,-0.521,0.006,9.586,0.633602243130499,3.1111760910949724,1.5567418546365916,0,0.05
1757327800.0294867,-0.484,-0.1,9.574,0.6340642258478237,2.9550614103153086,1.5585964912280705,0,0.05
1757327800.0562294,-0.484,-0.1,9.574,0.6340642258478237,2.9550614103153086,1.5585964912280705,0,0.05
1757327800.082792,-0.449,-0.069,9.629,0.6344615394174811,2.7010611509779587,1.5603508771929826,0,0.05
1757327800.1100168,-0.449,-0.069,9.629,0.6344615394174811,2.7010611509779587,1.5603508771929826,0,0.05
1757327800.1360927,-0.253,0.053,9.613,0.6345876357919369,1.540301665480558,1.5701754385964912,0,0.05
1757327800.1626682,-0.253,0.053,9.613,0.6345876357919369,1.540301665480558,1.5701754385964912,0,0.05
1757327800.1888385,-0.346,0.048,9.644,0.6348234065470492,2.0743934143589824,1.5748370927318298,0,0.05
1757327800.2148879,-0.346,0.048,9.644,0.6348234065470492,2.0743934143589824,1.5748370927318298,0,0.05
1757327800.240712,-0.494,0.124,9.576,0.6353037442830004,3.044559724940184,1.5822556390977445,0,0.05
1757327800.2677908,-0.494,0.124,9.576,0.6353037442830004,3.044559724940184,1.5822556390977445,0,0.05
1757327800.2950485,-0.594,-0.186,9.54,0.6359975923696567,3.732990449974381,1.587268170426065,0,0.05
1757327800.3219435,-0.594,-0.186,9.54,0.6359975923696567,3.732990449974381,1.587268170426065,0,0.05
1757327800.3491504,-0.777,-0.211,9.617,0.6371830663161098,4.78566918485888,1.5964411027568923,0,0.05
1757327800.3760905,-0.777,-0.211,9.617,0.6371830663161098,4.78566918485888,1.5964411027568923,0,0.05
1757327800.4023876,-0.693,-0.346,9.653,0.6381245039175348,4.587686900612179,1.6006516290726815,0,0.05
1757327800.430028,-0.693,-0.346,9.653,0.6381245039175348,4.587686900612179,1.6006516290726815,0,0.05
1757327800.4570847,-0.48,-0.287,9.783,0.6385756670121404,3.271824570355221,1.6113283208020053,0,0.05
1757327800.4847183,-0.48,-0.287,9.783,0.6385756670121404,3.271824570355221,1.6113283208020053,0,0.05
1757327800.5113528,-0.601,-0.13,9.75,0.6392823202623392,3.6086696988450724,1.6173934837092732,0,0.05
1757327800.5368574,-0.601,-0.13,9.75,0.6392823202623392,3.6086696988450724,1.6173934837092732,0,0.05
1757327800.5625334,-0.391,-0.076,9.754,0.6395811813210266,2.3384509434401983,1.627919799498747,0,0.05
1757327800.5890284,-0.391,-0.076,9.754,0.6395811813210266,2.3384509434401983,1.627919799498747,0,0.05
1757327800.616684,-0.741,-0.162,9.773,0.6406534086383994,4.437941942029667,1.64546365914787,0,0.05
1757327800.6428032,-0.741,-0.162,9.773,0.6406534086383994,4.437941942029667,1.64546365914787,0,0.05
1757327800.6697803,-0.412,-0.131,9.563,0.6409845161936442,2.5884711668925307,1.6619548872180447,0,0.05
1757327800.6974938,-0.412,-0.131,9.563,0.6409845161936442,2.5884711668925307,1.6619548872180447,0,0.05
1757327800.7258658,-0.539,-0.004,9.717,0.6415508183300836,3.175018756708783,1.6683208020050126,0,0.05
1757327800.7535095,-0.539,-0.004,9.717,0.6415508183300836,3.175018756708783,1.6683208020050126,0,0.05
1757327800.781002,-0.472,0.06,9.737,0.6419847447564467,2.797531702237615,1.6716791979949874,0,0.05
1757327800.8077157,-0.472,0.06,9.737,0.6419847447564467,2.797531702237615,1.6716791979949874,0,0.05
1757327800.8338633,-0.377,-0.291,9.927,0.642261422631003,2.7466470406900307,1.6764411027568922,0,0.05
1757327800.861733,-0.377,-0.291,9.927,0.642261422631003,2.7466470406900307,1.6764411027568922,0,0.05
1757327800.8890998,-0.867,0.019,9.843,0.6437227334031321,5.034989341915097,1.701002506265664,0,0.05
1757327800.9157994,-0.867,0.019,9.843,0.6437227334031321,5.034989341915097,1.701002506265664,0,0.05
1757327800.942026,-0.427,0.111,9.705,0.6440766879805541,2.6028874447188257,1.723057644110276,0,0.05
1757327800.9699354,-0.427,0.111,9.705,0.6440766879805541,2.6028874447188257,1.723057644110276,0,0.05
1757327800.9975095,-0.706,0.092,9.784,0.6450433086235373,4.162004219464414,1.7370426065162905,0,0.05
1757327801.02489,-0.706,0.092,9.784,0.6450433086235373,4.162004219464414,1.7370426065162905,0,0.05
1757327801.0512404,-0.572,0.172,9.64,0.6456770322692298,3.5455506844593163,1.7437593984962405,0,0.05
1757327801.077476,-0.572,0.172,9.64,0.6456770322692298,3.5455506844593163,1.7437593984962405,0,0.05
1757327801.1027896,-0.41,0.044,9.68,0.6460023838965301,2.439243888409848,1.7518796992481203,0,0.05
1757327801.1302974,-0.41,0.044,9.68,0.6460023838965301,2.439243888409848,1.7518796992481203,0,0.05
1757327801.156695,-0.528,0.087,9.642,0.6465415995896938,3.1765893468550677,1.7577944862155388,0,0.05
1757327801.1843452,-0.528,0.087,9.642,0.6465415995896938,3.1765893468550677,1.7577944862155388,0,0.05
1757327801.2110124,-0.494,-0.176,9.608,0.647013237886212,3.1241706384921217,1.759498746867168,0,0.05
1757327801.23815,-0.494,-0.176,9.608,0.647013237886212,3.1241706384921217,1.759498746867168,0,0.05
1757327801.2647688,-0.355,-0.158,9.875,0.6472566666323337,2.253378701460552,1.7664661654135339,0,0.05
1757327801.2920556,-0.355,-0.158,9.875,0.6472566666323337,2.253378701460552,1.7664661654135339,0,0.05
1757327801.318433,-0.718,-0.177,9.677,0.648251496334563,4.369924584826424,1.7846616541353382,0,0.05
1757327801.34579,-0.718,-0.177,9.677,0.648251496334563,4.369924584826424,1.7846616541353382,0,0.05
1757327801.3712113,-0.681,-0.119,9.675,0.649145134003175,4.087075635507659,1.7865162907268168,0,0.05
1757327801.3979833,-0.681,-0.119,9.675,0.649145134003175,4.087075635507659,1.7865162907268168,0,0.05
1757327801.4255896,-0.58,-0.328,9.859,0.6497925861380691,3.8664596507360467,1.7915789473684212,0,0.05
1757327801.4515061,-0.58,-0.328,9.859,0.6497925861380691,3.8664596507360467,1.7915789473684212,0,0.05
1757327801.4775538,-0.683,-0.272,9.576,0.6506893479226473,4.390100199546581,1.7967418546365916,0,0.05
1757327801.5043662,-0.683,-0.272,9.576,0.6506893479226473,4.390100199546581,1.7967418546365916,0,0.05
1757327801.5306535,-0.735,-0.677,9.888,0.6517263152581765,5.770692959553412,1.7993483709273181,0,0.05
1757327801.5576017,-0.735,-0.677,9.888,0.6517263152581765,5.770692959553412,1.7993483709273181,0,0.05
1757327801.5836992,-0.749,-0.589,9.883,0.6528014188863257,5.507035051279428,1.8000501253132832,0,0.05
1757327801.6113465,-0.749,-0.589,9.883,0.6528014188863257,5.507035051279428,1.8000501253132832,0,0.05
1757327801.638775,-0.917,0.182,9.674,0.6544095926864153,5.519871407659194,1.8084711779448623,0,0.05
1757327801.665441,-0.917,0.182,9.674,0.6544095926864153,5.519871407659194,1.8084711779448623,0,0.05
1757327801.6926866,-0.73,-0.163,9.731,0.6554267045215658,4.39541660288172,1.8178446115288223,0,0.05
1757327801.718661,-0.73,-0.163,9.731,0.6554267045215658,4.39541660288172,1.8178446115288223,0,0.05
1757327801.7447376,-0.87,-0.208,9.768,0.6568686436419385,5.2323506532141995,1.8248621553884712,0,0.05
1757327801.7710893,-0.87,-0.208,9.768,0.6568686436419385,5.2323506532141995,1.8248621553884712,0,0.05
1757327801.7971504,-0.994,-0.205,9.547,0.6587461612791379,6.068189094170264,1.8310776942355886,0,0.05
1757327801.824701,-0.994,-0.205,9.547,0.6587461612791379,6.068189094170264,1.8310776942355886,0,0.05
1757327801.8516862,-0.757,-0.551,9.697,0.6598326511320882,5.515109600646518,1.8429573934837093,0,0.05
1757327801.8771896,-0.757,-0.551,9.697,0.6598326511320882,5.515109600646518,1.8429573934837093,0,0.05
1757327801.9028668,-0.949,-0.096,9.937,0.661536567394426,5.482969290907336,1.8525814536340854,0,0.05
1757327801.9286337,-0.949,-0.096,9.937,0.661536567394426,5.482969290907336,1.8525814536340854,0,0.05
1757327801.9541938,-0.675,-0.24,9.917,0.662396929718126,4.13183020302487,1.8663157894736844,0,0.05
1757327801.9799628,-0.675,-0.24,9.917,0.662396929718126,4.13183020302487,1.8663157894736844,0,0.05
1757327802.0052807,-0.675,-0.24,9.917,0.662396929718126,4.13183020302487,1.8663157894736844,0,0.05
1757327802.0305562,-0.849,-0.162,9.728,0.6637557495042886,5.0773086188773995,1.8750375939849626,0,0.05
1757327802.0568368,-0.849,-0.162,9.728,0.6637557495042886,5.0773086188773995,1.8750375939849626,0,0.05
1757327802.0829513,-0.738,-0.11,9.9,0.6647806442729812,4.310174902522848,1.8806015037593986,0,0.05
1757327802.10847,-0.738,-0.11,9.9,0.6647806442729812,4.310174902522848,1.8806015037593986,0,0.05
1757327802.134169,-0.774,0.085,9.902,0.6659061457893297,4.496256434566983,1.882406015037594,0,0.05
1757327802.1600242,-0.774,0.085,9.902,0.6659061457893297,4.496256434566983,1.882406015037594,0,0.05
1757327802.1869302,-0.748,-0.249,9.804,0.666955586977124,4.597356702099595,1.8837092731829574,0,0.05
1757327802.2137377,-0.748,-0.249,9.804,0.666955586977124,4.597356702099595,1.8837092731829574,0,0.05
1757327802.241376,-0.735,-0.385,9.905,0.6679673027177303,4.788412850359025,1.8843609022556393,0,0.05
1757327802.2678258,-0.735,-0.385,9.905,0.6679673027177303,4.788412850359025,1.8843609022556393,0,0.05
1757327802.2945907,-0.986,-0.099,9.874,0.6697841499319016,5.7310317729353235,1.8969423558897243,0,0.05
1757327802.3212826,-0.986,-0.099,9.874,0.6697841499319016,5.7310317729353235,1.8969423558897243,0,0.05
1757327802.3474047,-0.409,0.078,9.853,0.6700962692031646,2.419783691243436,1.925864661654135,0,0.05
1757327802.3740923,-0.409,0.078,9.853,0.6700962692031646,2.419783691243436,1.925864661654135,0,0.05
1757327802.4010286,-0.817,-0.105,9.953,0.6713402509160313,4.7310704731088125,1.946315789473684,0,0.05
1757327802.4287653,-0.817,-0.105,9.953,0.6713402509160313,4.7310704731088125,1.946315789473684,0,0.05
1757327802.4567482,-0.586,-0.086,9.829,0.6719793318994268,3.448365694838897,1.9578947368421054,0,0.05
1757327802.4837809,-0.586,-0.086,9.829,0.6719793318994268,3.448365694838897,1.9578947368421054,0,0.05
1757327802.5098672,-0.634,0.025,9.775,0.6727266253835952,3.7138441969165146,1.9603007518796995,0,0.05
1757327802.535458,-0.634,0.025,9.775,0.6727266253835952,3.7138441969165146,1.9603007518796995,0,0.05
1757327802.5619938,-0.722,0.0,9.666,0.6736945320395586,4.271764446510192,1.9647117794486215,0,0.05
1757327802.5887043,-0.722,0.0,9.666,0.6736945320395586,4.271764446510192,1.9647117794486215,0,0.05
1757327802.614972,-0.516,0.024,9.864,0.674188373156939,2.9977263926901636,1.9750375939849623,0,0.05
1757327802.641912,-0.516,0.024,9.864,0.674188373156939,2.9977263926901636,1.9750375939849623,0,0.05
1757327802.6682105,-0.683,0.161,9.882,0.6750527275702247,4.06174676318719,1.9834085213032582,0,0.05
1757327802.694491,-0.683,0.161,9.882,0.6750527275702247,4.06174676318719,1.9834085213032582,0,0.05
1757327802.720896,-0.657,-0.069,9.872,0.6758515425002742,3.828404602074646,1.9847117794486215,0,0.05
1757327802.7472134,-0.657,-0.069,9.872,0.6758515425002742,3.828404602074646,1.9847117794486215,0,0.05
1757327802.7730372,-1.026,-0.077,9.929,0.6777956900866219,5.9161175572565705,2.0032080200501245,0,0.05
1757327802.7996228,-1.026,-0.077,9.929,0.6777956900866219,5.9161175572565705,2.0032080200501245,0,0.05
1757327802.8255584,-1.045,0.009,9.668,0.6798066342718347,6.169293871306549,2.004160401002506,0,0.05
1757327802.8519156,-1.045,0.009,9.668,0.6798066342718347,6.169293871306549,2.004160401002506,0,0.05
1757327802.878161,-0.869,-0.031,9.631,0.6811937774965359,5.159068005087415,2.0129824561403504,0,0.05
1757327802.904579,-0.869,-0.031,9.631,0.6811937774965359,5.159068005087415,2.0129824561403504,0,0.05
1757327802.9312868,-0.764,-0.11,9.856,0.6822640269719634,4.478011349637883,2.0182456140350875,0,0.05
1757327802.9579499,-0.764,-0.11,9.856,0.6822640269719634,4.478011349637883,2.0182456140350875,0,0.05
1757327802.9854538,-0.75,0.15,9.824,0.6832938258904437,4.451814071718692,2.018947368421052,0,0.05
1757327803.011559,-0.75,0.15,9.824,0.6832938258904437,4.451814071718692,2.018947368421052,0,0.05
1757327803.0384266,-0.689,-0.007,9.677,0.6841617169938697,4.0727821999198035,2.0220050125313285,0,0.05
1757327803.0648518,-0.689,-0.007,9.677,0.6841617169938697,4.0727821999198035,2.0220050125313285,0,0.05
1757327803.0910501,-0.719,-0.137,9.783,0.6851055812792652,4.278732989372183,2.023508771929825,0,0.05
1757327803.118086,-0.719,-0.137,9.783,0.6851055812792652,4.278732989372183,2.023508771929825,0,0.05
1757327803.1449249,-0.886,0.178,9.891,0.6865363409900455,5.220405919609944,2.0318796992481203,0,0.05
1757327803.1723213,-0.886,0.178,9.891,0.6865363409900455,5.220405919609944,2.0318796992481203,0,0.05
1757327803.198425,-0.655,0.221,9.648,0.6873170374725189,4.098235118770708,2.043458646616541,0,0.05
1757327803.2254407,-0.655,0.221,9.648,0.6873170374725189,4.098235118770708,2.043458646616541,0,0.05
1757327803.2520247,-0.675,0.181,9.758,0.6881451681876434,4.096401842615832,2.044461152882205,0,0.05
1757327803.2792926,-0.675,0.181,9.758,0.6881451681876434,4.096401842615832,2.044461152882205,0,0.05
1757327803.3058457,-0.577,-0.02,9.753,0.6887496606169763,3.3877740153614893,2.0493734335839595,0,0.05
1757327803.3329506,-0.577,-0.02,9.753,0.6887496606169763,3.3877740153614893,2.0493734335839595,0,0.05
1757327803.360137,-0.892,-0.076,9.664,0.6901921870030115,5.292532475810566,2.0651629072681703,0,0.05
1757327803.3874784,-0.892,-0.076,9.664,0.6901921870030115,5.292532475810566,2.0651629072681703,0,0.05
1757327803.4137392,-0.892,-0.076,9.664,0.6901921870030115,5.292532475810566,2.0651629072681703,0,0.05
1757327803.4396603,-0.761,-0.124,9.608,0.6912402313957139,4.588120150367201,2.0717293233082703,0,0.05
1757327803.4660144,-0.796,-0.079,9.575,0.692385078912017,4.775490803698537,2.073483709273183,0,0.05
1757327803.4937713,-0.796,-0.079,9.575,0.692385078912017,4.775490803698537,2.073483709273183,0,0.05
1757327803.5199306,-0.691,-0.061,9.548,0.6932465650834485,4.1553876900623,2.07874686716792,0,0.05
1757327803.548852,-0.691,-0.061,9.548,0.6932465650834485,4.1553876900623,2.07874686716792,0,0.05
1757327803.5753782,-0.878,-0.255,9.523,0.6946351632331896,5.4840232075389785,2.08812030075188,0,0.05
1757327803.6014528,-0.878,-0.255,9.523,0.6946351632331896,5.4840232075389785,2.08812030075188,0,0.05
1757327803.6279695,-0.795,-0.401,9.793,0.6957715663204411,5.195212533521218,2.0922807017543863,0,0.05
1757327803.6556606,-0.795,-0.401,9.793,0.6957715663204411,5.195212533521218,2.0922807017543863,0,0.05
1757327803.682098,-0.888,-0.22,9.683,0.6971867988566622,5.3972637657762705,2.0969423558897247,0,0.05
1757327803.708878,-0.888,-0.22,9.683,0.6971867988566622,5.3972637657762705,2.0969423558897247,0,0.05
1757327803.7366323,-0.592,-0.235,9.611,0.6978148697899752,3.7915438241735004,2.111779448621554,0,0.05
1757327803.763244,-0.592,-0.235,9.611,0.6978148697899752,3.7915438241735004,2.111779448621554,0,0.05
1757327803.7904124,-0.592,-0.235,9.611,0.6978148697899752,3.7915438241735004,2.111779448621554,0,0.05
1757327803.8176222,-0.729,-0.217,9.724,0.6987661948033834,4.472570950749005,2.1186466165413536,0,0.05
1757327803.8441303,-0.541,-0.038,9.784,0.6992895662742294,3.172692283450919,2.1280701754385967,0,0.05
1757327803.8710842,-0.541,-0.038,9.784,0.6992895662742294,3.172692283450919,2.1280701754385967,0,0.05
1757327803.8982925,-0.707,0.036,9.667,0.700182490498013,4.188302960328536,2.136390977443609,0,0.05
1757327803.9245276,-0.707,0.036,9.667,0.700182490498013,4.188302960328536,2.136390977443609,0,0.05
1757327803.950173,-0.58,-0.182,9.732,0.7007827908845936,3.5741930097440444,2.142756892230577,0,0.05
1757327803.9776075,-0.58,-0.182,9.732,0.7007827908845936,3.5741930097440444,2.142756892230577,0,0.05
1757327804.0053399,-0.58,-0.182,9.732,0.7007827908845936,3.5741930097440444,2.142756892230577,0,0.05
1757327804.0332,-0.807,-0.069,9.736,0.7019434752884309,4.755524424672011,2.154135338345865,0,0.05
1757327804.059804,-0.759,-0.1,9.686,0.7029685946043394,4.519132631084442,2.1565413533834588,0,0.2
1757327804.085966,-0.759,-0.1,9.686,0.7029685946043394,4.519132631084442,2.1565413533834588,0,0.2
1757327804.1123583,-0.561,-0.146,9.569,0.7035280005088639,3.4667234492615555,2.1664661654135338,0,0.2
1757327804.1394334,-0.561,-0.146,9.569,0.7035280005088639,3.4667234492615555,2.1664661654135338,0,0.2
1757327804.1662006,-1.025,0.024,9.749,0.7053922384035708,6.003602493251869,2.1897243107769424,0,0.2
1757327804.1929963,-1.025,0.024,9.749,0.7053922384035708,6.003602493251869,2.1897243107769424,0,0.2
1757327804.2196448,-1.025,0.024,9.749,0.7053922384035708,6.003602493251869,2.1897243107769424,0,0.2
1757327804.2458227,-0.812,0.113,9.682,0.7065596719315361,4.83998444190979,2.2004010025062652,0,0.2
1757327804.272591,-0.812,0.113,9.682,0.7065596719315361,4.83998444190979,2.2004010025062652,0,0.2
1757327804.3001342,-0.812,0.083,9.698,0.7077251797131425,4.810953758804209,2.2004010025062657,0,0.2
1757327804.3259838,-0.812,0.083,9.698,0.7077251797131425,4.810953758804209,2.2004010025062657,0,0.2
1757327804.3518615,-0.627,-0.121,9.721,0.7084191926394994,3.758337796223115,2.209674185463659,0,0.2
1757327804.3778522,-0.627,-0.121,9.721,0.7084191926394994,3.758337796223115,2.209674185463659,0,0.2
1757327804.4046075,-0.909,0.265,9.678,0.7098756616478692,5.587708036393374,2.223809523809524,0,0.2
1757327804.4314551,-0.909,0.265,9.678,0.7098756616478692,5.587708036393374,2.223809523809524,0,0.2
1757327804.4581835,-0.617,0.083,9.66,0.7105456899454109,3.6874392686919126,2.23844611528822,0,0.2
1757327804.484584,-0.617,0.083,9.66,0.7105456899454109,3.6874392686919126,2.23844611528822,0,0.2
1757327804.511998,-0.737,0.031,9.743,0.7115005973293347,4.329657136393639,2.2444611528822054,0,0.2
1757327804.5382714,-0.737,0.031,9.743,0.7115005973293347,4.329657136393639,2.2444611528822054,0,0.2
1757327804.5650227,-0.708,0.255,9.67,0.7123806987840139,4.449803352898172,2.2459147869674183,0,0.2
1757327804.591031,-0.708,0.255,9.67,0.7123806987840139,4.449803352898172,2.2459147869674183,0,0.2
1757327804.6180463,-0.578,0.061,9.672,0.7129666682251001,3.438883350333212,2.2524310776942356,0,0.2
1757327804.6452723,-0.578,0.061,9.672,0.7129666682251001,3.438883350333212,2.2524310776942356,0,0.2
1757327804.6720142,-0.764,0.091,9.82,0.7139892926368014,4.479991990116928,2.2617543859649123,0,0.2
1757327804.6991036,-0.764,0.091,9.82,0.7139892926368014,4.479991990116928,2.2617543859649123,0,0.2
1757327804.7260504,-0.754,0.174,9.842,0.7149839159030082,4.495569944908446,2.262255639097744,0,0.2
1757327804.7521338,-0.754,0.174,9.842,0.7149839159030082,4.495569944908446,2.262255639097744,0,0.2
1757327804.7776117,-0.758,0.002,9.668,0.7159877163750786,4.4830046571492765,2.2624561403508774,0,0.2
1757327804.8034537,-0.758,0.002,9.668,0.7159877163750786,4.4830046571492765,2.2624561403508774,0,0.2
1757327804.829611,-0.584,0.095,9.54,0.7165828982050856,3.5489722902046243,2.2711779448621554,0,0.2
1757327804.8564374,-0.584,0.095,9.54,0.7165828982050856,3.5489722902046243,2.2711779448621554,0,0.2
1757327804.8828833,-0.699,0.111,9.683,0.7174347026036586,4.180479729497425,2.2769423558897244,0,0.2
1757327804.9102838,-0.699,0.111,9.683,0.7174347026036586,4.180479729497425,2.2769423558897244,0,0.2
1757327804.9362583,-0.563,-0.04,9.566,0.7179867512705231,3.37668694957088,2.2837593984962408,0,0.2
1757327804.9624004,-0.563,-0.04,9.566,0.7179867512705231,3.37668694957088,2.2837593984962408,0,0.2
1757327804.9900222,-0.671,-0.139,9.594,0.71877018406442,4.085380459348869,2.2891729323308274,0,0.05
1757327805.0176444,-0.671,-0.139,9.594,0.71877018406442,4.085380459348869,2.2891729323308274,0,0.05
1757327805.0445583,-0.806,-0.441,9.722,0.7198990675782266,5.398591249678408,2.29593984962406,0,0.05
1757327805.071807,-0.806,-0.441,9.722,0.7198990675782266,5.398591249678408,2.29593984962406,0,0.05
1757327805.0994055,-0.712,0.044,9.652,0.7207787646011777,4.226920868623916,2.3006516290726817,0,0.05
1757327805.1270895,-0.712,0.044,9.652,0.7207787646011777,4.226920868623916,2.3006516290726817,0,0.05
1757327805.1546817,-0.67,-0.454,9.73,0.721556842875182,4.75485358369391,2.3027568922305766,0,0.05
1757327805.1809871,-0.67,-0.454,9.73,0.721556842875182,4.75485358369391,2.3027568922305766,0,0.05
1757327805.2074208,-0.974,-0.243,9.776,0.7231984288561474,5.862906057294736,2.317994987468672,0,0.05
1757327805.234755,-0.974,-0.243,9.776,0.7231984288561474,5.862906057294736,2.317994987468672,0,0.05
1757327805.2618558,-0.847,-0.308,9.779,0.724437360991273,5.265675144778315,2.324360902255639,0,0.05
1757327805.2889855,-0.847,-0.308,9.779,0.724437360991273,5.265675144778315,2.324360902255639,0,0.05
1757327805.3153596,-0.801,-0.296,9.814,0.7255435841491537,4.972931844054677,2.3266666666666667,0,0.05
1757327805.3423536,-0.801,-0.296,9.814,0.7255435841491537,4.972931844054677,2.3266666666666667,0,0.05
1757327805.3694592,-0.704,-0.321,9.736,0.726396952430281,4.543801081786639,2.331528822055138,0,0.05
1757327805.3968153,-0.704,-0.321,9.736,0.726396952430281,4.543801081786639,2.331528822055138,0,0.05
1757327805.4237456,-0.781,-0.307,9.791,0.7274458295983283,4.898765045476169,2.335388471177945,0,0.05
1757327805.4497006,-0.781,-0.307,9.791,0.7274458295983283,4.898765045476169,2.335388471177945,0,0.05
1757327805.4760969,-0.577,-0.297,9.592,0.7280176903757215,3.870475841808823,2.345614035087719,0,0.05
1757327805.5025418,-0.577,-0.297,9.592,0.7280176903757215,3.870475841808823,2.345614035087719,0,0.05
1757327805.5290196,-0.685,-0.242,9.523,0.7288229002988312,4.362531954718242,2.351027568922306,0,0.05
1757327805.555958,-0.685,-0.242,9.523,0.7288229002988312,4.362531954718242,2.351027568922306,0,0.05
1757327805.5833514,-0.664,-0.255,9.646,0.7295786866404473,4.217270305663008,2.3520802005012533,0,0.05
1757327805.610517,-0.664,-0.255,9.646,0.7295786866404473,4.217270305663008,2.3520802005012533,0,0.05
1757327805.6361866,-0.673,-0.187,9.736,0.7303542856039116,4.103581986360887,2.352531328320802,0,0.05
1757327805.6625993,-0.673,-0.187,9.736,0.7303542856039116,4.103581986360887,2.352531328320802,0,0.05
1757327805.689739,-0.9,-0.285,9.512,0.7317392858798822,5.667931111168181,2.3639097744360904,0,0.05
1757327805.717063,-0.9,-0.285,9.512,0.7317392858798822,5.667931111168181,2.3639097744360904,0,0.05
1757327805.7445958,-0.992,-0.377,9.773,0.7334183952560775,6.197304813818119,2.368521303258146,0,0.05
1757327805.7707994,-0.992,-0.377,9.773,0.7334183952560775,6.197304813818119,2.368521303258146,0,0.05
1757327805.7972958,-0.78,0.083,9.634,0.7344545884532276,4.654774282017549,2.339097744360902,0,0.05
1757327805.8237197,-0.78,0.083,9.634,0.7344545884532276,4.654774282017549,2.339097744360902,0,0.05
1757327805.850094,-0.78,0.083,9.634,0.7344545884532276,4.654774282017549,2.339097744360902,0,0.05
1757327805.876126,-0.825,0.044,9.591,0.7345264477879608,4.923327607626188,2.3405513784461154,0,0.05
1757327805.9028978,-0.8,0.152,9.737,0.734572242873361,4.7805607710304345,2.34140350877193,0,0.05
1757327805.9296176,-0.8,0.152,9.737,0.734572242873361,4.7805607710304345,2.34140350877193,0,0.05
1757327805.9561582,-0.503,0.222,9.726,0.7339804765795886,3.2354927705732743,2.355438596491228,0,0.05
1757327805.9825277,-0.503,0.222,9.726,0.7339804765795886,3.2354927705732743,2.355438596491228,0,0.05
1757327806.0092218,-0.571,0.266,9.503,0.7334673015888302,3.792374551158217,2.3575438596491223,0,0.05
1757327806.0368025,-0.571,0.266,9.503,0.7334673015888302,3.792374551158217,2.3575438596491223,0,0.05
1757327806.063473,-0.57,0.267,9.687,0.7328804285147749,3.7177009272692745,2.357142857142857,0,0.05
1757327806.0902982,-0.57,0.267,9.687,0.7328804285147749,3.7177009272692745,2.357142857142857,0,0.05
1757327806.11696,-0.7,0.066,9.762,0.7325495887651565,4.119594238093469,2.3634586466165413,0,0.05
1757327806.1428876,-0.7,0.066,9.762,0.7325495887651565,4.119594238093469,2.3634586466165413,0,0.05
1757327806.1706347,-0.568,0.119,9.456,0.7319214831523939,3.5119406698116244,2.369172932330827,0,0.05
1757327806.1970847,-0.568,0.119,9.456,0.7319214831523939,3.5119406698116244,2.369172932330827,0,0.05
1757327806.2241306,-0.52,0.146,9.353,0.731254152124964,3.304987110904509,2.370325814536341,0,0.05
1757327806.2502012,-0.52,0.146,9.353,0.731254152124964,3.304987110904509,2.370325814536341,0,0.05
1757327806.276538,-0.409,-0.079,9.694,0.7304782525852498,2.460536406117951,2.3753383458646615,0,0.05
1757327806.3036404,-0.409,-0.079,9.694,0.7304782525852498,2.460536406117951,2.3753383458646615,0,0.05
1757327806.330072,-0.651,0.064,9.445,0.730170293493237,3.9618437923511367,2.3871177944862154,0,0.05
1757327806.3571296,-0.651,0.064,9.445,0.730170293493237,3.9618437923511367,2.3871177944862154,0,0.05
1757327806.3834386,-0.651,0.064,9.445,0.730170293493237,3.9618437923511367,2.3871177944862154,0,0.05
1757327806.4104548,-0.568,-0.332,9.496,0.7296701840557829,3.9632930310702164,2.39062656641604,0,0.05
1757327806.4367466,-0.667,-0.35,9.769,0.729344073466015,4.409146245752849,2.3942857142857146,0,0.05
1757327806.4629521,-0.667,-0.35,9.769,0.729344073466015,4.409146245752849,2.3942857142857146,0,0.05
1757327806.4892652,-0.462,-0.341,9.696,0.7285486016732171,3.3892141246503433,2.40406015037594,0,0.05
1757327806.51613,-0.462,-0.341,9.696,0.7285486016732171,3.3892141246503433,2.40406015037594,0,0.05
1757327806.542051,-0.473,-0.545,9.655,0.7277414822586383,4.274446696862135,2.40406015037594,0,0.05
1757327806.5686865,-0.473,-0.545,9.655,0.7277414822586383,4.274446696862135,2.40406015037594,0,0.05
1757327806.5950642,-0.473,-0.545,9.655,0.7277414822586383,4.274446696862135,2.40406015037594,0,0.05
1757327806.6213448,-0.993,-0.373,9.852,0.7282743833885688,6.145242815304425,2.4296741854636594,0,0.05
1757327806.6486623,-0.993,-0.373,9.852,0.7282743833885688,6.145242815304425,2.4296741854636594,0,0.05
1757327806.6753385,-0.727,-0.521,9.692,0.7280470297309096,5.272514152537032,2.442005012531329,0,0.05
1757327806.7014065,-0.727,-0.521,9.692,0.7280470297309096,5.272514152537032,2.442005012531329,0,0.05
1757327806.728203,-0.984,-0.297,9.504,0.7286295320668796,6.172471505366786,2.4545864661654138,0,0.05
1757327806.7544138,-0.984,-0.297,9.504,0.7286295320668796,6.172471505366786,2.4545864661654138,0,0.05
1757327806.7802298,-0.79,-0.569,9.722,0.7286049975809938,5.718654353644883,2.464110275689223,0,0.05
1757327806.8068051,-0.79,-0.569,9.722,0.7286049975809938,5.718654353644883,2.464110275689223,0,0.05
1757327806.832957,-0.879,-0.424,9.746,0.7288461994824422,5.718267863777976,2.467669172932331,0,0.05
1757327806.8594694,-0.879,-0.424,9.746,0.7288461994824422,5.718267863777976,2.467669172932331,0,0.05
1757327806.8852384,-0.803,-0.243,9.519,0.728818483917635,5.036781172145843,2.470175438596491,0,0.05
1757327806.9110274,-0.803,-0.243,9.519,0.728818483917635,5.036781172145843,2.470175438596491,0,0.05
1757327806.9373772,-0.472,-0.372,9.672,0.7279928158986185,3.5555189877642706,2.4867167919799495,0,0.05
1757327806.9645228,-0.472,-0.372,9.672,0.7279928158986185,3.5555189877642706,2.4867167919799495,0,0.05
1757327806.9909043,-0.748,-0.218,9.612,0.7277476829231406,4.634093475561164,2.5004511278195487,0,0.05
1757327807.017621,-0.748,-0.218,9.612,0.7277476829231406,4.634093475561164,2.5004511278195487,0,0.05
1757327807.0446236,-0.85,-0.202,9.55,0.7277882246917712,5.22710009651065,2.5038095238095237,0,0.05
1757327807.0714164,-0.85,-0.202,9.55,0.7277882246917712,5.22710009651065,2.5038095238095237,0,0.05
1757327807.0992115,-0.697,-0.379,9.663,0.7275205976465546,4.693731277634912,2.5109273182957397,0,0.05
1757327807.1274576,-0.697,-0.379,9.663,0.7275205976465546,4.693731277634912,2.5109273182957397,0,0.05
1757327807.1529663,-0.918,-0.369,9.813,0.7278961327002638,5.757335103930614,2.5219548872180453,0,0.05
1757327807.1797628,-0.918,-0.369,9.813,0.7278961327002638,5.757335103930614,2.5219548872180453,0,0.05
1757327807.2069235,-0.537,-0.114,9.567,0.7273166435604234,3.284106923218883,2.540902255639098,0,0.05
1757327807.234067,-0.537,-0.114,9.567,0.7273166435604234,3.284106923218883,2.540902255639098,0,0.05
1757327807.2606087,-0.87,-0.249,9.631,0.7275339579703479,5.367768187688077,2.5565413533834587,0,0.05
1757327807.2883403,-0.87,-0.249,9.631,0.7275339579703479,5.367768187688077,2.5565413533834587,0,0.05
1757327807.3157914,-0.788,-0.059,9.807,0.7274595916612826,4.606693894334444,2.560250626566416,0,0.05
1757327807.3436823,-0.788,-0.059,9.807,0.7274595916612826,4.606693894334444,2.560250626566416,0,0.05
1757327807.3704138,-0.671,-0.244,9.603,0.7270692797113628,4.2521392233062985,2.5659147869674186,0,0.05
1757327807.3968227,-0.671,-0.244,9.603,0.7270692797113628,4.2521392233062985,2.5659147869674186,0,0.05
1757327807.4244385,-0.834,-0.106,9.697,0.7270892689347025,4.955031840920987,2.5731328320802005,0,0.05
1757327807.4509492,-0.834,-0.106,9.697,0.7270892689347025,4.955031840920987,2.5731328320802005,0,0.05
1757327807.477448,-0.744,-0.377,9.953,0.7269184858015374,4.790216846054232,2.577142857142857,0,0.05
1757327807.5041056,-0.744,-0.377,9.953,0.7269184858015374,4.790216846054232,2.577142857142857,0,0.05
1757327807.5308897,-1.068,-0.071,9.695,0.727784332752499,6.30011357521856,2.592882205513784,0,0.05
1757327807.5586925,-1.068,-0.071,9.695,0.727784332752499,6.30011357521856,2.592882205513784,0,0.05
1757327807.5851355,-0.862,-0.04,9.796,0.7279940143984702,5.0341785517671145,2.6030576441102755,0,0.05
1757327807.6125062,-0.862,-0.04,9.796,0.7279940143984702,5.0341785517671145,2.6030576441102755,0,0.05
1757327807.6383886,-0.783,0.02,9.935,0.7279886297188989,4.507760045701048,2.6061152882205514,0,0.05
1757327807.66549,-0.783,0.02,9.935,0.7279886297188989,4.507760045701048,2.6061152882205514,0,0.05
1757327807.6918323,-0.659,0.086,9.737,0.7276270507615835,3.9046023577814744,2.6109774436090225,0,0.05
1757327807.7180762,-0.659,0.086,9.737,0.7276270507615835,3.9046023577814744,2.6109774436090225,0,0.05
1757327807.74475,-0.739,0.133,9.596,0.7273817274993922,4.4741933983496835,2.6146867167919803,0,0.05
1757327807.7705944,-0.739,0.133,9.596,0.7273817274993922,4.4741933983496835,2.6146867167919803,0,0.05
1757327807.7969654,-0.824,-0.232,9.83,0.7273474943244116,4.976999417059667,2.6188972431077695,0,0.05
1757327807.8232577,-0.824,-0.232,9.83,0.7273474943244116,4.976999417059667,2.6188972431077695,0,0.05
1757327807.8498497,-1.147,-0.059,9.917,0.7284037187576681,6.606159423528038,2.6340350877192984,0,0.05
1757327807.876842,-1.147,-0.059,9.917,0.7284037187576681,6.606159423528038,2.6340350877192984,0,0.05
1757327807.9036129,-0.583,-0.172,9.448,0.7278441179263593,3.6810861477413015,2.6614035087719294,0,0.05
1757327807.9300604,-0.583,-0.172,9.448,0.7278441179263593,3.6810861477413015,2.6614035087719294,0,0.05
1757327807.95684,-0.845,-0.227,9.738,0.7279767252460755,5.134239876809586,2.6744862155388467,0,0.05
1757327807.9857616,-0.845,-0.227,9.738,0.7279767252460755,5.134239876809586,2.6744862155388467,0,0.05
1757327808.011898,-0.729,-0.054,9.683,0.7277985246618737,4.317232552953207,2.679949874686716,0,0.05
1757327808.039544,-0.729,-0.054,9.683,0.7277985246618737,4.317232552953207,2.679949874686716,0,0.05
1757327808.06608,-0.584,0.018,9.477,0.7272738772292046,3.5279420588574992,2.686365914786968,0,0.05
1757327808.092336,-0.584,0.018,9.477,0.7272738772292046,3.5279420588574992,2.686365914786968,0,0.05
1757327808.1198459,-0.746,-0.076,9.771,0.7270718533955224,4.3884801312337824,2.693333333333333,0,0.05
1757327808.1478603,-0.746,-0.076,9.771,0.7270718533955224,4.3884801312337824,2.693333333333333,0,0.05
1757327808.1750515,-0.85,-0.017,9.952,0.727089327386945,4.882754584099259,2.6981954887218045,0,0.05
1757327808.201959,-0.85,-0.017,9.952,0.727089327386945,4.882754584099259,2.6981954887218045,0,0.05
1757327808.2291925,-0.982,-0.014,9.703,0.7275020257703754,5.779572162879455,2.7041102756892226,0,0.05
1757327808.2571187,-0.982,-0.014,9.703,0.7275020257703754,5.779572162879455,2.7041102756892226,0,0.05
1757327808.283838,-0.841,-0.194,9.905,0.7275135582929022,4.97996777327652,2.709774436090225,0,0.05
1757327808.309612,-0.841,-0.194,9.905,0.7275135582929022,4.97996777327652,2.709774436090225,0,0.05
1757327808.336538,-0.929,-0.066,9.928,0.7278718139205557,5.359208938282083,2.7131829573934834,0,0.05
1757327808.3643267,-0.929,-0.066,9.928,0.7278718139205557,5.359208938282083,2.7131829573934834,0,0.05
1757327808.391169,-0.671,-0.177,9.707,0.7275758912305987,4.0891127294252385,2.7255137844611528,0,0.05
1757327808.4178896,-0.671,-0.177,9.707,0.7275758912305987,4.0891127294252385,2.7255137844611528,0,0.05
1757327808.4455702,-0.874,-0.131,9.832,0.7277859334996796,5.136307367966535,2.735338345864662,0,0.05
1757327808.4732175,-0.874,-0.131,9.832,0.7277859334996796,5.136307367966535,2.735338345864662,0,0.05
1757327808.50042,-1.118,-0.266,10.057,0.7288106852948851,6.5188850645022836,2.7464661654135343,0,0.05
1757327808.5271602,-1.118,-0.266,10.057,0.7288106852948851,6.5188850645022836,2.7464661654135343,0,0.05
1757327808.5540895,-0.658,-0.187,9.908,0.7283715912911486,3.9494793905457493,2.7690225563909774,0,0.05
1757327808.581642,-0.658,-0.187,9.908,0.7283715912911486,3.9494793905457493,2.7690225563909774,0,0.05
1757327808.6074874,-0.804,-0.084,10.103,0.728270015172944,4.574688478373693,2.775989974937343,0,0.05
1757327808.6346807,-0.804,-0.084,10.103,0.728270015172944,4.574688478373693,2.775989974937343,0,0.05
1757327808.6622274,-0.664,-0.284,10.197,0.7278356493742252,4.051113973263955,2.782606516290727,0,0.05
1757327808.6886382,-0.664,-0.284,10.197,0.7278356493742252,4.051113973263955,2.782606516290727,0,0.05
1757327808.7149253,-0.818,-0.088,10.002,0.7278158970508957,4.702308937004062,2.788922305764411,0,0.05
1757327808.7417614,-0.818,-0.088,10.002,0.7278158970508957,4.702308937004062,2.788922305764411,0,0.05
1757327808.7694256,-0.759,-0.166,9.964,0.7277143395591432,4.458604705387347,2.7915288220551377,0,0.05
1757327808.7958477,-0.759,-0.166,9.964,0.7277143395591432,4.458604705387347,2.7915288220551377,0,0.05
1757327808.8219311,-0.574,-0.056,9.955,0.7272080857636279,3.3156231396646514,2.8006516290726817,0,0.05
1757327808.848717,-0.574,-0.056,9.955,0.7272080857636279,3.3156231396646514,2.8006516290726817,0,0.05
1757327808.8750334,-0.606,0.026,9.851,0.7267582593269925,3.5234356870056547,2.8017543859649123,0,0.05
1757327808.9021776,-0.606,0.026,9.851,0.7267582593269925,3.5234356870056547,2.8017543859649123,0,0.05
1757327808.9287078,-0.739,0.015,9.715,0.7265884994272893,4.350886996491893,2.8075187969924813,0,0.05
1757327808.9565198,-0.739,0.015,9.715,0.7265884994272893,4.350886996491893,2.8075187969924813,0,0.05
1757327808.984943,-0.721,-0.295,9.906,0.7263231701522401,4.496533378235139,2.8084210526315796,0,0.05
1757327809.0122843,-0.721,-0.295,9.906,0.7263231701522401,4.496533378235139,2.8084210526315796,0,0.05
1757327809.0396814,-0.749,-0.102,9.707,0.7261286025904777,4.452808679447073,2.8095739348370925,0,0.05
1757327809.066304,-0.749,-0.102,9.707,0.7261286025904777,4.452808679447073,2.8095739348370925,0,0.05
1757327809.0928752,-0.678,-0.028,9.949,0.7257453186207955,3.9018523853429614,2.812330827067669,0,0.05
1757327809.1191587,-0.678,-0.028,9.949,0.7257453186207955,3.9018523853429614,2.812330827067669,0,0.05
1757327809.1456523,-0.716,-0.009,9.847,0.7254982132989716,4.1591277844208445,2.814185463659148,0,0.05
1757327809.1721501,-0.716,-0.009,9.847,0.7254982132989716,4.1591277844208445,2.814185463659148,0,0.05
1757327809.2012365,-0.596,-0.294,9.887,0.7249824101314459,3.8454345244062083,2.819949874686717,0,0.05
1757327809.229157,-0.596,-0.294,9.887,0.7249824101314459,3.8454345244062083,2.819949874686717,0,0.05
1757327809.2564137,-0.984,-0.093,9.934,0.7255371079414202,5.6819536203641965,2.838496240601504,0,0.05
1757327809.2828672,-0.984,-0.093,9.934,0.7255371079414202,5.6819536203641965,2.838496240601504,0,0.05
1757327809.3089113,-0.484,-0.198,9.934,0.7247761895923458,3.0133162299831997,2.8625062656641607,0,0.05
1757327809.3356428,-0.484,-0.198,9.934,0.7247761895923458,3.0133162299831997,2.8625062656641607,0,0.05
1757327809.362004,-0.731,-0.025,9.714,0.7244720871089513,4.306029535116397,2.8744862155388473,0,0.05
1757327809.389717,-0.731,-0.025,9.714,0.7244720871089513,4.306029535116397,2.8744862155388473,0,0.05
1757327809.4169865,-0.661,-0.081,10.022,0.7239762461572894,3.8016161328580647,2.877894736842105,0,0.05
1757327809.4428618,-0.661,-0.081,10.022,0.7239762461572894,3.8016161328580647,2.877894736842105,0,0.05
1757327809.4699156,-0.889,-0.169,10.031,0.7240962677710748,5.154838474297629,2.8885714285714283,0,0.05
1757327809.4977775,-0.889,-0.169,10.031,0.7240962677710748,5.154838474297629,2.8885714285714283,0,0.05
1757327809.5244331,-0.691,-0.432,9.832,0.7237197092106861,4.738136411817845,2.89719298245614,0,0.05
1757327809.5506055,-0.691,-0.432,9.832,0.7237197092106861,4.738136411817845,2.89719298245614,0,0.05
1757327809.5761273,-1.161,-0.066,9.731,0.7249192092916286,6.814646372993334,2.9203508771929827,0,0.05
1757327809.6024597,-1.161,-0.066,9.731,0.7249192092916286,6.814646372993334,2.9203508771929827,0,0.05
1757327809.6289604,-0.805,-0.352,9.903,0.7249330469084714,5.070011207954634,2.937744360902255,0,0.05
1757327809.6563756,-0.805,-0.352,9.903,0.7249330469084714,5.070011207954634,2.937744360902255,0,0.05
1757327809.6831954,-0.805,-0.352,9.903,0.7249330469084714,5.070011207954634,2.937744360902255,0,0.05
1757327809.7094188,-0.727,0.083,9.795,0.7247158356901,4.272270499349054,2.9414035087719297,0,0.05
1757327809.7361226,-0.719,0.049,9.953,0.7244925154892906,4.141393154742742,2.9380952380952388,0,0.05
1757327809.7622411,-0.719,0.049,9.953,0.7244925154892906,4.141393154742742,2.9380952380952388,0,0.05
1757327809.78861,-0.796,0.316,9.789,0.7246662645659725,5.000019002225948,2.9332832080200504,0,0.05
1757327809.814722,-0.796,0.316,9.789,0.7246662645659725,5.000019002225948,2.9332832080200504,0,0.05
1757327809.8419921,-0.721,0.125,9.711,0.7250277063671429,4.309279395701474,2.933784461152882,0,0.05
1757327809.8699908,-0.721,0.125,9.711,0.7250277063671429,4.309279395701474,2.933784461152882,0,0.05
1757327809.896911,-0.808,0.021,9.764,0.7254861301224167,4.732207278331415,2.9349874686716793,0,0.05
1757327809.9234126,-0.808,0.021,9.764,0.7254861301224167,4.732207278331415,2.9349874686716793,0,0.05
1757327809.9499211,-1.061,-0.365,9.935,0.7266163809053577,6.443502505493162,2.942406015037594,0,0.05
1757327809.9781222,-1.061,-0.365,9.935,0.7266163809053577,6.443502505493162,2.942406015037594,0,0.05
1757327810.00578,-0.562,-0.164,9.752,0.7260858936792534,3.435503737930203,2.9646616541353388,0,0.05
1757327810.0322378,-0.562,-0.164,9.752,0.7260858936792534,3.435503737930203,2.9646616541353388,0,0.05
1757327810.0583706,-0.872,-0.313,9.956,0.7261656990659914,5.316450661098892,2.961453634085213,0,0.05
1757327810.0845988,-0.872,-0.313,9.956,0.7261656990659914,5.316450661098892,2.961453634085213,0,0.05
1757327810.1115603,-0.626,-0.158,9.953,0.7264583332855368,3.711464232182602,2.973734335839599,0,0.05
1757327810.139801,-0.626,-0.158,9.953,0.7264583332855368,3.711464232182602,2.973734335839599,0,0.05
1757327810.166496,-0.726,-0.269,9.623,0.7269849723343668,4.599911101951155,2.9656140350877194,0,0.05
1757327810.1936457,-0.726,-0.269,9.623,0.7269849723343668,4.599911101951155,2.9656140350877194,0,0.05
1757327810.2209644,-0.676,-0.475,9.737,0.7268493860491319,4.850001706540943,2.964812030075188,0,0.05
1757327810.2484589,-0.676,-0.475,9.737,0.7268493860491319,4.850001706540943,2.964812030075188,0,0.05
1757327810.2756839,-0.943,-0.321,9.936,0.7272833990268167,5.7250805792397905,2.976541353383458,0,0.05
1757327810.3030274,-0.943,-0.321,9.936,0.7272833990268167,5.7250805792397905,2.976541353383458,0,0.05
1757327810.3294506,-0.672,-0.361,9.674,0.7270536706461223,4.5086329909428535,2.989573934837093,0,0.05
1757327810.3566568,-0.672,-0.361,9.674,0.7270536706461223,4.5086329909428535,2.989573934837093,0,0.05
1757327810.3837483,-0.638,-0.161,9.797,0.7267760040067366,3.842414103926537,2.9894736842105263,0,0.05
1757327810.4109712,-0.638,-0.161,9.797,0.7267760040067366,3.842414103926537,2.9894736842105263,0,0.05
1757327810.4382396,-0.566,-0.216,10.19,0.7264402521887123,3.402339809522129,2.9918295739348366,0,0.05
1757327810.465776,-0.566,-0.216,10.19,0.7264402521887123,3.402339809522129,2.9918295739348366,0,0.05
1757327810.4925084,-0.753,-0.241,9.996,0.7264659936982598,4.522353130481097,2.995438596491228,0,0.05
1757327810.5205896,-0.753,-0.241,9.996,0.7264659936982598,4.522353130481097,2.995438596491228,0,0.05
1757327810.5472527,-0.664,-0.095,9.753,0.7265460205658001,3.9343156843719167,2.9942857142857138,0,0.05
1757327810.573234,-0.664,-0.095,9.753,0.7265460205658001,3.9343156843719167,2.9942857142857138,0,0.05
1757327810.5999258,-0.741,-0.376,10.11,0.7265485685761138,4.6985595924055135,2.9964411027568922,0,0.05
1757327810.6275215,-0.741,-0.376,10.11,0.7265485685761138,4.6985595924055135,2.9964411027568922,0,0.05
1757327810.6547174,-0.789,-0.304,10.035,0.726588903713785,4.816310975233908,2.9948872180451125,0,0.05
1757327810.6818671,-0.789,-0.304,10.035,0.726588903713785,4.816310975233908,2.9948872180451125,0,0.05
1757327810.707845,-0.497,-0.175,9.864,0.7257616240887913,3.0576891216613538,3.005814536340852,0,0.05
1757327810.7363737,-0.497,-0.175,9.864,0.7257616240887913,3.0576891216613538,3.005814536340852,0,0.05
1757327810.7639213,-0.811,-0.293,10.077,0.7254143057591296,4.890976901522235,3.011679197994987,0,0.05
1757327810.7906692,-0.811,-0.293,10.077,0.7254143057591296,4.890976901522235,3.011679197994987,0,0.05
1757327810.8174994,-0.897,-0.122,10.147,0.7258823510046238,5.098111589905302,3.0117794486215534,0,0.05
1757327810.8442638,-0.897,-0.122,10.147,0.7258823510046238,5.098111589905302,3.0117794486215534,0,0.05
1757327810.8709488,-0.473,-0.253,9.68,0.7255489094471854,3.171771826458454,3.0230075187969923,0,0.05
1757327810.8986983,-0.473,-0.253,9.68,0.7255489094471854,3.171771826458454,3.0230075187969923,0,0.05
1757327810.9256842,-0.743,-0.189,9.859,0.7252668836366376,4.446521153246485,3.029824561403509,0,0.05
1757327810.954221,-0.743,-0.189,9.859,0.7252668836366376,4.446521153246485,3.029824561403509,0,0.05
1757327810.9823794,-0.782,-0.249,10.073,0.7254471052392449,4.657817469347711,3.0283709273182957,0,0.05
1757327811.0083315,-0.782,-0.249,10.073,0.7254471052392449,4.657817469347711,3.0283709273182957,0,0.05
1757327811.035689,-0.792,-0.067,9.818,0.7254796086038532,4.62836038296153,3.027017543859649,0,0.05
1757327811.0624003,-0.792,-0.067,9.818,0.7254796086038532,4.62836038296153,3.027017543859649,0,0.05
1757327811.088666,-0.583,-0.159,10.017,0.7249149346647509,3.4522837853033823,3.0320802005012535,0,0.05
1757327811.1168044,-0.583,-0.159,10.017,0.7249149346647509,3.4522837853033823,3.0320802005012535,0,0.05
1757327811.1442163,-0.711,0.121,10.013,0.7243109846605945,4.119821055065782,3.036340852130326,0,0.05
1757327811.171016,-0.711,0.121,10.013,0.7243109846605945,4.119821055065782,3.036340852130326,0,0.05
1757327811.197442,-0.54,-0.157,9.763,0.723471210553675,3.29666106020099,3.0448120300751884,0,0.05
1757327811.2241035,-0.54,-0.157,9.763,0.723471210553675,3.29666106020099,3.0448120300751884,0,0.05
1757327811.250412,-0.54,-0.157,9.763,0.723471210553675,3.29666106020099,3.0448120300751884,0,0.05
1757327811.276455,-0.802,-0.194,9.703,0.7232444970409385,4.860663102271874,3.05609022556391,0,0.05
1757327811.3023884,-0.688,-0.203,9.926,0.7228342410262536,4.133415699205784,3.06,0,0.05
1757327811.3309138,-0.688,-0.203,9.926,0.7228342410262536,4.133415699205784,3.06,0,0.05
1757327811.3586333,-0.787,-0.259,9.854,0.7225691385604563,4.806115985241301,3.0576942355889725,0,0.05
1757327811.3856769,-0.787,-0.259,9.854,0.7225691385604563,4.806115985241301,3.0576942355889725,0,0.05
1757327811.4138184,-0.435,-0.069,9.792,0.7210809819292144,2.575394698868346,3.0591478696741854,0,0.05
1757327811.4420443,-0.435,-0.069,9.792,0.7210809819292144,2.575394698868346,3.0591478696741854,0,0.05
1757327811.468808,-0.871,-0.211,9.979,0.7215440960190861,5.131846432994434,3.0753383458646617,0,0.05
1757327811.4963453,-0.871,-0.211,9.979,0.7215440960190861,5.131846432994434,3.0753383458646617,0,0.05
1757327811.5227664,-0.807,0.024,9.798,0.721524438255559,4.710539627292947,3.0690726817042604,0,0.05
1757327811.548912,-0.807,0.024,9.798,0.721524438255559,4.710539627292947,3.0690726817042604,0,0.05
1757327811.5761695,-0.645,-0.217,9.458,0.7205015995818469,4.115470443919252,3.067769423558898,0,0.05
1757327811.6032495,-0.645,-0.217,9.458,0.7205015995818469,4.115470443919252,3.067769423558898,0,0.05
1757327811.6308746,-0.763,-0.272,9.691,0.7203592263586273,4.7780229185822485,3.072882205513785,0,0.05
1757327811.658255,-0.763,-0.272,9.691,0.7203592263586273,4.7780229185822485,3.072882205513785,0,0.05
1757327811.6843233,-0.911,-0.447,9.777,0.7206010095746467,5.925520003090605,3.075739348370927,0,0.05
1757327811.711379,-0.911,-0.447,9.777,0.7206010095746467,5.925520003090605,3.075739348370927,0,0.05
1757327811.7387662,-0.875,-0.257,9.54,0.7209791103076427,5.460509316073668,3.0705263157894733,0,0.05
1757327811.7649095,-0.875,-0.257,9.54,0.7209791103076427,5.460509316073668,3.0705263157894733,0,0.05
1757327811.7912445,-0.712,-0.283,9.579,0.7205152583394748,4.573093872691912,3.0773433583959897,0,0.05
1757327811.8167987,-0.712,-0.283,9.579,0.7205152583394748,4.573093872691912,3.0773433583959897,0,0.05
1757327811.8429642,-0.922,-0.233,9.748,0.7207277051702675,5.571970084639398,3.0841102756892234,0,0.05
1757327811.8688126,-0.922,-0.233,9.748,0.7207277051702675,5.571970084639398,3.0841102756892234,0,0.05
1757327811.896811,-0.86,-0.107,9.513,0.7209606195902797,5.205256636042554,3.0825062656641604,0,0.05
1757327811.9240458,-0.86,-0.107,9.513,0.7209606195902797,5.205256636042554,3.0825062656641604,0,0.05
1757327811.9524472,-0.833,-0.121,9.559,0.7208453214802744,5.032346314825792,3.0797493734335846,0,0.05
1757327811.9798393,-0.833,-0.121,9.559,0.7208453214802744,5.032346314825792,3.0797493734335846,0,0.05
1757327812.0057287,-0.684,-0.209,9.767,0.7205743316965988,4.188181459227799,3.084962406015038,0,0.05
1757327812.031587,-0.684,-0.209,9.767,0.7205743316965988,4.188181459227799,3.084962406015038,0,0.05
1757327812.057841,-0.865,-0.112,9.533,0.7209094031152596,5.227715505872735,3.092882205513784,0,0.05
1757327812.0838165,-0.865,-0.112,9.533,0.7209094031152596,5.227715505872735,3.092882205513784,0,0.05
1757327812.110376,-0.551,-0.034,9.536,0.7204129440813789,3.31320859134054,3.1022055137844617,0,0.05
1757327812.1387172,-0.551,-0.034,9.536,0.7204129440813789,3.31320859134054,3.1022055137844617,0,0.05
1757327812.1656344,-0.769,-0.16,9.81,0.720728251492891,4.577801686181509,3.1046616541353385,0,0.05
1757327812.1921122,-0.769,-0.16,9.81,0.720728251492891,4.577801686181509,3.1046616541353385,0,0.05
1757327812.2190065,-0.951,0.142,9.517,0.7211615717022087,5.76925899318094,3.11328320802005,0,0.05
1757327812.247061,-0.951,0.142,9.517,0.7211615717022087,5.76925899318094,3.11328320802005,0,0.05
1757327812.2735493,-0.785,-0.024,9.589,0.7211231326895567,4.682238860883469,3.1157894736842104,0,0.05
1757327812.3006785,-0.785,-0.024,9.589,0.7211231326895567,4.682238860883469,3.1157894736842104,0,0.05
1757327812.3272154,-0.667,-0.158,9.835,0.7204427336714556,3.9868284627045356,3.1062155388471173,0,0.05
1757327812.355003,-0.667,-0.158,9.835,0.7204427336714556,3.9868284627045356,3.1062155388471173,0,0.05
1757327812.3828151,-0.625,-0.194,9.667,0.7204833134778348,3.872782182586866,3.104411027568922,0,0.05
1757327812.409578,-0.625,-0.194,9.667,0.7204833134778348,3.872782182586866,3.104411027568922,0,0.05
1757327812.4364567,-0.984,-0.544,9.523,0.7213509582720468,6.733632649191949,3.1187969924812027,0,0.05
1757327812.4636252,-0.984,-0.544,9.523,0.7213509582720468,6.733632649191949,3.1187969924812027,0,0.05
1757327812.4900079,-0.786,-0.404,9.62,0.7217723567718565,5.24878932668714,3.1211027568922303,0,0.05
1757327812.5163457,-0.786,-0.404,9.62,0.7217723567718565,5.24878932668714,3.1211027568922303,0,0.05
1757327812.5427709,-0.99,-0.224,9.448,0.7224585420631415,6.131927193576963,3.1251127819548867,0,0.05
1757327812.5693307,-0.99,-0.224,9.448,0.7224585420631415,6.131927193576963,3.1251127819548867,0,0.05
1757327812.5952568,-0.47,-0.302,9.486,0.7214757341726747,3.370449509637557,3.143558897243108,0,0.05
1757327812.6216042,-0.47,-0.302,9.486,0.7214757341726747,3.370449509637557,3.143558897243108,0,0.05
1757327812.64818,-0.867,-0.191,9.462,0.7218394679566918,5.360188237436969,3.1627067669172932,0,0.05
1757327812.6746624,-0.867,-0.191,9.462,0.7218394679566918,5.360188237436969,3.1627067669172932,0,0.05
1757327812.7010643,-0.867,-0.191,9.462,0.7218394679566918,5.360188237436969,3.1627067669172932,0,0.05
1757327812.727305,-0.607,-0.477,9.618,0.7215772567785101,4.589051236708099,3.1689724310776946,0,0.05
1757327812.7546306,-1.054,-0.031,9.492,0.7229056214333929,6.338934331553917,3.187017543859649,0,0.05
1757327812.7809086,-1.054,-0.031,9.492,0.7229056214333929,6.338934331553917,3.187017543859649,0,0.05
1757327812.8070555,-0.661,-0.096,9.351,0.7228779409416226,4.085655219970958,3.2037092731829575,0,0.05
1757327812.8333638,-0.661,-0.096,9.351,0.7228779409416226,4.085655219970958,3.2037092731829575,0,0.05
1757327812.8595414,-0.661,-0.096,9.351,0.7228779409416226,4.085655219970958,3.2037092731829575,0,0.05
1757327812.8857048,-0.722,-0.066,9.411,0.7231295215934695,4.405285831488719,3.1942857142857144,0,0.05
1757327812.9118884,-0.722,-0.066,9.411,0.7231295215934695,4.405285831488719,3.1942857142857144,0,0.05
1757327812.938619,-0.912,0.213,9.508,0.723282831954416,5.6255183260128625,3.195388471177945,0,0.05
1757327812.965579,-0.912,0.213,9.508,0.723282831954416,5.6255183260128625,3.195388471177945,0,0.05
1757327812.9932876,-0.611,-0.08,9.367,0.7230956143553908,3.7638220651325556,3.2047117794486217,0,0.05
1757327813.01954,-0.611,-0.08,9.367,0.7230956143553908,3.7638220651325556,3.2047117794486217,0,0.05
1757327813.0466712,-0.923,-0.125,9.468,0.7234368579910758,5.618462238926351,3.2109273182957394,0,0.05
1757327813.073576,-0.923,-0.125,9.468,0.7234368579910758,5.618462238926351,3.2109273182957394,0,0.05
1757327813.09917,-1.013,0.051,9.571,0.7245427575374693,6.049319481378331,3.21062656641604,0,0.05
1757327813.125413,-1.013,0.051,9.571,0.7245427575374693,6.049319481378331,3.21062656641604,0,0.05
1757327813.1531136,-0.876,-0.103,9.547,0.7249796031613579,5.27849609047211,3.2150375939849622,0,0.05
1757327813.1801689,-0.876,-0.103,9.547,0.7249796031613579,5.27849609047211,3.2150375939849622,0,0.05
1757327813.2082484,-0.872,-0.14,9.889,0.7255210713687095,5.103433272251799,3.2055137844611528,0,0.05
1757327813.2353895,-0.872,-0.14,9.889,0.7255210713687095,5.103433272251799,3.2055137844611528,0,0.05
1757327813.2620184,-1.016,0.207,9.981,0.7260191836308459,5.930877730892936,3.2055137844611528,0,0.05
1757327813.2887757,-1.016,0.207,9.981,0.7260191836308459,5.930877730892936,3.2055137844611528,0,0.05
1757327813.3153818,-0.781,0.124,9.941,0.7253265936803917,4.548163600819633,3.203959899749374,0,0.05
1757327813.342299,-0.781,0.124,9.941,0.7253265936803917,4.548163600819633,3.203959899749374,0,0.05
1757327813.3692274,-0.877,-0.011,9.834,0.7257082678321917,5.096577286016401,3.2071177944862153,0,0.05
1757327813.3962467,-0.877,-0.011,9.834,0.7257082678321917,5.096577286016401,3.2071177944862153,0,0.05
1757327813.422109,-0.782,-0.187,9.808,0.7259005975338497,4.6865582071300675,3.208220551378446,0,0.05
1757327813.4488983,-0.782,-0.187,9.808,0.7259005975338497,4.6865582071300675,3.208220551378446,0,0.05
1757327813.4759374,-0.801,0.084,9.791,0.72595776736667,4.702474535302677,3.2080701754385963,0,0.05
1757327813.502941,-0.801,0.084,9.791,0.72595776736667,4.702474535302677,3.2080701754385963,0,0.05
1757327813.5292525,-0.3,0.133,9.864,0.7251229344049186,1.9054391905172987,3.232781954887218,0,0.05
1757327813.5554123,-0.3,0.133,9.864,0.7251229344049186,1.9054391905172987,3.232781954887218,0,0.05
1757327813.5824564,-0.945,0.107,9.776,0.7256507028178227,5.556419391388138,3.262255639097744,0,0.05
1757327813.61025,-0.945,0.107,9.776,0.7256507028178227,5.556419391388138,3.262255639097744,0,0.05
1757327813.636125,-0.786,0.077,9.786,0.7258489718942915,4.6139596306392,3.2655137844611524,0,0.05
1757327813.6626694,-0.786,0.077,9.786,0.7258489718942915,4.6139596306392,3.2655137844611524,0,0.05
1757327813.6905482,-0.547,-0.151,9.794,0.7252535625558829,3.3159803214249393,3.2736842105263153,0,0.05
1757327813.71715,-0.547,-0.151,9.794,0.7252535625558829,3.3159803214249393,3.2736842105263153,0,0.05
1757327813.7445536,-0.735,0.015,9.919,0.7248528747270028,4.238763417427865,3.2605012531328317,0,0.05
1757327813.7709844,-0.735,0.015,9.919,0.7248528747270028,4.238763417427865,3.2605012531328317,0,0.05
1757327813.7964747,-0.765,-0.099,9.828,0.725545858302561,4.487826154080622,3.2506265664160403,0,0.05
1757327813.8229437,-0.765,-0.099,9.828,0.725545858302561,4.487826154080622,3.2506265664160403,0,0.05
1757327813.8498993,-0.78,-0.163,9.762,0.7258548270832123,4.666575374576932,3.2406516290726817,0,0.05
1757327813.8769114,-0.78,-0.163,9.762,0.7258548270832123,4.666575374576932,3.2406516290726817,0,0.05
1757327813.9030743,-0.932,0.099,9.696,0.7260501962674482,5.521221543412073,3.2463157894736843,0,0.05
1757327813.929768,-0.932,0.099,9.696,0.7260501962674482,5.521221543412073,3.2463157894736843,0,0.05
1757327813.9563563,-0.878,0.149,9.646,0.7259579447185629,5.274798245923111,3.247268170426065,0,0.05
1757327813.983784,-0.878,0.149,9.646,0.7259579447185629,5.274798245923111,3.247268170426065,0,0.05
1757327814.0108168,-0.629,-0.111,9.565,0.7251075213373531,3.820350712442681,3.2524310776942356,0,0.05
1757327814.0370667,-0.629,-0.111,9.565,0.7251075213373531,3.820350712442681,3.2524310776942356,0,0.05
1757327814.0640128,-0.795,-0.044,9.704,0.7251020324754304,4.69063189499059,3.2606516290726817,0,0.05
1757327814.0902822,-0.795,-0.044,9.704,0.7251020324754304,4.69063189499059,3.2606516290726817,0,0.05
1757327814.117141,-0.957,-0.269,9.851,0.7255911503732663,5.762344468670006,3.2657142857142865,0,0.05
1757327814.1448781,-0.957,-0.269,9.851,0.7255911503732663,5.762344468670006,3.2657142857142865,0,0.05
1757327814.1704915,-0.621,-0.237,9.874,0.7253273261087024,3.8511687781412345,3.281002506265664,0,0.05
1757327814.197579,-0.621,-0.237,9.874,0.7253273261087024,3.8511687781412345,3.281002506265664,0,0.05
1757327814.2236955,-0.882,-0.076,9.89,0.725816104464485,5.114996870171366,3.2936842105263158,0,0.05
1757327814.249628,-0.882,-0.076,9.89,0.725816104464485,5.114996870171366,3.2936842105263158,0,0.05
1757327814.275397,-0.855,-0.0,9.819,0.7262043634542552,4.9765392622135565,3.2948872180451123,0,0.05
1757327814.3016973,-0.855,-0.0,9.819,0.7262043634542552,4.9765392622135565,3.2948872180451123,0,0.05
1757327814.3283029,-0.699,-0.223,9.703,0.7261678800387691,4.324293725309196,3.2966917293233085,0,0.05
1757327814.3560667,-0.699,-0.223,9.703,0.7261678800387691,4.324293725309196,3.2966917293233085,0,0.05
1757327814.3832767,-0.699,-0.223,9.703,0.7261678800387691,4.324293725309196,3.2966917293233085,0,0.05
1757327814.4099832,-0.774,-0.309,9.751,0.7260017837443652,4.885097922137543,3.2926817042606515,0,0.05
1757327814.4360652,-0.797,0.061,9.782,0.7254111317039462,4.671515217628593,3.279949874686717,0,0.05
1757327814.4622421,-0.797,0.061,9.782,0.7254111317039462,4.671515217628593,3.279949874686717,0,0.05
1757327814.4885561,-0.632,-0.211,9.762,0.7252258337924815,3.904589442880838,3.278045112781955,0,0.05
1757327814.5148468,-0.632,-0.211,9.762,0.7252258337924815,3.904589442880838,3.278045112781955,0,0.05
1757327814.5415945,-0.625,-0.137,9.921,0.7244556646199959,3.690089224949627,3.2711779448621554,0,0.05
1757327814.5682921,-0.625,-0.137,9.921,0.7244556646199959,3.690089224949627,3.2711779448621554,0,0.05
1757327814.5946097,-0.642,0.066,9.975,0.7241410894984485,3.701883555518563,3.2624060150375933,0,0.05
1757327814.6220212,-0.642,0.066,9.975,0.7241410894984485,3.701883555518563,3.2624060150375933,0,0.05
1757327814.6494584,-0.713,0.302,9.957,0.7234174572817551,4.446742293453417,3.2620050125313282,0,0.05
1757327814.675505,-0.713,0.302,9.957,0.7234174572817551,4.446742293453417,3.2620050125313282,0,0.05
1757327814.702108,-0.845,0.089,9.76,0.7233009332221271,4.9754412587635,3.262606516290726,0,0.05
1757327814.7292993,-0.845,0.089,9.76,0.7233009332221271,4.9754412587635,3.262606516290726,0,0.05
1757327814.7570667,-0.845,0.089,9.76,0.7233009332221271,4.9754412587635,3.262606516290726,0,0.05
1757327814.782873,-0.628,0.105,9.734,0.7222396832077285,3.742482042447363,3.265864661654135,0,0.05
1757327814.8091276,-0.628,0.105,9.734,0.7222396832077285,3.742482042447363,3.265864661654135,0,0.05
1757327814.8367727,-0.836,-0.123,9.986,0.722192938209728,4.8367587325423544,3.273333333333333,0,0.05
1757327814.8635666,-0.503,-0.052,9.925,0.7215421262823121,2.916709286545906,3.281904761904762,0,0.05
1757327814.8896668,-0.503,-0.052,9.925,0.7215421262823121,2.916709286545906,3.281904761904762,0,0.05
1757327814.9155014,-0.786,-0.038,9.927,0.7210322236211084,4.532386158246166,3.2898746867167916,0,0.05
1757327814.941777,-0.786,-0.038,9.927,0.7210322236211084,4.532386158246166,3.2898746867167916,0,0.05
1757327814.9688694,-0.786,-0.038,9.927,0.7210322236211084,4.532386158246166,3.2898746867167916,0,0.05
1757327814.9956684,-0.674,-0.085,9.974,0.7198003577381717,3.8964522565243924,3.2835087719298244,0,0.05
1757327815.023235,-0.808,-0.169,9.666,0.7179149705919219,4.881264942944804,3.277744360902256,0,0.05
1757327815.049595,-0.808,-0.169,9.666,0.7179149705919219,4.881264942944804,3.277744360902256,0,0.05
1757327815.0757878,-0.808,-0.169,9.666,0.7179149705919219,4.881264942944804,3.277744360902256,0,0.05
1757327815.102226,-0.713,-0.22,9.736,0.7168095458348751,4.382595995305123,3.2585463659147864,0,0.05
1757327815.1290584,-0.713,-0.22,9.736,0.7168095458348751,4.382595995305123,3.2585463659147864,0,0.05
1757327815.1558907,-0.892,-0.254,9.91,0.7175875434398231,5.346634253308859,3.2489223057644114,0,0.05
1757327815.1818588,-0.818,-0.343,9.913,0.7186679988005589,5.1131343172211,3.2318295739348373,0,0.05
1757327815.2087758,-0.818,-0.343,9.913,0.7186679988005589,5.1131343172211,3.2318295739348373,0,0.05
1757327815.2354498,-0.794,-0.193,9.817,0.7190630848541733,4.758057702605865,3.225213032581453,0,0.05
1757327815.2626765,-0.794,-0.193,9.817,0.7190630848541733,4.758057702605865,3.225213032581453,0,0.05
1757327815.2887645,-0.794,-0.193,9.817,0.7190630848541733,4.758057702605865,3.225213032581453,0,0.05
1757327815.3155446,-0.809,-0.285,9.934,0.719801583771528,4.934860198732173,3.2236090225563903,0,0.05
1757327815.3430958,-0.809,-0.285,9.934,0.719801583771528,4.934860198732173,3.2236090225563903,0,0.05
1757327815.3703468,-0.798,-0.174,9.976,0.720582937627585,4.680449994499738,3.203408521303258,0,0.05
1757327815.3969536,-0.798,-0.174,9.976,0.720582937627585,4.680449994499738,3.203408521303258,0,0.05
1757327815.4233994,-0.666,-0.203,10.052,0.7201106651064126,3.9622574707985203,3.1983458646616545,0,0.05
1757327815.4502447,-0.666,-0.203,10.052,0.7201106651064126,3.9622574707985203,3.1983458646616545,0,0.05
1757327815.477507,-0.862,-0.155,10.014,0.7193791611521702,4.998371955833913,3.1957393483709278,0,0.05
1757327815.5052917,-0.989,-0.337,10.028,0.7198786547050829,5.948312101943449,3.198045112781955,0,0.05
1757327815.5314376,-0.989,-0.337,10.028,0.7198786547050829,5.948312101943449,3.198045112781955,0,0.05
1757327815.5576534,-0.989,-0.337,10.028,0.7198786547050829,5.948312101943449,3.198045112781955,0,0.05
1757327815.5847888,-0.774,-0.122,9.861,0.719942162607525,4.543182385719274,3.2060651629072683,0,0.05
1757327815.6120312,-0.774,-0.122,9.861,0.719942162607525,4.543182385719274,3.2060651629072683,0,0.05
1757327815.6390162,-0.924,0.013,9.782,0.7202993093152318,5.396634021267563,3.211127819548872,0,0.05
1757327815.664902,-0.924,0.013,9.782,0.7202993093152318,5.396634021267563,3.211127819548872,0,0.05
1757327815.6918044,-0.635,-0.102,9.982,0.7200071648949058,3.686469833413563,3.2171929824561407,0,0.05
1757327815.719536,-0.635,-0.102,9.982,0.7200071648949058,3.686469833413563,3.2171929824561407,0,0.05
1757327815.7457294,-0.726,-0.085,9.821,0.7194397594656554,4.256571189870666,3.2105764411027566,0,0.05
1757327815.7721782,-0.726,-0.085,9.821,0.7194397594656554,4.256571189870666,3.2105764411027566,0,0.05
