timestamp,ax,ay,az,rms,tilt_now,jerk,tilt_crosses,freq
1757329319.7129805,-0.765,0.016,9.74,0.03825,4.491889189832674,0.038345864661654135,0,2.0
1757329319.741839,-0.779,0.023,9.75,0.05459088751797318,4.570064289719662,0.039047619047619046,0,0.05
1757329319.7685153,-0.8,0.032,9.75,0.06767691630090722,4.694418745398037,0.040100250626566414,0,0.05
1757329319.795885,-0.815,0.038,9.74,0.07899827529762912,4.7882865040671545,0.04085213032581453,0,0.05
1757329319.8221276,-0.811,0.023,9.752,0.08879769141143254,4.755819563449518,0.041052631578947354,0,0.05
1757329319.8484647,-0.803,0.016,9.735,0.09745282191912147,4.716349177031968,0.04145363408521302,0,0.05
1757329319.873938,-0.782,-0.009,9.736,0.10500410706253352,4.592467864216044,0.042506265664160395,0,0.05
1757329319.8994715,-0.769,-0.005,9.738,0.11182247090813188,4.515314509383961,0.0431578947368421,0,0.05
1757329319.9245834,-0.766,0.013,9.742,0.11819964043938544,4.496482847826701,0.043308270676691726,0,0.05
1757329319.9498427,-0.779,0.024,9.733,0.12445182802996507,4.578188997153442,0.04395989974937343,0,0.05
1757329319.9750004,-0.808,0.03,9.746,0.13084501327906997,4.742564995183427,0.04541353383458647,0,0.05
1757329320.0008852,-0.824,0.026,9.749,0.13717819615376198,4.8336348928057475,0.046215538847117786,0,0.05
1757329320.026364,-0.82,0.024,9.743,0.14317422079410805,4.812896811881786,0.04641604010025062,0,0.05
1757329320.051733,-0.813,0.02,9.739,0.1488330608433489,4.773355570640676,0.046766917293233075,0,0.05
1757329320.0770268,-0.8,0.013,9.734,0.15411450288665243,4.6989776645614665,0.04741854636591478,0,0.05
1757329320.1021914,-0.771,0.018,9.728,0.15886277883758676,4.532777573793975,0.04887218045112781,0,0.05
1757329320.1275082,-0.771,0.018,9.728,0.15886277883758676,4.532777573793975,0.04887218045112781,0,0.05
1757329320.1527946,-0.767,0.021,9.743,0.1634261453990762,4.502902958814396,0.04907268170426065,0,0.05
1757329320.1782572,-0.767,0.021,9.743,0.1634261453990762,4.502902958814396,0.04907268170426065,0,0.05
1757329320.2037177,-0.78,0.022,9.74,0.16801519276541632,4.58041041675819,0.04972431077694236,0,0.05
1757329320.2288425,-0.78,0.022,9.74,0.16801519276541632,4.58041041675819,0.04972431077694236,0,0.05
1757329320.254127,-0.799,0.035,9.743,0.17269947162629073,4.692673878898429,0.050676691729323306,0,0.05
1757329320.2793398,-0.799,0.035,9.743,0.17269947162629073,4.692673878898429,0.050676691729323306,0,0.05
1757329320.3044486,-0.815,0.041,9.752,0.17744201869906687,4.78326910686777,0.051478696741854624,0,0.05
1757329320.3303273,-0.815,0.041,9.752,0.17744201869906687,4.78326910686777,0.051478696741854624,0,0.05
1757329320.3558207,-0.823,0.027,9.764,0.1821510156436137,4.820608137219197,0.05187969924812029,0,0.05
1757329320.3814068,-0.823,0.027,9.764,0.1821510156436137,4.820608137219197,0.05187969924812029,0,0.05
1757329320.407269,-0.822,0.02,9.751,0.18673029347162715,4.820006317464735,0.0519298245614035,0,0.05
1757329320.4328225,-0.822,0.02,9.751,0.18673029347162715,4.820006317464735,0.0519298245614035,0,0.05
1757329320.4582717,-0.822,0.02,9.751,0.18673029347162715,4.820006317464735,0.0519298245614035,0,0.05
1757329320.4835324,-0.803,0.021,9.75,0.19099797119341347,4.709798098581693,0.052882205513784426,0,0.05
1757329320.5086653,-0.803,0.021,9.75,0.19099797119341347,4.709798098581693,0.052882205513784426,0,0.05
1757329320.5339315,-0.767,0.012,9.744,0.1948100292592761,4.501311577069395,0.05468671679197993,0,0.05
1757329320.5590153,-0.767,0.012,9.744,0.1948100292592761,4.501311577069395,0.05468671679197993,0,0.05
1757329320.5842388,-0.764,0.026,9.748,0.19851999269594992,4.483982463892099,0.05483709273182955,0,0.05
1757329320.6095421,-0.764,0.026,9.748,0.19851999269594992,4.483982463892099,0.05483709273182955,0,0.05
1757329320.6347172,-0.772,0.031,9.747,0.20223784883151819,4.532227300812135,0.05523809523809522,0,0.05
1757329320.6601377,-0.772,0.031,9.747,0.20223784883151819,4.532227300812135,0.05523809523809522,0,0.05
1757329320.6853218,-0.797,0.035,9.74,0.20612658731954014,4.6824375769261,0.05649122807017542,0,0.05
1757329320.7106757,-0.797,0.035,9.74,0.20612658731954014,4.6824375769261,0.05649122807017542,0,0.05
1757329320.7357745,-0.817,0.029,9.742,0.21013541467349095,4.796822539910259,0.057493734335839576,0,0.05
1757329320.7612486,-0.817,0.029,9.742,0.21013541467349095,4.796822539910259,0.057493734335839576,0,0.05
1757329320.7864873,-0.817,0.02,9.749,0.21406918274240225,4.79182000434681,0.057493734335839576,0,0.05
1757329320.8115299,-0.817,0.02,9.749,0.21406918274240225,4.79182000434681,0.057493734335839576,0,0.05
1757329320.8367715,-0.817,0.02,9.749,0.21406918274240225,4.79182000434681,0.057493734335839576,0,0.05
1757329320.8618104,-0.82,0.023,9.746,0.21796012249950678,4.811255042083324,0.0576441102756892,0,0.05
1757329320.887052,-0.82,0.023,9.746,0.21796012249950678,4.811255042083324,0.0576441102756892,0,0.05
1757329320.9121604,-0.814,0.026,9.737,0.22172754677757114,4.781163512559121,0.057944862155388445,0,0.05
1757329320.937529,-0.814,0.026,9.737,0.22172754677757114,4.781163512559121,0.057944862155388445,0,0.05
1757329320.9628263,-0.797,0.017,9.732,0.2252801089754708,4.6828375801660895,0.05879699248120297,0,0.05
1757329320.9879766,-0.797,0.017,9.732,0.2252801089754708,4.6828375801660895,0.05879699248120297,0,0.05
1757329321.01278,-0.785,0.013,9.735,0.22867376325236788,4.6108071475600525,0.05939849624060148,0,0.05
1757329321.037717,-0.785,0.013,9.735,0.22867376325236788,4.6108071475600525,0.05939849624060148,0,0.05
1757329321.0636234,-0.781,0.003,9.727,0.2319840350110326,4.590576907561475,0.05959899749373432,0,0.05
1757329321.0886436,-0.781,0.003,9.727,0.2319840350110326,4.590576907561475,0.05959899749373432,0,0.05
1757329321.1136103,-0.788,0.012,9.728,0.23530608258181515,4.6315699918124515,0.05994987468671676,0,0.05
1757329321.1387513,-0.788,0.012,9.728,0.23530608258181515,4.6315699918124515,0.05994987468671676,0,0.05
1757329321.1638534,-0.816,0.011,9.734,0.23881706911357906,4.792327391599492,0.06135338345864658,0,0.05
1757329321.1888463,-0.816,0.011,9.734,0.23881706911357906,4.792327391599492,0.06135338345864658,0,0.05
1757329321.2139158,-0.816,0.011,9.734,0.23881706911357906,4.792327391599492,0.06135338345864658,0,0.05
1757329321.2388134,-0.831,0.016,9.745,0.242404610104676,4.874976421670693,0.062105263157894705,0,0.05
1757329321.2640338,-0.831,0.016,9.745,0.242404610104676,4.874976421670693,0.062105263157894705,0,0.05
1757329321.289013,-0.825,0.015,9.739,0.24588931961352042,4.8428167712958885,0.06240601503759397,0,0.05
1757329321.3140948,-0.825,0.015,9.739,0.24588931961352042,4.8428167712958885,0.06240601503759397,0,0.05
1757329321.3397002,-0.812,0.005,9.739,0.24921861387143618,4.766166019022488,0.06305764411027566,0,0.05
1757329321.3654528,-0.812,0.005,9.739,0.24921861387143618,4.766166019022488,0.06305764411027566,0,0.05
1757329321.391162,-0.793,0.006,9.744,0.25235300671876293,4.652804943296047,0.0640100250626566,0,0.05
1757329321.4168317,-0.793,0.006,9.744,0.25235300671876293,4.652804943296047,0.0640100250626566,0,0.05
1757329321.4423814,-0.777,0.014,9.742,0.2553259926055316,4.560866393657162,0.06481203007518793,0,0.05
1757329321.4677322,-0.777,0.014,9.742,0.2553259926055316,4.560866393657162,0.06481203007518793,0,0.05
1757329321.493257,-0.783,0.012,9.724,0.25831005594053047,4.604200352388917,0.06511278195488719,0,0.05
1757329321.5189812,-0.783,0.012,9.724,0.25831005594053047,4.604200352388917,0.06511278195488719,0,0.05
1757329321.5442903,-0.786,0.016,9.715,0.26128255777988707,4.626440995849646,0.0652631578947368,0,0.05
1757329321.569758,-0.786,0.016,9.715,0.26128255777988707,4.626440995849646,0.0652631578947368,0,0.05
1757329321.594869,-0.786,0.016,9.715,0.26128255777988707,4.626440995849646,0.0652631578947368,0,0.05
1757329321.6204052,-0.806,0.024,9.717,0.26437220920512805,4.743773859056016,0.06626566416040096,0,0.05
1757329321.6462488,-0.806,0.024,9.717,0.26437220920512805,4.743773859056016,0.06626566416040096,0,0.05
1757329321.6716087,-0.818,0.028,9.72,0.26751724243495034,4.813274401096179,0.06686716791979945,0,0.05
1757329321.6970477,-0.818,0.028,9.72,0.26751724243495034,4.813274401096179,0.06686716791979945,0,0.05
1757329321.7224634,-0.814,0.023,9.717,0.270595574612742,4.790430109509948,0.06706766917293229,0,0.05
1757329321.7474637,-0.814,0.023,9.717,0.270595574612742,4.790430109509948,0.06706766917293229,0,0.05
1757329321.7725124,-0.812,0.028,9.726,0.2736244232520189,4.775240514651231,0.06716791979949871,0,0.05
1757329321.797495,-0.812,0.028,9.726,0.2736244232520189,4.775240514651231,0.06716791979949871,0,0.05
1757329321.8229802,-0.789,0.017,9.732,0.2764536624825217,4.6360602541236995,0.0683208020050125,0,0.05
1757329321.8482747,-0.789,0.017,9.732,0.2764536624825217,4.6360602541236995,0.0683208020050125,0,0.05
1757329321.8735147,-0.763,0.019,9.742,0.2790735566118725,4.479684758450292,0.06962406015037592,0,0.05
1757329321.8987076,-0.763,0.019,9.742,0.2790735566118725,4.479684758450292,0.06962406015037592,0,0.05
1757329321.9238882,-0.759,0.019,9.722,0.2816420645074169,4.465439983751241,0.06982456140350875,0,0.05
1757329321.9493258,-0.759,0.019,9.722,0.2816420645074169,4.465439983751241,0.06982456140350875,0,0.05
1757329321.9746742,-0.766,0.024,9.723,0.28423430915355735,4.506788780251332,0.0701754385964912,0,0.05
1757329321.9998984,-0.766,0.024,9.723,0.28423430915355735,4.506788780251332,0.0701754385964912,0,0.05
1757329322.0249896,-0.766,0.024,9.723,0.28423430915355735,4.506788780251332,0.0701754385964912,0,0.05
1757329322.050048,-0.774,0.041,9.72,0.28685681532778684,4.559191162911061,0.07057644110275686,0,0.05
1757329322.0758862,-0.774,0.041,9.72,0.28685681532778684,4.559191162911061,0.07057644110275686,0,0.05
1757329322.1010828,-0.801,0.045,9.731,0.2896391461802082,4.713037183865557,0.07192982456140347,0,0.05
1757329322.1261601,-0.801,0.045,9.731,0.2896391461802082,4.713037183865557,0.07192982456140347,0,0.05
1757329322.1511912,-0.803,0.039,9.74,0.2924087165253457,4.718537970828642,0.07203007518796989,0,0.05
1757329322.176213,-0.803,0.039,9.74,0.2924087165253457,4.718537970828642,0.07203007518796989,0,0.05
1757329322.201259,-0.81,0.05,9.733,0.2952001143292462,4.766321612420464,0.07238095238095234,0,0.05
1757329322.2263536,-0.81,0.05,9.733,0.2952001143292462,4.766321612420464,0.07238095238095234,0,0.05
1757329322.2514856,-0.784,0.038,9.74,0.29779144967577564,4.607355962200127,0.07368421052631573,0,0.05
1757329322.2767134,-0.784,0.038,9.74,0.29779144967577564,4.607355962200127,0.07368421052631573,0,0.05
1757329322.3016505,-0.761,0.03,9.736,0.3002125080672023,4.4728099542432345,0.07483709273182954,0,0.05
1757329322.3265922,-0.761,0.03,9.736,0.3002125080672023,4.4728099542432345,0.07483709273182954,0,0.05
1757329322.3515754,-0.761,0.038,9.747,0.30261419745279633,4.469868785015914,0.07483709273182954,0,0.05
1757329322.3763893,-0.761,0.038,9.747,0.30261419745279633,4.469868785015914,0.07483709273182954,0,0.05
1757329322.4012585,-0.761,0.038,9.747,0.30261419745279633,4.469868785015914,0.07483709273182954,0,0.05
1757329322.4261482,-0.777,0.038,9.736,0.3050978121848795,4.568358240391336,0.07563909774436087,0,0.05
1757329322.4513555,-0.777,0.038,9.736,0.3050978121848795,4.568358240391336,0.07563909774436087,0,0.05
1757329322.4765484,-0.795,0.034,9.746,0.30767635186994796,4.6676460393889565,0.0765413533834586,0,0.05
1757329322.5021152,-0.795,0.034,9.746,0.30767635186994796,4.6676460393889565,0.0765413533834586,0,0.05
1757329322.5274646,-0.816,0.033,9.742,0.3103697432096112,4.791872832186602,0.07759398496240598,0,0.05
1757329322.552564,-0.816,0.033,9.742,0.3103697432096112,4.791872832186602,0.07759398496240598,0,0.05
1757329322.5775433,-0.825,0.039,9.754,0.31309893005246764,4.839982752324438,0.07804511278195485,0,0.05
1757329322.6027982,-0.825,0.039,9.754,0.31309893005246764,4.839982752324438,0.07804511278195485,0,0.05
1757329322.6285257,-0.83,0.032,9.747,0.31583728405620515,4.870844855010341,0.07829573934837089,0,0.05
1757329322.6546283,-0.83,0.032,9.747,0.31583728405620515,4.870844855010341,0.07829573934837089,0,0.05
1757329322.6799927,-0.818,0.018,9.759,0.3184744887742188,4.792490307518645,0.0788972431077694,0,0.05
1757329322.705299,-0.818,0.018,9.759,0.3184744887742188,4.792490307518645,0.0788972431077694,0,0.05
1757329322.7309687,-0.803,0.016,9.757,0.3209953621160281,4.705762605309371,0.0796491228070175,0,0.05
1757329322.7567573,-0.803,0.016,9.757,0.3209953621160281,4.705762605309371,0.0796491228070175,0,0.05
1757329322.7823575,-0.792,0.014,9.751,0.32342879046244477,4.644231878729826,0.0802005012531328,0,0.05
1757329322.8089795,-0.792,0.014,9.751,0.32342879046244477,4.644231878729826,0.0802005012531328,0,0.05
1757329322.8350194,-0.792,0.014,9.751,0.32342879046244477,4.644231878729826,0.0802005012531328,0,0.05
1757329322.86076,-0.808,0.013,9.745,0.3259422379809036,4.740409093123892,0.08100250626566413,0,0.05
1757329322.8861072,-0.808,0.013,9.745,0.3259422379809036,4.740409093123892,0.08100250626566413,0,0.05
1757329322.9119194,-0.813,0.019,9.757,0.32846729669786,4.764450286366315,0.08125313283208017,0,0.05
1757329322.9377303,-0.813,0.019,9.757,0.32846729669786,4.764450286366315,0.08125313283208017,0,0.05
1757329322.964193,-0.83,0.023,9.766,0.3310785631840274,4.859678044539899,0.08210526315789471,0,0.05
1757329322.9904807,-0.83,0.023,9.766,0.3310785631840274,4.859678044539899,0.08210526315789471,0,0.05
1757329323.0167036,-0.85,0.033,9.748,0.33379524412429845,4.987172030093704,0.08310776942355887,0,0.05
1757329323.0440984,-0.85,0.033,9.748,0.33379524412429845,4.987172030093704,0.08310776942355887,0,0.05
1757329323.0709188,-0.919,0.002,9.665,0.3369431220547468,5.431672242849585,0.08656641604010024,0,0.05
1757329323.0971842,-0.919,0.002,9.665,0.3369431220547468,5.431672242849585,0.08656641604010024,0,0.05
1757329323.12283,-0.755,-0.254,9.545,0.3390512203192904,4.770581480843173,0.09478696741854631,0,0.05
1757329323.1494796,-0.755,-0.254,9.545,0.3390512203192904,4.770581480843173,0.09478696741854631,0,0.05
1757329323.1760502,-0.538,-0.359,9.5,0.3401166564577513,3.8948099417936657,0.10566416040100247,0,0.05
1757329323.201876,-0.538,-0.359,9.5,0.3401166564577513,3.8948099417936657,0.10566416040100247,0,0.05
1757329323.2290678,-0.485,-0.208,9.663,0.34098006173382045,3.1259603711438246,0.10832080200501251,0,0.05
1757329323.255908,-0.485,-0.208,9.663,0.34098006173382045,3.1259603711438246,0.10832080200501251,0,0.05
1757329323.282877,-0.704,-0.113,9.753,0.3427921272433193,4.181276102719872,0.11929824561403504,0,0.05
1757329323.3088944,-0.704,-0.113,9.753,0.3427921272433193,4.181276102719872,0.11929824561403504,0,0.05
1757329323.3344724,-0.931,0.165,9.784,0.34593835433498843,5.519821535121025,0.13067669172932325,0,0.05
1757329323.3606145,-0.931,0.165,9.784,0.34593835433498843,5.519821535121025,0.13067669172932325,0,0.05
1757329323.3863795,-0.936,0.363,9.77,0.34908965180881546,5.8668861588053645,0.1309273182957393,0,0.05
1757329323.4125779,-0.936,0.363,9.77,0.34908965180881546,5.8668861588053645,0.1309273182957393,0,0.05
1757329323.4397535,-0.62,0.38,9.831,0.3504633861047399,4.230390608326494,0.14676691729323305,0,0.05
1757329323.466068,-0.62,0.38,9.831,0.3504633861047399,4.230390608326494,0.14676691729323305,0,0.05
1757329323.4924319,-0.459,0.241,10.105,0.35121401950947234,2.9369033276876255,0.15483709273182952,0,0.05
1757329323.518431,-0.459,0.241,10.105,0.35121401950947234,2.9369033276876255,0.15483709273182952,0,0.05
1757329323.5449176,-0.741,-0.15,9.621,0.35316283779582475,4.4931381198040325,0.16897243107769416,0,0.05
1757329323.5719962,-0.741,-0.15,9.621,0.35316283779582475,4.4931381198040325,0.16897243107769416,0,0.05
1757329323.5979578,-0.894,0.103,9.51,0.3559804489013407,5.4056979509020735,0.176641604010025,0,0.05
1757329323.624383,-0.894,0.103,9.51,0.3559804489013407,5.4056979509020735,0.176641604010025,0,0.05
1757329323.650281,-0.823,-0.06,9.835,0.3583509487918234,4.796044239479859,0.1802005012531328,0,0.05
1757329323.6767032,-0.823,-0.06,9.835,0.3583509487918234,4.796044239479859,0.1802005012531328,0,0.05
1757329323.703108,-0.746,0.038,9.664,0.3602869585483216,4.419820194862351,0.18406015037593984,0,0.05
1757329323.7286606,-0.746,0.038,9.664,0.3602869585483216,4.419820194862351,0.18406015037593984,0,0.05
1757329323.75396,-0.978,0.245,9.738,0.3635902948374723,5.91103922227486,0.1956892230576441,0,0.05
1757329323.7801824,-0.978,0.245,9.738,0.3635902948374723,5.91103922227486,0.1956892230576441,0,0.05
1757329323.805928,-0.978,0.245,9.738,0.3635902948374723,5.91103922227486,0.1956892230576441,0,0.05
1757329323.8327255,-0.727,0.04,9.899,0.3654028256595726,4.206692223282401,0.2082706766917293,0,0.05
1757329323.8583357,-0.727,0.04,9.899,0.3654028256595726,4.206692223282401,0.2082706766917293,0,0.05
1757329323.883952,-0.797,-0.109,9.8,0.3675693778050615,4.6925223854471465,0.21177944862155387,0,0.05
1757329323.9103403,-0.797,-0.109,9.8,0.3675693778050615,4.6925223854471465,0.21177944862155387,0,0.05
1757329323.936743,-0.858,-0.166,9.637,0.37006439642310907,5.181572985619084,0.21483709273182958,0,0.05
1757329323.963418,-0.858,-0.166,9.637,0.37006439642310907,5.181572985619084,0.21483709273182958,0,0.05
1757329323.9892673,-0.858,-0.166,9.637,0.37006439642310907,5.181572985619084,0.21483709273182958,0,0.05
1757329324.0153897,-1.047,0.089,9.908,0.3737488193961287,6.0537768424280465,0.22431077694235588,0,0.05
1757329324.0413473,-1.015,0.234,9.944,0.3771786612468951,5.9798690538890495,0.22591478696741854,0,0.05
1757329324.0677817,-1.015,0.234,9.944,0.3771786612468951,5.9798690538890495,0.22591478696741854,0,0.05
1757329324.093432,-1.147,0.122,9.712,0.3815137808782273,6.77314882710139,0.232531328320802,0,0.05
1757329324.1195276,-1.147,0.122,9.712,0.3815137808782273,6.77314882710139,0.232531328320802,0,0.05
1757329324.1457062,-0.936,0.223,9.752,0.384373522761389,5.634949107856873,0.24310776942355888,0,0.05
1757329324.1724546,-0.936,0.223,9.752,0.384373522761389,5.634949107856873,0.24310776942355888,0,0.05
1757329324.1996505,-0.626,0.168,9.966,0.38564581548358595,3.7210619124809314,0.2586466165413534,0,0.05
1757329324.2262576,-0.626,0.168,9.966,0.38564581548358595,3.7210619124809314,0.2586466165413534,0,0.05
1757329324.2515562,-0.707,-0.154,9.608,0.38726259501790256,4.306811914398575,0.2627067669172933,0,0.05
1757329324.2769089,-0.707,-0.154,9.608,0.38726259501790256,4.306811914398575,0.2627067669172933,0,0.05
1757329324.3032467,-1.036,0.113,9.747,0.39071160399967647,6.102851420248418,0.27919799498746867,0,0.05
1757329324.3302605,-1.036,0.113,9.747,0.39071160399967647,6.102851420248418,0.27919799498746867,0,0.05
1757329324.3557312,-0.991,0.048,9.787,0.3938410339210479,5.7886111329342365,0.28145363408521307,0,0.05
1757329324.3824584,-0.991,0.048,9.787,0.3938410339210479,5.7886111329342365,0.28145363408521307,0,0.05
1757329324.4088597,-1.148,0.164,9.712,0.3980019095431579,6.809127714880782,0.2893233082706767,0,0.05
1757329324.4354904,-1.148,0.164,9.712,0.3980019095431579,6.809127714880782,0.2893233082706767,0,0.05
1757329324.461459,-1.024,-0.002,9.869,0.4012816467270837,5.923780400457361,0.29553884711779455,0,0.05
1757329324.4869676,-1.024,-0.002,9.869,0.4012816467270837,5.923780400457361,0.29553884711779455,0,0.05
1757329324.5134778,-0.9,0.05,9.777,0.40379692916118126,5.267477982490861,0.3017543859649123,0,0.05
1757329324.5403752,-0.9,0.05,9.777,0.40379692916118126,5.267477982490861,0.3017543859649123,0,0.05
1757329324.5666952,-0.891,-0.039,9.609,0.40624704614310736,5.302678930049779,0.3022055137844612,0,0.05
1757329324.5926838,-0.891,-0.039,9.609,0.40624704614310736,5.302678930049779,0.3022055137844612,0,0.05
1757329324.6189876,-0.81,0.245,9.669,0.4082608388028418,5.001845381823648,0.306265664160401,0,0.05
1757329324.6456983,-0.81,0.245,9.669,0.4082608388028418,5.001845381823648,0.306265664160401,0,0.05
1757329324.671773,-0.81,0.245,9.669,0.4082608388028418,5.001845381823648,0.306265664160401,0,0.05
1757329324.697956,-1.066,0.179,9.692,0.4117253969577296,6.363754782996037,0.3190977443609023,0,0.05
1757329324.7240365,-1.066,0.179,9.692,0.4117253969577296,6.363754782996037,0.3190977443609023,0,0.05
1757329324.7505226,-1.031,0.151,9.635,0.4149400016869909,6.172393527264999,0.32085213032581456,0,0.05
1757329324.7768157,-1.031,0.151,9.635,0.4149400016869909,6.172393527264999,0.32085213032581456,0,0.05
1757329324.8033042,-1.277,-0.008,9.64,0.4198238053040823,7.546119834618675,0.3331829573934837,0,0.05
1757329324.83084,-1.277,-0.008,9.64,0.4198238053040823,7.546119834618675,0.3331829573934837,0,0.05
1757329324.8564575,-1.125,-0.183,9.62,0.4235753651949084,6.7569589054233825,0.3408020050125312,0,0.05
1757329324.8833046,-1.125,-0.183,9.62,0.4235753651949084,6.7569589054233825,0.3408020050125312,0,0.05
1757329324.909246,-0.587,-0.216,9.464,0.4245909943698759,3.78120365732461,0.36776942355889713,0,0.05
1757329324.935143,-0.587,-0.216,9.464,0.4245909943698759,3.78120365732461,0.36776942355889713,0,0.05
1757329324.9606647,-0.831,0.051,9.297,0.4266191685801284,5.117292515741958,0.3799999999999999,0,0.05
1757329324.9866347,-0.831,0.051,9.297,0.4266191685801284,5.117292515741958,0.3799999999999999,0,0.05
1757329325.0126762,-0.984,0.175,9.557,0.4294468011290805,5.970107940919571,0.3876691729323307,0,0.05
1757329325.0387754,-0.984,0.175,9.557,0.4294468011290805,5.970107940919571,0.3876691729323307,0,0.05
1757329325.064077,-0.923,0.009,9.495,0.4319194108858735,5.552486098632711,0.39072681704260637,0,0.05
1757329325.0901742,-0.923,0.009,9.495,0.4319194108858735,5.552486098632711,0.39072681704260637,0,0.05
1757329325.1165416,-0.955,0.192,9.454,0.4345508485781612,5.882810508078174,0.39233082706766903,0,0.05
1757329325.1440463,-0.955,0.192,9.454,0.4345508485781612,5.882810508078174,0.39233082706766903,0,0.05
1757329325.1703248,-0.993,0.378,9.613,0.4373780544334615,6.307228039841697,0.39423558897243094,0,0.05
1757329325.1971552,-0.993,0.378,9.613,0.4373780544334615,6.307228039841697,0.39423558897243094,0,0.05
1757329325.2230394,-0.766,0.376,9.503,0.4390517651712609,5.1310211272101185,0.4056140350877191,0,0.05
1757329325.249071,-0.766,0.376,9.503,0.4390517651712609,5.1310211272101185,0.4056140350877191,0,0.05
1757329325.275002,-0.829,0.147,9.508,0.44100403059382576,5.060336027493834,0.40877192982456134,0,0.05
1757329325.3010778,-0.829,0.147,9.508,0.44100403059382576,5.060336027493834,0.40877192982456134,0,0.05
1757329325.3285995,-0.943,0.24,9.714,0.44351739255636863,5.720296868515621,0.41448621553884696,0,0.05
1757329325.3555946,-0.943,0.24,9.714,0.44351739255636863,5.720296868515621,0.41448621553884696,0,0.05
1757329325.3814464,-0.888,0.384,9.625,0.4457342678098689,5.739889648714275,0.41724310776942347,0,0.05
1757329325.4081366,-0.888,0.384,9.625,0.4457342678098689,5.739889648714275,0.41724310776942347,0,0.05
1757329325.4343445,-1.087,0.244,9.767,0.4490355887900201,6.507179891005594,0.4272180451127818,0,0.05
1757329325.4607778,-1.087,0.244,9.767,0.4490355887900201,6.507179891005594,0.4272180451127818,0,0.05
1757329325.4860249,-1.063,-0.029,9.947,0.45217019196315894,6.102095009102367,0.4284210526315787,0,0.05
1757329325.512648,-1.063,-0.029,9.947,0.45217019196315894,6.102095009102367,0.4284210526315787,0,0.05
1757329325.5394502,-1.107,0.102,9.787,0.45554528314976545,6.480358196590611,0.4306265664160399,0,0.05
1757329325.5665572,-1.107,0.102,9.787,0.45554528314976545,6.480358196590611,0.4306265664160399,0,0.05
1757329325.592947,-0.804,-0.202,9.767,0.45731558578294706,4.851429179168248,0.44581453634085205,0,0.05
1757329325.6189508,-0.804,-0.202,9.767,0.45731558578294706,4.851429179168248,0.44581453634085205,0,0.05
1757329325.6450605,-0.877,-0.125,9.875,0.4594130684906558,5.126150460976585,0.4494736842105262,0,0.05
1757329325.670659,-0.877,-0.125,9.875,0.4594130684906558,5.126150460976585,0.4494736842105262,0,0.05
1757329325.6969333,-0.877,-0.125,9.875,0.4594130684906558,5.126150460976585,0.4494736842105262,0,0.05
1757329325.7238762,-0.95,-0.166,9.926,0.4618621195768278,5.549347546093298,0.4531328320802004,0,0.05
1757329325.7506084,-0.95,-0.166,9.926,0.4618621195768278,5.549347546093298,0.4531328320802004,0,0.05
1757329325.7763643,-0.951,0.011,9.841,0.46430337065328314,5.520092112219734,0.4531829573934837,0,0.05
1757329325.8024178,-0.951,0.011,9.841,0.46430337065328314,5.520092112219734,0.4531829573934837,0,0.05
1757329325.8282712,-0.847,-0.026,9.819,0.4662307824457754,4.932516552860305,0.45839598997493736,0,0.05
1757329325.853787,-0.847,-0.026,9.819,0.4662307824457754,4.932516552860305,0.45839598997493736,0,0.05
1757329325.8793228,-0.873,-0.006,9.957,0.4682696498813477,5.01082711410872,0.4596992481203008,0,0.05
1757329325.905451,-0.873,-0.006,9.957,0.4682696498813477,5.01082711410872,0.4596992481203008,0,0.05
1757329325.931089,-0.76,0.18,9.819,0.46980896649595777,4.547857723264114,0.46536340852130326,0,0.05
1757329325.9586086,-0.76,0.18,9.819,0.46980896649595777,4.547857723264114,0.46536340852130326,0,0.05
1757329325.9842284,-0.724,-0.172,9.734,0.4712015545390317,4.371677888319357,0.4671679197994988,0,0.05
1757329326.009762,-0.724,-0.172,9.734,0.4712015545390317,4.371677888319357,0.4671679197994988,0,0.05
1757329326.0365727,-0.727,0.057,9.824,0.472601552578914,4.245254215821122,0.4673182957393483,0,0.05
1757329326.0640616,-0.727,0.057,9.824,0.472601552578914,4.245254215821122,0.4673182957393483,0,0.05
1757329326.0914052,-0.895,0.104,9.92,0.4747154832107333,5.189869123736965,0.47573934837092735,0,0.05
1757329326.1185877,-0.895,0.104,9.92,0.4747154832107333,5.189869123736965,0.47573934837092735,0,0.05
1757329326.1449356,-1.043,-0.061,9.841,0.4775713690120043,6.060178644163766,0.4831578947368421,0,0.05
1757329326.1709645,-1.043,-0.061,9.841,0.4775713690120043,6.060178644163766,0.4831578947368421,0,0.05
1757329326.197004,-1.109,0.24,9.879,0.4807796948707381,6.552109321684085,0.4864661654135338,0,0.05
1757329326.2240248,-1.109,0.24,9.879,0.4807796948707381,6.552109321684085,0.4864661654135338,0,0.05
1757329326.2497942,-0.929,-0.1,9.905,0.48301834074908584,5.388925712265881,0.49548872180451126,0,0.05
1757329326.2772124,-0.929,-0.1,9.905,0.48301834074908584,5.388925712265881,0.49548872180451126,0,0.05
1757329326.3042982,-0.807,-0.04,9.841,0.48470077367382036,4.693715142847728,0.5016040100250626,0,0.05
1757329326.3300438,-0.807,-0.04,9.841,0.48470077367382036,4.693715142847728,0.5016040100250626,0,0.05
1757329326.356135,-0.842,0.014,9.974,0.48652569305227855,4.826102979317933,0.5033583959899749,0,0.05
1757329326.3827279,-0.842,0.014,9.974,0.48652569305227855,4.826102979317933,0.5033583959899749,0,0.05
1757329326.4080338,-0.749,0.167,9.862,0.48796490908670886,4.449390102543653,0.5080200501253131,0,0.05
1757329326.4336927,-0.749,0.167,9.862,0.48796490908670886,4.449390102543653,0.5080200501253131,0,0.05
1757329326.4605353,-1.08,0.175,9.837,0.490943736593105,6.346442125059237,0.5246115288220551,0,0.05
1757329326.4864247,-1.08,0.175,9.837,0.490943736593105,6.346442125059237,0.5246115288220551,0,0.05
1757329326.5126283,-0.986,-0.094,9.876,0.49341285198097545,5.727081579649935,0.5293233082706765,0,0.05
1757329326.5387158,-0.986,-0.094,9.876,0.49341285198097545,5.727081579649935,0.5293233082706765,0,0.05
1757329326.5655918,-0.951,0.261,9.939,0.4956987441985303,5.666442661586992,0.5310776942355888,0,0.05
1757329326.591546,-0.951,0.261,9.939,0.4956987441985303,5.666442661586992,0.5310776942355888,0,0.05
1757329326.6169007,-0.951,0.261,9.939,0.4956987441985303,5.666442661586992,0.5310776942355888,0,0.05
1757329326.6430376,-0.873,0.297,9.764,0.49761688827852296,5.3951609132537195,0.5349874686716791,0,0.05
1757329326.668775,-0.873,0.297,9.764,0.49761688827852296,5.3951609132537195,0.5349874686716791,0,0.05
1757329326.6948042,-0.819,-0.031,9.602,0.4992989785689532,4.878702447866833,0.5376942355889723,0,0.05
1757329326.7212806,-0.819,-0.031,9.602,0.4992989785689532,4.878702447866833,0.5376942355889723,0,0.05
1757329326.747071,-0.879,0.207,9.717,0.5012295606805329,5.3095057517777615,0.5407017543859649,0,0.05
1757329326.7730198,-0.879,0.207,9.717,0.5012295606805329,5.3095057517777615,0.5407017543859649,0,0.05
1757329326.79937,-1.059,0.036,9.615,0.504018625647902,6.288848372978819,0.5497243107769423,0,0.05
1757329326.8261359,-1.059,0.036,9.615,0.504018625647902,6.288848372978819,0.5497243107769423,0,0.05
1757329326.8516092,-1.005,0.113,9.607,0.5065173614990902,6.009416653969027,0.5524310776942356,0,0.05
1757329326.8784218,-1.005,0.113,9.607,0.5065173614990902,6.009416653969027,0.5524310776942356,0,0.05
1757329326.9052837,-1.147,0.208,9.742,0.5097537248515208,6.823448946123403,0.5595488721804511,0,0.05
1757329326.9309373,-1.147,0.208,9.742,0.5097537248515208,6.823448946123403,0.5595488721804511,0,0.05
1757329326.9576323,-0.752,-0.076,9.637,0.5111385526449751,4.4845323332543305,0.5793483709273183,0,0.05
1757329326.9839845,-0.752,-0.076,9.637,0.5111385526449751,4.4845323332543305,0.5793483709273183,0,0.05
1757329327.0098612,-0.945,0.084,9.614,0.5133178182179147,5.635798975099789,0.5890225563909774,0,0.05
1757329327.036838,-0.945,0.084,9.614,0.5133178182179147,5.635798975099789,0.5890225563909774,0,0.05
1757329327.063509,-0.805,0.083,9.608,0.5148934307213484,4.8145742983523885,0.5960401002506266,0,0.05
1757329327.0896592,-0.805,0.083,9.608,0.5148934307213484,4.8145742983523885,0.5960401002506266,0,0.05
1757329327.1156228,-0.856,0.109,9.52,0.5166692220366915,5.179251337577442,0.5985964912280702,0,0.05
1757329327.1422782,-0.856,0.109,9.52,0.5166692220366915,5.179251337577442,0.5985964912280702,0,0.05
1757329327.1678305,-0.957,-0.069,9.56,0.5188802438906304,5.731267650877916,0.6036591478696741,0,0.05
1757329327.193279,-0.957,-0.069,9.56,0.5188802438906304,5.731267650877916,0.6036591478696741,0,0.05
1757329327.2194414,-0.812,-0.159,9.716,0.5204662020727187,4.86760025686894,0.6109273182957393,0,0.05
1757329327.2462249,-0.812,-0.159,9.716,0.5204662020727187,4.86760025686894,0.6109273182957393,0,0.05
1757329327.2725785,-0.766,0.034,9.747,0.5218735071834937,4.497947434854248,0.6132330827067668,0,0.05
1757329327.2986841,-0.766,0.034,9.747,0.5218735071834937,4.497947434854248,0.6132330827067668,0,0.05
1757329327.3252828,-0.685,-0.009,9.541,0.5229961950148395,4.106881020070177,0.6172932330827067,0,0.05
1757329327.351184,-0.685,-0.009,9.541,0.5229961950148395,4.106881020070177,0.6172932330827067,0,0.05
1757329327.3778534,-0.594,0.211,9.57,0.5238388206309266,3.768549456245552,0.6218546365914787,0,0.05
1757329327.404347,-0.594,0.211,9.57,0.5238388206309266,3.768549456245552,0.6218546365914787,0,0.05
1757329327.4301965,-0.741,0.223,9.767,0.5251474197784847,4.530015729252223,0.6292230576441102,0,0.05
1757329327.4578912,-0.741,0.223,9.767,0.5251474197784847,4.530015729252223,0.6292230576441102,0,0.05
1757329327.4841304,-0.857,-0.007,9.588,0.5268927167839768,5.107839737109777,0.6350375939849623,0,0.05
1757329327.5106113,-0.857,-0.007,9.588,0.5268927167839768,5.107839737109777,0.6350375939849623,0,0.05
1757329327.535985,-0.787,0.268,9.58,0.5283600642554279,4.959867417416681,0.6385463659147869,0,0.05
1757329327.5616386,-0.787,0.268,9.58,0.5283600642554279,4.959867417416681,0.6385463659147869,0,0.05
1757329327.5875523,-0.845,0.177,9.644,0.5300466205910571,5.1155294693880915,0.6414536340852128,0,0.05
1757329327.6132712,-0.845,0.177,9.644,0.5300466205910571,5.1155294693880915,0.6414536340852128,0,0.05
1757329327.6394367,-0.845,0.177,9.644,0.5300466205910571,5.1155294693880915,0.6414536340852128,0,0.05
1757329327.6658418,-0.633,0.007,9.748,0.5309907179038067,3.7155916501427693,0.6520802005012531,0,0.05
1757329327.6920993,-0.633,0.007,9.748,0.5309907179038067,3.7155916501427693,0.6520802005012531,0,0.05
1757329327.7176883,-0.626,-0.008,9.709,0.5319124293528024,3.6894114759975687,0.6524310776942355,0,0.05
1757329327.7431617,-0.626,-0.008,9.709,0.5319124293528024,3.6894114759975687,0.6524310776942355,0,0.05
1757329327.7689784,-0.741,0.27,9.68,0.5332012143647087,4.657765954319773,0.6581954887218046,0,0.05
1757329327.7949893,-0.741,0.27,9.68,0.5332012143647087,4.657765954319773,0.6581954887218046,0,0.05
1757329327.8208401,-0.741,0.27,9.68,0.5332012143647087,4.657765954319773,0.6581954887218046,0,0.05
1757329327.8468525,-0.895,0.334,9.765,0.5350757866882037,5.587356225730528,0.6659147869674186,0,0.05
1757329327.8733811,-1.309,0.304,9.774,0.5390638181143305,7.8285683309015,0.6866666666666665,0,0.05
1757329327.8997111,-1.309,0.304,9.774,0.5390638181143305,7.8285683309015,0.6866666666666665,0,0.05
1757329327.9257188,-1.193,0.258,9.668,0.5423540564059607,7.19548812083995,0.6924812030075188,0,0.05
1757329327.9524207,-1.193,0.258,9.668,0.5423540564059607,7.19548812083995,0.6924812030075188,0,0.05
1757329327.9779227,-0.972,0.22,9.797,0.5445272100639232,5.80835396136681,0.7035588972431078,0,0.05
1757329328.0033422,-0.972,0.22,9.797,0.5445272100639232,5.80835396136681,0.7035588972431078,0,0.05
1757329328.0307207,-0.879,0.074,9.762,0.5462979818743613,5.163312460932414,0.7082205513784461,0,0.05
1757329328.0581076,-0.879,0.074,9.762,0.5462979818743613,5.163312460932414,0.7082205513784461,0,0.05
1757329328.08552,-0.833,0.115,9.701,0.5478833885965151,4.954121405343325,0.7105263157894736,0,0.05
1757329328.1107974,-0.833,0.115,9.701,0.5478833885965151,4.954121405343325,0.7105263157894736,0,0.05
1757329328.137027,-0.733,0.136,9.789,0.5491078491516944,4.35512051467975,0.7155388471177945,0,0.05
1757329328.1636229,-0.733,0.136,9.789,0.5491078491516944,4.35512051467975,0.7155388471177945,0,0.05
1757329328.189938,-0.615,0.079,9.933,0.5499681740791916,3.5719717181840824,0.7214536340852129,0,0.05
1757329328.2166839,-0.615,0.079,9.933,0.5499681740791916,3.5719717181840824,0.7214536340852129,0,0.05
1757329328.2431066,-0.791,0.199,10.057,0.551388424796894,4.636684694684285,0.7302756892230575,0,0.05
1757329328.269074,-0.791,0.199,10.057,0.551388424796894,4.636684694684285,0.7302756892230575,0,0.05
1757329328.2959638,-0.407,0.065,9.909,0.5517638240225613,2.38180384933578,0.7495238095238094,0,0.05
1757329328.3224597,-0.407,0.065,9.909,0.5517638240225613,2.38180384933578,0.7495238095238094,0,0.05
1757329328.3476958,-0.784,0.357,9.83,0.553154551188002,5.008338680699232,0.7684210526315787,0,0.05
1757329328.375556,-0.784,0.357,9.83,0.553154551188002,5.008338680699232,0.7684210526315787,0,0.05
1757329328.4018266,-0.756,-0.149,9.81,0.5544445846971544,4.491174417782131,0.7698245614035087,0,0.05
1757329328.4285202,-0.756,-0.149,9.81,0.5544445846971544,4.491174417782131,0.7698245614035087,0,0.05
1757329328.4551659,-0.756,-0.149,9.81,0.5544445846971544,4.491174417782131,0.7698245614035087,0,0.05
1757329328.4816027,-1.035,0.177,9.744,0.5568544334024826,6.150530993827515,0.7838095238095238,0,0.05
1757329328.5077941,-1.035,0.137,9.415,0.5592538980641977,6.327667751792113,0.7838095238095237,0,0.05
1757329328.534231,-1.035,0.137,9.415,0.5592538980641977,6.327667751792113,0.7838095238095237,0,0.05
1757329328.5599968,-1.035,0.137,9.415,0.5592538980641977,6.327667751792113,0.7838095238095237,0,0.05
1757329328.5865438,-0.962,-0.034,9.561,0.5613185659676687,5.749160951937742,0.7874686716791979,0,0.05
1757329328.6130993,-0.962,-0.034,9.561,0.5613185659676687,5.749160951937742,0.7874686716791979,0,0.05
1757329328.63973,-0.884,0.014,9.622,0.5630561006684858,5.249842086185731,0.7913784461152882,0,0.05
1757329328.6663961,-0.884,0.014,9.622,0.5630561006684858,5.249842086185731,0.7913784461152882,0,0.05
1757329328.692925,-0.59,0.184,9.635,0.5638283626246555,3.67014325281607,0.8061152882205513,0,0.05
1757329328.7194366,-0.59,0.184,9.635,0.5638283626246555,3.67014325281607,0.8061152882205513,0,0.05
1757329328.7456722,-0.729,0.083,9.761,0.5650053318332492,4.29869531260843,0.8130827067669171,0,0.05
1757329328.7719316,-0.729,0.083,9.761,0.5650053318332492,4.29869531260843,0.8130827067669171,0,0.05
1757329328.7987518,-0.886,-0.131,9.695,0.5667393713163045,5.278051194613108,0.8209523809523807,0,0.05
1757329328.825206,-0.886,-0.131,9.695,0.5667393713163045,5.278051194613108,0.8209523809523807,0,0.05
1757329328.8515432,-0.936,-0.099,9.739,0.5686684051360688,5.520179454169535,0.8234586466165411,0,0.05
1757329328.876795,-0.936,-0.099,9.739,0.5686684051360688,5.520179454169535,0.8234586466165411,0,0.05
1757329328.9022193,-0.879,-0.016,9.792,0.5703642323112487,5.130375729139642,0.8263157894736839,0,0.05
1757329328.9284043,-0.879,-0.016,9.792,0.5703642323112487,5.130375729139642,0.8263157894736839,0,0.05
1757329328.954256,-0.555,-0.011,9.894,0.5710388953477687,3.2112485227380483,0.8425563909774434,0,0.05
1757329328.9805784,-0.555,-0.011,9.894,0.5710388953477687,3.2112485227380483,0.8425563909774434,0,0.05
1757329329.0064132,-0.7,0.147,9.652,0.5721104963204224,4.2381985011234375,0.8498245614035085,0,0.05
1757329329.0337894,-0.7,0.147,9.652,0.5721104963204224,4.2381985011234375,0.8498245614035085,0,0.05
1757329329.0606618,-0.348,0.232,9.392,0.5723750343961553,2.5498074054600512,0.8674686716791978,0,0.05
1757329329.0871284,-0.348,0.232,9.392,0.5723750343961553,2.5498074054600512,0.8674686716791978,0,0.05
1757329329.1129055,-0.26,-0.0,9.442,0.5725226458403196,1.5773288645265728,0.8718796992481203,0,0.05
1757329329.1385212,-0.26,-0.0,9.442,0.5725226458403196,1.5773288645265728,0.8718796992481203,0,0.05
1757329329.165258,-0.585,0.224,9.563,0.5732693455087233,3.7477750818704196,0.8881704260651627,0,0.05
1757329329.19153,-0.585,0.224,9.563,0.5732693455087233,3.7477750818704196,0.8881704260651627,0,0.05
1757329329.2180378,-0.187,0.24,9.69,0.5733455895007827,1.7984111381195274,0.9081203007518794,0,0.05
1757329329.2454352,-0.187,0.24,9.69,0.5733455895007827,1.7984111381195274,0.9081203007518794,0,0.05
1757329329.2725604,-0.391,0.22,9.531,0.573678801682614,2.695039251119362,0.918345864661654,0,0.05
1757329329.299926,-0.391,0.22,9.531,0.573678801682614,2.695039251119362,0.918345864661654,0,0.05
1757329329.3257434,-0.515,0.178,9.624,0.5742564148531559,3.2405242922865907,0.9245614035087717,0,0.05
1757329329.351821,-0.515,0.178,9.624,0.5742564148531559,3.2405242922865907,0.9245614035087717,0,0.05
1757329329.3790514,-0.662,-0.036,9.711,0.5752095618120409,3.905570696939578,0.9319298245614035,0,0.05
1757329329.4056866,-0.662,-0.036,9.711,0.5752095618120409,3.905570696939578,0.9319298245614035,0,0.05
1757329329.432706,-0.983,0.119,9.588,0.5773056058103021,5.896176485429839,0.9480200501253131,0,0.05
1757329329.4598858,-0.983,0.119,9.588,0.5773056058103021,5.896176485429839,0.9480200501253131,0,0.05
1757329329.4862204,-0.64,0.022,9.627,0.5781918042483826,3.8056491436585884,0.9652130325814535,0,0.05
1757329329.5118806,-0.64,0.022,9.627,0.5781918042483826,3.8056491436585884,0.9652130325814535,0,0.05
1757329329.5384066,-0.696,0.026,9.752,0.579238122450517,4.085114270529752,0.9680200501253133,0,0.05
1757329329.564755,-0.696,0.026,9.752,0.579238122450517,4.085114270529752,0.9680200501253133,0,0.05
1757329329.5900497,-0.696,0.026,9.752,0.579238122450517,4.085114270529752,0.9680200501253133,0,0.05
1757329329.6158686,-0.687,0.02,9.717,0.5802557410314869,4.045837666716882,0.9684711779448624,0,0.05
1757329329.642606,-0.704,-0.16,9.621,0.5813224277455671,4.291391277273368,0.9693233082706767,0,0.05
1757329329.6693635,-0.704,-0.16,9.621,0.5813224277455671,4.291391277273368,0.9693233082706767,0,0.05
1757329329.6964738,-0.769,-0.071,9.801,0.582592625682818,4.505317491356091,0.9725814536340852,0,0.05
1757329329.723146,-0.769,-0.071,9.801,0.582592625682818,4.505317491356091,0.9725814536340852,0,0.05
1757329329.749701,-0.737,-0.049,9.94,0.5837568757625045,4.249756412166729,0.9741854636591478,0,0.05
1757329329.7758658,-0.737,-0.049,9.94,0.5837568757625045,4.249756412166729,0.9741854636591478,0,0.05
1757329329.8026469,-0.737,-0.049,9.94,0.5837568757625045,4.249756412166729,0.9741854636591478,0,0.05
1757329329.8292122,-0.629,-0.179,9.817,0.5846034489292721,3.811212188527412,0.9795989974937344,0,0.05
1757329329.855726,-0.629,-0.179,9.817,0.5846034489292721,3.811212188527412,0.9795989974937344,0,0.05
1757329329.882749,-0.572,-0.123,9.783,0.58530261617389,3.422514521019764,0.9824561403508771,0,0.05
1757329329.9090526,-0.572,-0.123,9.783,0.58530261617389,3.422514521019764,0.9824561403508771,0,0.05
1757329329.9362328,-0.559,-0.013,9.921,0.5859695853881838,3.2257981384340426,0.9831077694235587,0,0.05
1757329329.961992,-0.559,-0.013,9.921,0.5859695853881838,3.2257981384340426,0.9831077694235587,0,0.05
1757329329.9888277,-0.421,0.032,9.794,0.5863475569148388,2.468463760881929,0.9900250626566414,0,0.05
1757329330.015685,-0.421,0.032,9.794,0.5863475569148388,2.468463760881929,0.9900250626566414,0,0.05
1757329330.041812,-0.304,0.129,9.847,0.5865445400819959,1.9208025640208528,0.9958897243107767,0,0.05
1757329330.0689826,-0.304,0.129,9.847,0.5865445400819959,1.9208025640208528,0.9958897243107767,0,0.05
1757329330.0956342,-0.415,0.143,9.731,0.586911458398965,2.5827502828958933,1.001453634085213,0,0.05
1757329330.122125,-0.415,0.143,9.731,0.586911458398965,2.5827502828958933,1.001453634085213,0,0.05
1757329330.1478255,-0.463,-0.005,9.75,0.5873678425824825,2.7189308441203868,1.0038596491228067,0,0.05
1757329330.173883,-0.463,-0.005,9.75,0.5873678425824825,2.7189308441203868,1.0038596491228067,0,0.05
1757329330.1998777,-0.492,0.1,9.878,0.5878827625470915,2.909614626600761,1.0053132832080198,0,0.05
1757329330.2257032,-0.492,0.1,9.878,0.5878827625470915,2.909614626600761,1.0053132832080198,0,0.05
1757329330.2525628,-0.533,0.098,9.808,0.588486503668521,3.162624155116131,1.0073684210526312,0,0.05
1757329330.2791078,-0.533,0.098,9.808,0.588486503668521,3.162624155116131,1.0073684210526312,0,0.05
1757329330.3048778,-0.561,-0.046,9.827,0.5891546210461223,3.2782746580339177,1.0087719298245612,0,0.05
1757329330.330674,-0.561,-0.046,9.827,0.5891546210461223,3.2782746580339177,1.0087719298245612,0,0.05
1757329330.356981,-0.796,-0.053,9.839,0.5904974237877758,4.635496630058822,1.0205513784461149,0,0.05
1757329330.38284,-0.796,-0.053,9.839,0.5904974237877758,4.635496630058822,1.0205513784461149,0,0.05
1757329330.4091969,-0.671,-0.076,9.642,0.5914497527262988,4.006244424517213,1.0268170426065162,0,0.05
1757329330.436377,-0.671,-0.076,9.642,0.5914497527262988,4.006244424517213,1.0268170426065162,0,0.05
1757329330.4625244,-0.575,-0.071,9.756,0.592148100140497,3.39855857427431,1.0316290726817041,0,0.05
1757329330.489365,-0.575,-0.071,9.756,0.592148100140497,3.39855857427431,1.0316290726817041,0,0.05
1757329330.5146425,-0.633,-0.082,9.73,0.5929933347011583,3.753232037332362,1.0345363408521302,0,0.05
1757329330.5398211,-0.633,-0.082,9.73,0.5929933347011583,3.753232037332362,1.0345363408521302,0,0.05
1757329330.5649319,-0.618,-0.17,9.592,0.5937978654390734,3.822928840995996,1.0352882205513785,0,0.05
1757329330.5916858,-0.618,-0.17,9.592,0.5937978654390734,3.822928840995996,1.0352882205513785,0,0.05
1757329330.6176956,-0.578,-0.132,9.733,0.5945007275016574,3.4858381301447023,1.0372932330827067,0,0.05
1757329330.6443627,-0.578,-0.132,9.733,0.5945007275016574,3.4858381301447023,1.0372932330827067,0,0.05
1757329330.6712713,-0.577,0.171,9.781,0.5952003339212772,3.520857685841737,1.03734335839599,0,0.05
1757329330.6977978,-0.577,0.171,9.781,0.5952003339212772,3.520857685841737,1.03734335839599,0,0.05
1757329330.7240098,-0.315,0.267,9.591,0.5954086831748425,2.4653048597156917,1.0504761904761906,0,0.05
1757329330.750588,-0.315,0.267,9.591,0.5954086831748425,2.4653048597156917,1.0504761904761906,0,0.05
1757329330.777404,-0.118,0.28,9.549,0.5954379144797549,1.8225335587494274,1.0603508771929824,0,0.05
1757329330.8037045,-0.118,0.28,9.549,0.5954379144797549,1.8225335587494274,1.0603508771929824,0,0.05
1757329330.8293488,-0.256,0.328,9.766,0.5955754780042577,2.439590704888283,1.0672681704260651,0,0.05
1757329330.8558145,-0.256,0.328,9.766,0.5955754780042577,2.439590704888283,1.0672681704260651,0,0.05
1757329330.882172,-0.256,0.328,9.766,0.5955754780042577,2.439590704888283,1.0672681704260651,0,0.05
1757329330.9092562,-0.212,0.161,9.78,0.5956697994694712,1.559166348651322,1.0694736842105261,0,0.05
1757329330.936408,-0.212,0.161,9.78,0.5956697994694712,1.559166348651322,1.0694736842105261,0,0.05
1757329330.9628224,-0.497,0.253,9.744,0.5961879171033241,3.2757034449522675,1.0837593984962406,0,0.05
1757329330.9891922,-0.497,0.253,9.744,0.5961879171033241,3.2757034449522675,1.0837593984962406,0,0.05
1757329331.0158103,-0.458,0.201,9.734,0.5966275576102733,2.9414589170775436,1.0857142857142856,0,0.05
1757329331.0420547,-0.458,0.201,9.734,0.5966275576102733,2.9414589170775436,1.0857142857142856,0,0.05
1757329331.068753,-0.635,0.042,9.78,0.5974717608389538,3.723004473710065,1.0945864661654134,0,0.05
1757329331.0945647,-0.635,0.042,9.78,0.5974717608389538,3.723004473710065,1.0945864661654134,0,0.05
1757329331.1200635,-0.942,0.015,9.682,0.5993253832435266,5.5577421485844924,1.109974937343358,0,0.05
1757329331.1466737,-0.942,0.015,9.682,0.5993253832435266,5.5577421485844924,1.109974937343358,0,0.05
1757329331.1729784,-0.682,-0.098,9.753,0.6002946984606811,4.040972550754681,1.1230075187969923,0,0.05
1757329331.1997721,-0.682,-0.098,9.753,0.6002946984606811,4.040972550754681,1.1230075187969923,0,0.05
1757329331.226009,-0.772,-0.131,9.755,0.6015344420729373,4.5893035537655695,1.1275187969924811,0,0.05
1757329331.2530005,-0.772,-0.131,9.755,0.6015344420729373,4.5893035537655695,1.1275187969924811,0,0.05
1757329331.2801375,-0.694,-0.136,9.644,0.6025344595954658,4.194025875458878,1.1314285714285712,0,0.05
1757329331.307223,-0.694,-0.136,9.644,0.6025344595954658,4.194025875458878,1.1314285714285712,0,0.05
1757329331.3337872,-0.559,0.02,9.716,0.6031823749911795,3.2949255178813948,1.1381954887218042,0,0.05
1757329331.3600166,-0.559,0.02,9.716,0.6031823749911795,3.2949255178813948,1.1381954887218042,0,0.05
1757329331.3855803,-0.304,0.186,9.673,0.6033738621286142,2.110024155596274,1.1509774436090225,0,0.05
1757329331.4129117,-0.304,0.186,9.673,0.6033738621286142,2.110024155596274,1.1509774436090225,0,0.05
1757329331.439091,-0.26,0.292,9.567,0.603513891720812,2.3402263503360587,1.1531829573934835,0,0.05
1757329331.4655664,-0.26,0.292,9.567,0.603513891720812,2.3402263503360587,1.1531829573934835,0,0.05
1757329331.492816,-0.352,0.399,9.646,0.6037704675619702,3.157252054805683,1.1577944862155387,0,0.05
1757329331.5198905,-0.352,0.399,9.646,0.6037704675619702,3.157252054805683,1.1577944862155387,0,0.05
1757329331.5459769,-0.589,0.194,9.697,0.6044882794562687,3.6591027653056694,1.1696741854636592,0,0.05
1757329331.571531,-0.589,0.194,9.697,0.6044882794562687,3.6591027653056694,1.1696741854636592,0,0.05
1757329331.5976667,-0.489,0.275,9.739,0.6049825472689274,3.296922019258463,1.1746867167919797,0,0.05
1757329331.6242542,-0.489,0.275,9.739,0.6049825472689274,3.296922019258463,1.1746867167919797,0,0.05
1757329331.6507876,-0.404,0.147,9.731,0.6053196861989539,2.5296660788917724,1.1789473684210525,0,0.05
1757329331.6779122,-0.404,0.147,9.731,0.6053196861989539,2.5296660788917724,1.1789473684210525,0,0.05
1757329331.70457,-0.39,0.16,9.655,0.6056336949840225,2.4999903714513207,1.1796491228070172,0,0.05
1757329331.7320385,-0.39,0.16,9.655,0.6056336949840225,2.4999903714513207,1.1796491228070172,0,0.05
1757329331.7577457,-0.495,0.046,9.667,0.6061392043087133,2.9438854384436244,1.1849122807017543,0,0.05
1757329331.7832386,-0.495,0.046,9.667,0.6061392043087133,2.9438854384436244,1.1849122807017543,0,0.05
1757329331.8091254,-0.557,-0.066,9.54,0.6067786725816918,3.364785618630916,1.1880200501253133,0,0.05
1757329331.8363998,-0.557,-0.066,9.54,0.6067786725816918,3.364785618630916,1.1880200501253133,0,0.05
1757329331.862633,-0.383,-0.127,9.722,0.6070807853984509,2.376670818041687,1.1967418546365916,0,0.05
1757329331.890171,-0.383,-0.127,9.722,0.6070807853984509,2.376670818041687,1.1967418546365916,0,0.05
1757329331.9163935,-0.231,0.151,9.584,0.607190647572902,1.6493962601683443,1.2043609022556392,0,0.05
1757329331.9417846,-0.231,0.151,9.584,0.607190647572902,1.6493962601683443,1.2043609022556392,0,0.05
1757329331.9684641,-0.406,0.162,9.594,0.6075298943261969,2.6087368973664113,1.2131328320802004,0,0.05
1757329331.995445,-0.406,0.162,9.594,0.6075298943261969,2.6087368973664113,1.2131328320802004,0,0.05
1757329332.021724,-0.411,-0.038,9.62,0.607877351938695,2.456809393396905,1.2133834586466166,0,0.05
1757329332.048264,-0.411,-0.038,9.62,0.607877351938695,2.456809393396905,1.2133834586466166,0,0.05
1757329332.0747716,-0.86,-0.161,9.623,0.6093963201398577,5.1951516352324205,1.2358897243107771,0,0.05
1757329332.1011455,-0.86,-0.161,9.623,0.6093963201398577,5.1951516352324205,1.2358897243107771,0,0.05
1757329332.1268413,-0.72,-0.184,9.377,0.6104587414395833,4.531293248666367,1.2429072681704263,0,0.05
1757329332.1523314,-0.72,-0.184,9.377,0.6104587414395833,4.531293248666367,1.2429072681704263,0,0.05
1757329332.178534,-0.72,-0.184,9.377,0.6104587414395833,4.531293248666367,1.2429072681704263,0,0.05
1757329332.2049906,-0.713,-0.159,9.515,0.6114988123455352,4.39026735014123,1.2432581453634086,0,0.05
1757329332.2321546,-0.713,-0.159,9.515,0.6114988123455352,4.39026735014123,1.2432581453634086,0,0.05
1757329332.258017,-0.642,-0.093,9.397,0.6123407609329955,3.949021694998208,1.2468170426065162,0,0.05
1757329332.2859275,-0.642,-0.093,9.397,0.6123407609329955,3.949021694998208,1.2468170426065162,0,0.05
1757329332.313522,-0.688,-0.103,9.573,0.6133062591397548,4.156362553765824,1.249122807017544,0,0.05
1757329332.3393793,-0.688,-0.103,9.573,0.6133062591397548,4.156362553765824,1.249122807017544,0,0.05
1757329332.365699,-0.68,-0.179,9.607,0.6142479690646115,4.18618423920826,1.2495238095238095,0,0.05
1757329332.3919308,-0.68,-0.179,9.607,0.6142479690646115,4.18618423920826,1.2495238095238095,0,0.05
1757329332.4178321,-0.509,-0.147,9.61,0.614774975092513,3.1555371901185816,1.258095238095238,0,0.05
1757329332.44465,-0.509,-0.147,9.61,0.614774975092513,3.1555371901185816,1.258095238095238,0,0.05
1757329332.472564,-0.399,-0.078,9.66,0.6150985876264065,2.4099387748551178,1.263609022556391,0,0.05
1757329332.4989574,-0.399,-0.078,9.66,0.6150985876264065,2.4099387748551178,1.263609022556391,0,0.05
1757329332.5248525,-0.511,-0.131,9.754,0.6156290076011688,3.095704823367062,1.2692230576441101,0,0.05
1757329332.550781,-0.511,-0.131,9.754,0.6156290076011688,3.095704823367062,1.2692230576441101,0,0.05
1757329332.5766327,-0.416,-0.189,9.635,0.6159802878339533,2.715107242473815,1.2739849624060149,0,0.05
1757329332.601991,-0.416,-0.189,9.635,0.6159802878339533,2.715107242473815,1.2739849624060149,0,0.05
1757329332.6278174,-0.6,-0.136,9.593,0.6167103979989311,3.669479657550751,1.2832080200501252,0,0.05
1757329332.654038,-0.6,-0.136,9.593,0.6167103979989311,3.669479657550751,1.2832080200501252,0,0.05
1757329332.679894,-0.519,-0.056,9.606,0.6172561198562554,3.1105268564793604,1.2872681704260651,0,0.05
1757329332.7057197,-0.519,-0.056,9.606,0.6172561198562554,3.1105268564793604,1.2872681704260651,0,0.05
1757329332.7317474,-0.822,-0.213,9.667,0.6186229283658988,5.019971382402209,1.302456140350877,0,0.05
1757329332.7575104,-0.822,-0.213,9.667,0.6186229283658988,5.019971382402209,1.302456140350877,0,0.05
1757329332.7831504,-0.752,-0.076,9.639,0.6197645419834859,4.483605630258754,1.3059649122807016,0,0.05
1757329332.809327,-0.752,-0.076,9.639,0.6197645419834859,4.483605630258754,1.3059649122807016,0,0.05
1757329332.8352818,-0.669,-0.012,9.636,0.620666569101317,3.9721465018112556,1.3101253132832078,0,0.05
1757329332.8608475,-0.669,-0.012,9.636,0.620666569101317,3.9721465018112556,1.3101253132832078,0,0.05
1757329332.8862965,-0.665,-0.084,9.819,0.6215565561555924,3.9051809017025727,1.3103258145363408,0,0.05
1757329332.9114125,-0.665,-0.084,9.819,0.6215565561555924,3.9051809017025727,1.3103258145363408,0,0.05
1757329332.9370718,-0.665,-0.084,9.819,0.6215565561555924,3.9051809017025727,1.3103258145363408,0,0.05
1757329332.9628716,-0.383,0.026,9.85,0.621851489505332,2.231844029924069,1.3244611528822052,0,0.05
1757329332.9912238,-0.57,0.216,9.736,0.6225042369333722,3.5825125459037714,1.3338345864661652,0,0.05
1757329333.0184808,-0.57,0.216,9.736,0.6225042369333722,3.5825125459037714,1.3338345864661652,0,0.05
1757329333.045272,-0.41,0.283,9.698,0.6228416933699926,2.9406960462711864,1.3418546365914787,0,0.05
1757329333.0724456,-0.41,0.283,9.698,0.6228416933699926,2.9406960462711864,1.3418546365914787,0,0.05
1757329333.0983474,-0.41,0.283,9.698,0.6228416933699926,2.9406960462711864,1.3418546365914787,0,0.05
1757329333.1243384,-0.504,0.433,9.865,0.623351277370954,3.8533449339185184,1.3465664160401,0,0.05
1757329333.1512413,-0.557,0.285,9.771,0.6239731063916136,3.663890966230911,1.34922305764411,0,0.05
1757329333.178241,-0.557,0.285,9.771,0.6239731063916136,3.663890966230911,1.34922305764411,0,0.05
1757329333.203862,-0.557,0.285,9.771,0.6239731063916136,3.663890966230911,1.34922305764411,0,0.05
1757329333.2294493,-0.541,0.335,9.773,0.6245591565256249,3.7252828813632446,1.3500250626566415,0,0.05
1757329333.2561994,-0.541,0.335,9.773,0.6245591565256249,3.7252828813632446,1.3500250626566415,0,0.05
1757329333.2824898,-0.358,0.191,9.796,0.6248156128010888,2.3719194431413557,1.3591979949874684,0,0.05
1757329333.3089476,-0.358,0.191,9.796,0.6248156128010888,2.3719194431413557,1.3591979949874684,0,0.05
1757329333.3350766,-0.648,0.31,9.731,0.6256551046702967,4.221868366144891,1.373734335839599,0,0.05
1757329333.361543,-0.648,0.31,9.731,0.6256551046702967,4.221868366144891,1.373734335839599,0,0.05
1757329333.389003,-0.179,0.041,9.785,0.6257191162974006,1.0751461046731732,1.3972431077694236,0,0.05
1757329333.4169846,-0.179,0.041,9.785,0.6257191162974006,1.0751461046731732,1.3972431077694236,0,0.05
1757329333.4435859,-0.513,-0.064,9.837,0.6262446287194805,3.0083727706838186,1.4139849624060152,0,0.05
1757329333.4697459,-0.513,-0.064,9.837,0.6262446287194805,3.0083727706838186,1.4139849624060152,0,0.05
1757329333.4961064,-0.411,-0.153,9.993,0.626581708558429,2.5128795777591,1.4190977443609023,0,0.05
1757329333.5224097,-0.411,-0.153,9.993,0.626581708558429,2.5128795777591,1.4190977443609023,0,0.05
1757329333.5486898,-0.395,-0.134,9.79,0.6268928935631668,2.4396542051042904,1.4198997493734338,0,0.05
1757329333.5751972,-0.395,-0.134,9.79,0.6268928935631668,2.4396542051042904,1.4198997493734338,0,0.05
1757329333.6012356,-0.492,-0.064,9.826,0.6273753740783902,2.89058627225968,1.4247619047619045,0,0.05
1757329333.627847,-0.492,-0.064,9.826,0.6273753740783902,2.89058627225968,1.4247619047619045,0,0.05
1757329333.6545994,-0.606,-0.061,9.76,0.6281066390351244,3.570851573169029,1.4304761904761905,0,0.05
1757329333.682101,-0.606,-0.061,9.76,0.6281066390351244,3.570851573169029,1.4304761904761905,0,0.05
1757329333.708573,-0.455,-0.011,9.685,0.628518506091905,2.690555099277337,1.438045112781955,0,0.05
1757329333.7345104,-0.455,-0.011,9.685,0.628518506091905,2.690555099277337,1.438045112781955,0,0.05
1757329333.760705,-0.448,-0.009,9.778,0.6289175403023833,2.623822752833897,1.4383959899749372,0,0.05
1757329333.7867625,-0.448,-0.009,9.778,0.6289175403023833,2.623822752833897,1.4383959899749372,0,0.05
1757329333.8133574,-0.507,0.166,9.697,0.6294282286329396,3.148972842248394,1.4413533834586465,0,0.05
1757329333.839384,-0.507,0.166,9.697,0.6294282286329396,3.148972842248394,1.4413533834586465,0,0.05
1757329333.8668575,-0.653,-0.09,9.886,0.6302744779062532,3.814688185334562,1.448671679197995,0,0.05
1757329333.8942053,-0.653,-0.09,9.886,0.6302744779062532,3.814688185334562,1.448671679197995,0,0.05
1757329333.9201248,-0.741,-0.365,9.831,0.6313625107654081,4.8028127401552085,1.4530827067669172,0,0.05
1757329333.946062,-0.741,-0.365,9.831,0.6313625107654081,4.8028127401552085,1.4530827067669172,0,0.05
1757329333.9724696,-1.117,-0.038,9.954,0.6338279281476953,6.406401804709113,1.4719298245614034,0,0.05
1757329333.9988797,-1.117,-0.038,9.954,0.6338279281476953,6.406401804709113,1.4719298245614034,0,0.05
1757329334.025853,-1.128,0.124,9.846,0.6363323050890941,6.574583578315305,1.4724812030075185,0,0.05
1757329334.0528417,-1.128,0.124,9.846,0.6363323050890941,6.574583578315305,1.4724812030075185,0,0.05
1757329334.078923,-1.225,-0.059,9.75,0.6392733100951423,7.169391258983412,1.4773433583959898,0,0.05
1757329334.1061454,-1.225,-0.059,9.75,0.6392733100951423,7.169391258983412,1.4773433583959898,0,0.05
1757329334.1321795,-0.726,0.02,9.675,0.640303096197418,4.292983638440345,1.5023558897243106,0,0.05
1757329334.1586323,-0.726,0.02,9.675,0.640303096197418,4.292983638440345,1.5023558897243106,0,0.05
1757329334.1838732,-0.969,0.182,9.671,0.6421335199940897,5.821105784610744,1.5145363408521302,0,0.05
1757329334.210017,-0.969,0.182,9.671,0.6421335199940897,5.821105784610744,1.5145363408521302,0,0.05
1757329334.2360938,-0.67,-0.181,9.524,0.6430067709596844,4.167801576119149,1.5295238095238095,0,0.05
1757329334.2634077,-0.67,-0.181,9.524,0.6430067709596844,4.167801576119149,1.5295238095238095,0,0.05
1757329334.2904499,-0.634,0.064,9.651,0.6437876959836993,3.777558773276708,1.531328320802005,0,0.05
1757329334.317169,-0.634,0.064,9.651,0.6437876959836993,3.777558773276708,1.531328320802005,0,0.05
1757329334.3422964,-0.703,-0.035,9.573,0.6447465548570229,4.205200248040213,1.5347869674185464,0,0.05
1757329334.368275,-0.703,-0.035,9.573,0.6447465548570229,4.205200248040213,1.5347869674185464,0,0.05
1757329334.3940861,-0.703,-0.035,9.573,0.6447465548570229,4.205200248040213,1.5347869674185464,0,0.05
1757329334.4211087,-0.718,-0.144,9.536,0.6457452516279156,4.391294504781493,1.5355388471177946,0,0.05
1757329334.4477613,-0.718,-0.144,9.536,0.6457452516279156,4.391294504781493,1.5355388471177946,0,0.05
1757329334.473569,-0.563,-0.092,9.589,0.646358532472497,3.404619086272823,1.5433082706766919,0,0.05
1757329334.5003965,-0.563,-0.092,9.589,0.646358532472497,3.404619086272823,1.5433082706766919,0,0.05
1757329334.5259712,-0.802,0.025,9.523,0.6476012372594728,4.8162554891062195,1.5552882205513785,0,0.05
1757329334.5523276,-0.802,0.025,9.523,0.6476012372594728,4.8162554891062195,1.5552882205513785,0,0.05
1757329334.5800397,-0.674,-0.066,9.475,0.648477488044111,4.088252114890758,1.5617042606516294,0,0.05
1757329334.606059,-0.674,-0.066,9.475,0.648477488044111,4.088252114890758,1.5617042606516294,0,0.05
1757329334.6318614,-0.605,-0.155,9.565,0.649182651493399,3.735783969721933,1.5651629072681705,0,0.05
1757329334.6589708,-0.605,-0.155,9.565,0.649182651493399,3.735783969721933,1.5651629072681705,0,0.05
1757329334.6850786,-0.575,0.007,9.595,0.6498189574796969,3.4297188584663396,1.5666666666666667,0,0.05
1757329334.711987,-0.575,0.007,9.595,0.6498189574796969,3.4297188584663396,1.5666666666666667,0,0.05
1757329334.737909,-0.587,0.068,9.648,0.6504814370910211,3.504902290642457,1.5672681704260651,0,0.05
1757329334.7648327,-0.587,0.068,9.648,0.6504814370910211,3.504902290642457,1.5672681704260651,0,0.05
1757329334.7910984,-0.431,0.124,9.762,0.650838307492729,2.630416655271855,1.5750877192982458,0,0.05
1757329334.8183603,-0.431,0.124,9.762,0.650838307492729,2.630416655271855,1.5750877192982458,0,0.05
1757329334.8442836,-0.689,0.202,9.793,0.6517494188720079,4.193294533140752,1.5880200501253132,0,0.05
1757329334.8716743,-0.689,0.202,9.793,0.6517494188720079,4.193294533140752,1.5880200501253132,0,0.05
1757329334.8986251,-0.666,0.197,9.857,0.6525995671160073,4.030404255112884,1.5891729323308275,0,0.05
1757329334.9250844,-0.666,0.197,9.857,0.6525995671160073,4.030404255112884,1.5891729323308275,0,0.05
1757329334.9508278,-0.742,0.113,9.857,0.6536532758274833,4.354348973744509,1.592982456140351,0,0.05
1757329334.9769766,-0.742,0.113,9.857,0.6536532758274833,4.354348973744509,1.592982456140351,0,0.05
1757329335.0033257,-0.501,0.249,9.668,0.6541330961662161,3.311886750207196,1.605062656641604,0,0.05
1757329335.0300105,-0.501,0.249,9.668,0.6541330961662161,3.311886750207196,1.605062656641604,0,0.05
1757329335.0565708,-0.86,0.361,9.882,0.655544893580905,5.391790968380832,1.6230576441102758,0,0.05
1757329335.0835814,-0.86,0.361,9.882,0.655544893580905,5.391790968380832,1.6230576441102758,0,0.05
1757329335.110884,-0.953,-0.011,9.737,0.6572743947545804,5.590338170975713,1.6277192982456141,0,0.05
1757329335.137774,-0.953,-0.011,9.737,0.6572743947545804,5.590338170975713,1.6277192982456141,0,0.05
1757329335.1643345,-0.57,0.324,9.89,0.6578919972153484,3.7928260004225054,1.6469172932330831,0,0.05
1757329335.1903045,-0.57,0.324,9.89,0.6578919972153484,3.7928260004225054,1.6469172932330831,0,0.05
1757329335.217895,-0.374,0.309,9.816,0.6581577090637167,2.8294264498534463,1.6567418546365913,0,0.05
1757329335.2460394,-0.374,0.309,9.816,0.6581577090637167,2.8294264498534463,1.6567418546365913,0,0.05
1757329335.2737322,-0.403,0.286,9.67,0.6584660906227442,2.925471003944864,1.6581954887218044,0,0.05
1757329335.3001575,-0.403,0.286,9.67,0.6584660906227442,2.925471003944864,1.6581954887218044,0,0.05
1757329335.3269975,-0.53,0.387,9.546,0.6589991217748321,3.9326947262590104,1.6645614035087721,0,0.05
1757329335.3550718,-0.53,0.387,9.546,0.6589991217748321,3.9326947262590104,1.6645614035087721,0,0.05
1757329335.3809707,-0.563,0.324,9.723,0.6596000795936884,3.822129413267163,1.6662155388471183,0,0.05
1757329335.4083362,-0.563,0.324,9.723,0.6596000795936884,3.822129413267163,1.6662155388471183,0,0.05
1757329335.4340243,-0.977,0.333,9.581,0.6614065221178272,6.148936333690646,1.6869674185463657,0,0.05
1757329335.460106,-0.977,0.333,9.581,0.6614065221178272,6.148936333690646,1.6869674185463657,0,0.05
1757329335.486541,-0.937,0.21,9.455,0.6630637299686961,5.7990425018858245,1.6889724310776941,0,0.05
1757329335.5127268,-0.937,0.21,9.455,0.6630637299686961,5.7990425018858245,1.6889724310776941,0,0.05
1757329335.5393617,-0.702,0.125,9.633,0.6639921083868392,4.233357337709086,1.7007518796992478,0,0.05
1757329335.5669518,-0.702,0.125,9.633,0.6639921083868392,4.233357337709086,1.7007518796992478,0,0.05
1757329335.5931149,-0.756,0.029,9.567,0.6650671845761148,4.521526567068549,1.7034586466165413,0,0.05
1757329335.619595,-0.756,0.029,9.567,0.6650671845761148,4.521526567068549,1.7034586466165413,0,0.05
1757329335.64585,-0.753,0.063,9.547,0.6661320308317263,4.525441678983309,1.7036090225563907,0,0.05
1757329335.6721945,-0.753,0.063,9.547,0.6661320308317263,4.525441678983309,1.7036090225563907,0,0.05
1757329335.698396,-0.389,0.361,9.634,0.6664159249297693,3.153014667191105,1.7218546365914784,0,0.05
1757329335.7246628,-0.389,0.361,9.634,0.6664159249297693,3.153014667191105,1.7218546365914784,0,0.05
1757329335.752302,-0.203,0.444,9.581,0.6664932163945856,2.9170196783854423,1.7311779448621554,0,0.05
1757329335.77915,-0.203,0.444,9.581,0.6664932163945856,2.9170196783854423,1.7311779448621554,0,0.05
1757329335.8054905,-0.42,0.707,9.59,0.666823970399985,4.901130338000843,1.742055137844611,0,0.05
1757329335.8320978,-0.42,0.707,9.59,0.666823970399985,4.901130338000843,1.742055137844611,0,0.05
1757329335.85856,-0.399,0.387,9.682,0.667122335108037,3.285785788765379,1.7431077694235584,0,0.05
1757329335.8850865,-0.399,0.387,9.682,0.667122335108037,3.285785788765379,1.7431077694235584,0,0.05
1757329335.911941,-0.459,0.241,9.702,0.6675169754395763,3.0586688759555223,1.7461152882205513,0,0.05
1757329335.9390094,-0.459,0.241,9.702,0.6675169754395763,3.0586688759555223,1.7461152882205513,0,0.05
1757329335.9659405,-0.47,0.311,9.725,0.6679305072385898,3.3166691972731477,1.7466666666666664,0,0.05
1757329335.9934213,-0.47,0.311,9.725,0.6679305072385898,3.3166691972731477,1.7466666666666664,0,0.05
1757329336.0214174,-0.512,0.079,9.723,0.6684209171622324,3.0499378603865375,1.7487719298245614,0,0.05
1757329336.0480494,-0.512,0.079,9.723,0.6684209171622324,3.0499378603865375,1.7487719298245614,0,0.05
1757329336.0749369,-0.598,0.287,9.775,0.6690893307324516,3.8819829225323956,1.7530827067669172,0,0.05
1757329336.1005259,-0.598,0.287,9.775,0.6690893307324516,3.8819829225323956,1.7530827067669172,0,0.05
1757329336.1281323,-0.387,0.323,9.714,0.669369072336032,2.9705426157197854,1.763659147869674,0,0.05
1757329336.155979,-0.387,0.323,9.714,0.669369072336032,2.9705426157197854,1.763659147869674,0,0.05
1757329336.1819444,-0.582,0.053,9.716,0.6700013171628844,3.442140046836681,1.7734335839598996,0,0.05
1757329336.208209,-0.582,0.053,9.716,0.6700013171628844,3.442140046836681,1.7734335839598996,0,0.05
1757329336.234523,-0.493,0.061,9.538,0.6704546125577778,2.981393318554384,1.777894736842105,0,0.05
1757329336.2612762,-0.493,0.061,9.538,0.6704546125577778,2.981393318554384,1.777894736842105,0,0.05
1757329336.2885578,-0.46,-0.053,9.573,0.6708490049929269,2.769221699854631,1.779548872180451,0,0.05
1757329336.315399,-0.46,-0.053,9.573,0.6708490049929269,2.769221699854631,1.779548872180451,0,0.05
1757329336.3411865,-0.46,-0.053,9.573,0.6708490049929269,2.769221699854631,1.779548872180451,0,0.05
1757329336.3686764,-0.633,0.041,9.734,0.6715951980173771,3.7284682986152724,1.788220551378446,0,0.05
1757329336.3968408,-0.463,-0.145,9.693,0.6719940717744466,2.8654960351447643,1.7967418546365912,0,0.05
1757329336.4246228,-0.463,-0.145,9.693,0.6719940717744466,2.8654960351447643,1.7967418546365912,0,0.05
1757329336.4527488,-0.477,0.046,9.61,0.6724171733380997,2.854750471135663,1.797443609022556,0,0.05
1757329336.4796665,-0.477,0.046,9.61,0.6724171733380997,2.854750471135663,1.797443609022556,0,0.05
1757329336.506526,-0.493,-0.017,9.72,0.6728688412313354,2.9052860224152766,1.798245614035087,0,0.05
1757329336.5337305,-0.493,-0.017,9.72,0.6728688412313354,2.9052860224152766,1.798245614035087,0,0.05
1757329336.5595872,-0.58,0.115,9.649,0.6734934873478734,3.5067016799806927,1.8026065162907265,0,0.05
1757329336.5860906,-0.58,0.115,9.649,0.6734934873478734,3.5067016799806927,1.8026065162907265,0,0.05
1757329336.6131601,-0.682,-0.052,9.533,0.6743562022403293,4.1038603390467,1.8077192982456136,0,0.05
1757329336.6409113,-0.682,-0.052,9.533,0.6743562022403293,4.1038603390467,1.8077192982456136,0,0.05
1757329336.6676507,-0.968,-0.073,9.861,0.6760908574296801,5.622266312020358,1.8220551378446113,0,0.05
1757329336.6952147,-0.968,-0.073,9.861,0.6760908574296801,5.622266312020358,1.8220551378446113,0,0.05
1757329336.7221017,-0.778,-0.215,9.677,0.6772090205394491,4.768018770704444,1.8315789473684208,0,0.05
1757329336.7490659,-0.778,-0.215,9.677,0.6772090205394491,4.768018770704444,1.8315789473684208,0,0.05
1757329336.775779,-0.778,-0.215,9.677,0.6772090205394491,4.768018770704444,1.8315789473684208,0,0.05
1757329336.801543,-0.751,0.147,9.58,0.678249260965318,4.5670965120853655,1.8329323308270675,0,0.05
1757329336.827892,-0.929,-0.176,9.837,0.6798379678276287,5.490358532457369,1.8418546365914783,0,0.05
1757329336.8552065,-0.929,-0.176,9.837,0.6798379678276287,5.490358532457369,1.8418546365914783,0,0.05
1757329336.8818233,-0.834,-0.098,9.711,0.6811156674897443,4.942236423724177,1.8466165413533833,0,0.05
1757329336.9098153,-0.834,-0.098,9.711,0.6811156674897443,4.942236423724177,1.8466165413533833,0,0.05
1757329336.9371014,-0.669,-0.045,9.608,0.6819365476347488,3.9920178756644935,1.8548872180451126,0,0.05
1757329336.963547,-0.669,-0.045,9.608,0.6819365476347488,3.9920178756644935,1.8548872180451126,0,0.05
1757329336.9912884,-0.659,0.057,9.87,0.682732127191917,3.8340738649810784,1.8553884711779447,0,0.05
1757329337.018474,-0.659,0.057,9.87,0.682732127191917,3.8340738649810784,1.8553884711779447,0,0.05
1757329337.0452533,-0.515,0.483,9.765,0.6832175495404081,4.135556397141176,1.8626065162907266,0,0.05
1757329337.0718014,-0.515,0.483,9.765,0.6832175495404081,4.135556397141176,1.8626065162907266,0,0.05
1757329337.0979123,-0.52,0.446,9.618,0.6837120885284975,4.074156479135158,1.8628571428571425,0,0.05
1757329337.124353,-0.52,0.446,9.618,0.6837120885284975,4.074156479135158,1.8628571428571425,0,0.05
1757329337.1510627,-0.546,0.23,9.844,0.684256903509201,3.4442203176641772,1.8641604010025061,0,0.05
1757329337.17854,-0.546,0.23,9.844,0.684256903509201,3.4442203176641772,1.8641604010025061,0,0.05
1757329337.2049968,-0.708,0.378,9.705,0.6851720003035734,4.727513685305375,1.8722807017543859,0,0.05
1757329337.2328422,-0.708,0.378,9.705,0.6851720003035734,4.727513685305375,1.8722807017543859,0,0.05
1757329337.259653,-0.631,-0.039,9.646,0.6858980044438094,3.749833441387655,1.8761403508771928,0,0.05
1757329337.2866411,-0.631,-0.039,9.646,0.6858980044438094,3.749833441387655,1.8761403508771928,0,0.05
1757329337.3124812,-0.813,-0.219,9.759,0.6871015172447228,4.931111883656161,1.885263157894737,0,0.05
1757329337.338655,-0.813,-0.219,9.759,0.6871015172447228,4.931111883656161,1.885263157894737,0,0.05
1757329337.3661122,-0.813,-0.219,9.759,0.6871015172447228,4.931111883656161,1.885263157894737,0,0.05
1757329337.3936846,-0.711,0.262,9.687,0.6880205647362584,4.472684450751285,1.890375939849624,0,0.05
1757329337.420268,-0.625,0.411,9.696,0.6887298889985827,4.4115227346805685,1.8946867167919796,0,0.05
1757329337.4464774,-0.625,0.411,9.696,0.6887298889985827,4.4115227346805685,1.8946867167919796,0,0.05
1757329337.473239,-0.625,0.411,9.696,0.6887298889985827,4.4115227346805685,1.8946867167919796,0,0.05
1757329337.5001595,-0.236,0.356,9.809,0.688830966202885,2.4932977799487817,1.9141854636591475,0,0.05
1757329337.5269122,-0.671,0.241,9.839,0.6896475204769462,4.14460071669143,1.9359899749373433,0,0.05
1757329337.5531435,-0.671,0.241,9.839,0.6896475204769462,4.14460071669143,1.9359899749373433,0,0.05
1757329337.5801425,-0.671,0.241,9.839,0.6896475204769462,4.14460071669143,1.9359899749373433,0,0.05
1757329337.6069627,-0.569,0.16,9.762,0.6902340943477075,3.4649036948575245,1.9411027568922303,0,0.05
1757329337.6329052,-0.569,0.16,9.762,0.6902340943477075,3.4649036948575245,1.9411027568922303,0,0.05
1757329337.659682,-0.951,-0.134,9.665,0.6918700076603985,5.674752988883879,1.9602506265664157,0,0.05
1757329337.6858907,-0.951,-0.134,9.665,0.6918700076603985,5.674752988883879,1.9602506265664157,0,0.05
1757329337.7125895,-0.829,-0.019,9.733,0.6931105323106842,4.869641582572687,1.966365914786967,0,0.05
1757329337.7391562,-0.829,-0.019,9.733,0.6931105323106842,4.869641582572687,1.966365914786967,0,0.05
1757329337.7650912,-0.797,0.266,9.644,0.6942551638266725,4.979225327837176,1.96796992481203,0,0.05
1757329337.7909975,-0.797,0.266,9.644,0.6942551638266725,4.979225327837176,1.96796992481203,0,0.05
1757329337.8169968,-0.537,0.1,9.714,0.6947741755419526,3.218431475148008,1.9810025062656635,0,0.05
1757329337.843653,-0.537,0.1,9.714,0.6947741755419526,3.218431475148008,1.9810025062656635,0,0.05
1757329337.8701293,-0.613,0.122,9.729,0.6954499101301258,3.675814650869682,1.9848120300751875,0,0.05
1757329337.8963692,-0.613,0.122,9.729,0.6954499101301258,3.675814650869682,1.9848120300751875,0,0.05
1757329337.9219408,-0.713,0.3,9.606,0.6963630518630349,4.603927508844252,1.9898245614035084,0,0.05
1757329337.9487152,-0.713,0.3,9.606,0.6963630518630349,4.603927508844252,1.9898245614035084,0,0.05
1757329337.9763174,-0.629,0.109,9.694,0.6970728817706223,3.7676325669884325,1.994035087719298,0,0.05
1757329338.0032635,-0.629,0.109,9.694,0.6970728817706223,3.7676325669884325,1.994035087719298,0,0.05
1757329338.0309846,-0.706,-0.009,9.585,0.6979661112833488,4.212954994483104,1.9978947368421052,0,0.05
1757329338.0577903,-0.706,-0.009,9.585,0.6979661112833488,4.212954994483104,1.9978947368421052,0,0.05
1757329338.083251,-0.789,-0.152,9.651,0.6990801062825347,4.759266569376583,2.002055137844611,0,0.05
1757329338.1091716,-0.789,-0.152,9.651,0.6990801062825347,4.759266569376583,2.002055137844611,0,0.05
1757329338.1353903,-0.764,0.173,9.772,0.7001230141910777,4.583138988773009,2.0033082706766914,0,0.05
1757329338.1612585,-0.764,0.173,9.772,0.7001230141910777,4.583138988773009,2.0033082706766914,0,0.05
1757329338.1877527,-0.229,0.167,9.949,0.7002166361205652,1.6317914056366338,2.0301253132832078,0,0.05
1757329338.2158618,-0.229,0.167,9.949,0.7002166361205652,1.6317914056366338,2.0301253132832078,0,0.05
1757329338.2428858,-0.753,0.103,9.742,0.701228108392697,4.46083456555339,2.0563909774436087,0,0.05
1757329338.2697873,-0.753,0.103,9.742,0.701228108392697,4.46083456555339,2.0563909774436087,0,0.05
1757329338.296479,-0.591,0.084,9.689,0.7018504559377303,3.5255391357445975,2.064511278195489,0,0.05
1757329338.3228803,-0.591,0.084,9.689,0.7018504559377303,3.5255391357445975,2.064511278195489,0,0.05
1757329338.3503935,-0.879,-0.317,9.819,0.7032251879732409,5.436118682151749,2.0789473684210527,0,0.05
1757329338.376794,-0.879,-0.317,9.819,0.7032251879732409,5.436118682151749,2.0789473684210527,0,0.05
1757329338.4033198,-0.932,0.153,9.914,0.7047674971222779,5.441961510980406,2.0816040100250626,0,0.05
1757329338.4299538,-0.932,0.153,9.914,0.7047674971222779,5.441961510980406,2.0816040100250626,0,0.05
1757329338.455966,-0.963,0.01,9.933,0.7064103959455863,5.537791327924391,2.0831578947368423,0,0.05
1757329338.4824433,-0.963,0.01,9.933,0.7064103959455863,5.537791327924391,2.0831578947368423,0,0.05
1757329338.509961,-0.716,-0.032,9.815,0.707316963956047,4.176461764256558,2.095538847117794,0,0.05
1757329338.5368974,-0.716,-0.032,9.815,0.707316963956047,4.176461764256558,2.095538847117794,0,0.05
1757329338.5637314,-0.7,0.243,9.734,0.7081823829353565,4.353114374654977,2.0963408521303255,0,0.05
1757329338.5910006,-0.7,0.243,9.734,0.7081823829353565,4.353114374654977,2.0963408521303255,0,0.05
1757329338.6182716,-0.565,0.26,9.661,0.7087456172703999,3.683485094765344,2.1031077694235587,0,0.05
1757329338.6465545,-0.565,0.26,9.661,0.7087456172703999,3.683485094765344,2.1031077694235587,0,0.05
1757329338.6733592,-0.553,0.209,9.674,0.7092847612207667,3.4969883631420995,2.1037092731829574,0,0.05
1757329338.7003658,-0.553,0.209,9.674,0.7092847612207667,3.4969883631420995,2.1037092731829574,0,0.05
1757329338.7269547,-0.634,0.334,9.546,0.7099927904563539,4.293018008259431,2.107769423558897,0,0.05
1757329338.7539961,-0.634,0.334,9.546,0.7099927904563539,4.293018008259431,2.107769423558897,0,0.05
1757329338.781286,-0.726,0.121,9.767,0.7109201449530038,4.309507240847558,2.1123809523809522,0,0.05
1757329338.807224,-0.726,0.121,9.767,0.7109201449530038,4.309507240847558,2.1123809523809522,0,0.05
1757329338.833777,-0.821,0.486,9.7,0.7121043146899195,5.617376152096927,2.1171428571428565,0,0.05
1757329338.860643,-0.821,0.486,9.7,0.7121043146899195,5.617376152096927,2.1171428571428565,0,0.05
1757329338.888351,-0.49,0.59,9.665,0.7125256521698008,4.5370566691003065,2.133734335839599,0,0.05
1757329338.91583,-0.49,0.59,9.665,0.7125256521698008,4.5370566691003065,2.133734335839599,0,0.05
1757329338.9425547,-0.678,0.189,9.803,0.7133316304496808,4.106758816403601,2.143157894736842,0,0.05
1757329338.969722,-0.678,0.189,9.803,0.7133316304496808,4.106758816403601,2.143157894736842,0,0.05
1757329338.995797,-0.763,0.311,9.746,0.7143510604037765,4.832417331412546,2.147418546365915,0,0.05
1757329339.022677,-0.763,0.311,9.746,0.7143510604037765,4.832417331412546,2.147418546365915,0,0.05
1757329339.0510244,-0.784,0.004,9.682,0.7154258015336041,4.629485359280974,2.1484711779448618,0,0.05
1757329339.0774024,-0.784,0.004,9.682,0.7154258015336041,4.629485359280974,2.1484711779448618,0,0.05
1757329339.1052446,-1.128,0.28,10.042,0.7176454817665893,6.601876508121569,2.1657142857142855,0,0.05
1757329339.1311903,-1.128,0.28,10.042,0.7176454817665893,6.601876508121569,2.1657142857142855,0,0.05
1757329339.157539,-0.909,0.306,10.0,0.7190832636072125,5.478611658869644,2.1766917293233083,0,0.05
1757329339.1839988,-0.909,0.306,10.0,0.7190832636072125,5.478611658869644,2.1766917293233083,0,0.05
1757329339.2104223,-0.67,-0.003,9.866,0.7198631744991544,3.8850299659232306,2.188671679197995,0,0.05
1757329339.237441,-0.67,-0.003,9.866,0.7198631744991544,3.8850299659232306,2.188671679197995,0,0.05
1757329339.2637992,-0.669,0.081,9.862,0.7206399187527707,3.909032964770604,2.188721804511278,0,0.05
1757329339.2900183,-0.669,0.081,9.862,0.7206399187527707,3.909032964770604,2.188721804511278,0,0.05
1757329339.316986,-0.79,0.213,9.632,0.7217216516774316,4.855455978976668,2.194786967418546,0,0.05
1757329339.3432796,-0.79,0.213,9.632,0.7217216516774316,4.855455978976668,2.194786967418546,0,0.05
1757329339.3698745,-0.511,0.09,9.807,0.7221737637161848,3.0285600285811833,2.2087719298245605,0,0.05
1757329339.3971052,-0.511,0.09,9.807,0.7221737637161848,3.0285600285811833,2.2087719298245605,0,0.05
1757329339.4231331,-0.652,0.25,9.719,0.722909195542566,4.109500710908113,2.215839598997493,0,0.05
1757329339.4492385,-0.652,0.25,9.719,0.722909195542566,4.109500710908113,2.215839598997493,0,0.05
1757329339.4749327,-0.638,0.077,9.674,0.7236126830010652,3.8004916759254104,2.2165413533834584,0,0.05
1757329339.5016978,-0.638,0.077,9.674,0.7236126830010652,3.8004916759254104,2.2165413533834584,0,0.05
1757329339.5294223,-0.524,0.013,9.855,0.7240868421674295,3.044541368390811,2.2222556390977437,0,0.05
1757329339.5553403,-0.524,0.013,9.855,0.7240868421674295,3.044541368390811,2.2222556390977437,0,0.05
1757329339.5818043,-0.725,0.031,9.785,0.7249936672137213,4.2413310203007395,2.2323308270676687,0,0.05
1757329339.6084034,-0.725,0.031,9.785,0.7249936672137213,4.2413310203007395,2.2323308270676687,0,0.05
1757329339.6344616,-0.725,0.031,9.785,0.7249936672137213,4.2413310203007395,2.2323308270676687,0,0.05
1757329339.6606677,-0.589,0.011,9.631,0.7255915655518606,3.500269751269103,2.239147869674185,0,0.05
1757329339.6873326,-0.697,-0.087,9.897,0.726428002282401,4.059582365689587,2.2445614035087718,0,0.05
1757329339.7135217,-0.697,-0.087,9.897,0.726428002282401,4.059582365689587,2.2445614035087718,0,0.05
1757329339.7408576,-0.697,-0.087,9.897,0.726428002282401,4.059582365689587,2.2445614035087718,0,0.05
1757329339.7683492,-0.698,0.042,9.727,0.7272658746978301,4.111851871781162,2.244611528822055,0,0.05
1757329339.7943516,-0.698,0.042,9.727,0.7272658746978301,4.111851871781162,2.244611528822055,0,0.05
1757329339.8205316,-0.852,-0.131,9.714,0.728512465576259,5.071096053028766,2.252330827067669,0,0.05
1757329339.8464797,-0.852,-0.131,9.714,0.728512465576259,5.071096053028766,2.252330827067669,0,0.05
1757329339.8727958,-0.746,-0.097,9.887,0.7294667247380102,4.351124788503463,2.257644110275689,0,0.05
1757329339.8989363,-0.746,-0.097,9.887,0.7294667247380102,4.351124788503463,2.257644110275689,0,0.05
1757329339.9258862,-0.622,0.303,9.826,0.7301293806579763,4.027710148055925,2.263859649122807,0,0.05
1757329339.9525394,-0.622,0.303,9.826,0.7301293806579763,4.027710148055925,2.263859649122807,0,0.05
1757329339.9791713,-0.504,0.096,9.763,0.7305641330506173,3.008218442768364,2.2697744360902257,0,0.05
1757329340.0069711,-0.504,0.096,9.763,0.7305641330506173,3.008218442768364,2.2697744360902257,0,0.05
1757329340.0333953,-0.506,0.111,9.808,0.7310020810503893,3.023397720860083,2.269874686716792,0,0.05
1757329340.0599663,-0.506,0.111,9.808,0.7310020810503893,3.023397720860083,2.269874686716792,0,0.05
1757329340.086709,-0.766,0.341,9.792,0.7320047352988913,4.89420581608172,2.2829072681704266,0,0.05
1757329340.1140342,-0.766,0.341,9.792,0.7320047352988913,4.89420581608172,2.2829072681704266,0,0.05
1757329340.140616,-0.657,0.052,9.714,0.7327414653204771,3.881333049183419,2.2883709273182955,0,0.05
1757329340.1674442,-0.657,0.052,9.714,0.7327414653204771,3.881333049183419,2.2883709273182955,0,0.05
1757329340.1947052,-0.604,-0.091,9.847,0.7333635489987215,3.549551418329508,2.291027568922306,0,0.05
1757329340.2209065,-0.604,-0.091,9.847,0.7333635489987215,3.549551418329508,2.291027568922306,0,0.05
1757329340.2470257,-0.717,0.265,9.665,0.7342392780967251,4.522106950020906,2.2966917293233085,0,0.05
1757329340.2734287,-0.717,0.265,9.665,0.7342392780967251,4.522106950020906,2.2966917293233085,0,0.05
1757329340.300069,-0.545,0.169,9.654,0.7347447720127037,3.3825423149787,2.30531328320802,0,0.05
1757329340.3271542,-0.545,0.169,9.654,0.7347447720127037,3.3825423149787,2.30531328320802,0,0.05
1757329340.3532076,-0.571,0.027,9.746,0.7352992469056391,3.3567579707621613,2.3066165413533835,0,0.05
1757329340.3799531,-0.571,0.027,9.746,0.7352992469056391,3.3567579707621613,2.3066165413533835,0,0.05
1757329340.407382,-0.546,0.318,9.755,0.7358058660407649,3.706006089346666,2.3078696741854636,0,0.05
1757329340.4332776,-0.546,0.318,9.755,0.7358058660407649,3.706006089346666,2.3078696741854636,0,0.05
1757329340.4599223,-0.527,0.151,9.683,0.736277525801243,3.240359873650349,2.308822055137844,0,0.05
1757329340.4861314,-0.527,0.151,9.683,0.736277525801243,3.240359873650349,2.308822055137844,0,0.05
1757329340.5122638,-0.7,0.116,9.735,0.7371089437796831,4.16869532305128,2.3174937343358395,0,0.05
1757329340.5382025,-0.7,0.116,9.735,0.7371089437796831,4.16869532305128,2.3174937343358395,0,0.05
1757329340.564304,-0.792,0.061,9.822,0.7381719007114806,4.62368288991067,2.3221052631578942,0,0.05
1757329340.5912564,-0.792,0.061,9.822,0.7381719007114806,4.62368288991067,2.3221052631578942,0,0.05
1757329340.6177049,-0.792,0.061,9.822,0.7381719007114806,4.62368288991067,2.3221052631578942,0,0.05
1757329340.6446059,-0.552,0.139,9.885,0.7386876978805048,3.295762097513266,2.3341353383458645,0,0.05
1757329340.6714954,-0.448,0.124,9.704,0.7390272491593256,2.7425040526462996,2.339348370927318,0,0.05
1757329340.6980648,-0.448,0.124,9.704,0.7390272491593256,2.7425040526462996,2.339348370927318,0,0.05
1757329340.7246304,-0.729,0.092,9.725,0.7399255891642078,4.320831333676432,2.3534335839598994,0,0.05
1757329340.751086,-0.729,0.092,9.725,0.7399255891642078,4.320831333676432,2.3534335839598994,0,0.05
1757329340.7787051,-0.704,0.224,9.647,0.7407623893665228,4.379223297783865,2.35468671679198,0,0.05
1757329340.805721,-0.704,0.224,9.647,0.7407623893665228,4.379223297783865,2.35468671679198,0,0.05
1757329340.832466,-0.6,-0.028,9.766,0.7413696227253986,3.5195150424600397,2.321553884711779,0,0.05
1757329340.8594942,-0.6,-0.028,9.766,0.7413696227253986,3.5195150424600397,2.321553884711779,0,0.05
1757329340.8860614,-0.763,-0.379,9.893,0.7413644700820238,4.921936001711046,2.3290225563909774,0,0.05
1757329340.9126902,-0.763,-0.379,9.893,0.7413644700820238,4.921936001711046,2.3290225563909774,0,0.05
1757329340.9401577,-0.89,0.31,9.888,0.7416767658488433,5.444520194850486,2.3343358395989973,0,0.05
1757329340.9676929,-0.89,0.31,9.888,0.7416767658488433,5.444520194850486,2.3343358395989973,0,0.05
1757329340.9942093,-0.613,0.123,9.767,0.7412313049919034,3.662697192061771,2.3474686716791977,0,0.05
1757329341.0214937,-0.613,0.123,9.767,0.7412313049919034,3.662697192061771,2.3474686716791977,0,0.05
1757329341.0484357,-0.702,-0.258,9.903,0.7409421671088776,4.318977950489246,2.3517293233082706,0,0.05
1757329341.0753741,-0.702,-0.258,9.903,0.7409421671088776,4.318977950489246,2.3517293233082706,0,0.05
1757329341.1024706,-0.724,-0.319,9.775,0.7407168369221804,4.627277319658954,2.3524310776942357,0,0.05
1757329341.1287425,-0.724,-0.319,9.775,0.7407168369221804,4.627277319658954,2.3524310776942357,0,0.05
1757329341.1553977,-0.9,-0.199,9.698,0.7409955532930006,5.429318683768526,2.360200501253132,0,0.05
1757329341.1820912,-0.9,-0.199,9.698,0.7409955532930006,5.429318683768526,2.360200501253132,0,0.05
1757329341.2084363,-0.689,-0.296,9.841,0.7407647416690403,4.3575587761981245,2.370125313283208,0,0.05
1757329341.2354453,-0.689,-0.296,9.841,0.7407647416690403,4.3575587761981245,2.370125313283208,0,0.05
1757329341.262393,-0.742,0.108,9.836,0.7406958957628966,4.359344418246547,2.3726315789473684,0,0.05
1757329341.2893317,-0.742,0.108,9.836,0.7406958957628966,4.359344418246547,2.3726315789473684,0,0.05
1757329341.316294,-0.437,0.0,9.894,0.7400276633342837,2.5290067615412926,2.387268170426065,0,0.05
1757329341.3431602,-0.437,0.0,9.894,0.7400276633342837,2.5290067615412926,2.387268170426065,0,0.05
1757329341.369929,-0.773,-0.24,9.776,0.7400119340253912,4.732988302924087,2.40265664160401,0,0.05
1757329341.3962216,-0.773,-0.24,9.776,0.7400119340253912,4.732988302924087,2.40265664160401,0,0.05
1757329341.4239807,-0.925,0.022,9.772,0.7403543509698581,5.4089238582230585,2.4094736842105267,0,0.05
1757329341.451124,-0.925,0.022,9.772,0.7403543509698581,5.4089238582230585,2.4094736842105267,0,0.05
1757329341.4779856,-0.919,-0.068,9.83,0.7406338687232714,5.355535246761143,2.409573934837093,0,0.05
1757329341.5062592,-0.919,-0.068,9.83,0.7406338687232714,5.355535246761143,2.409573934837093,0,0.05
1757329341.5342333,-0.858,-0.128,9.841,0.7407414781825032,5.037665891954817,2.412280701754386,0,0.05
1757329341.5609345,-0.858,-0.128,9.841,0.7407414781825032,5.037665891954817,2.412280701754386,0,0.05
1757329341.5877771,-0.754,-0.004,9.834,0.7405854474670698,4.384509252893568,2.4168421052631577,0,0.05
1757329341.6140022,-0.754,-0.004,9.834,0.7405854474670698,4.384509252893568,2.4168421052631577,0,0.05
1757329341.6406302,-0.823,0.303,9.79,0.7406484506835885,5.11899109101461,2.4188471177944866,0,0.05
1757329341.6674001,-0.823,0.303,9.79,0.7406484506835885,5.11899109101461,2.4188471177944866,0,0.05
1757329341.6935213,-0.689,0.154,9.758,0.740446370441506,4.138194258841657,2.425363408521303,0,0.05
1757329341.7215333,-0.689,0.154,9.758,0.740446370441506,4.138194258841657,2.425363408521303,0,0.05
1757329341.7487214,-1.045,0.26,9.695,0.7412962751154224,6.338070505144952,2.4425563909774435,0,0.05
1757329341.776045,-1.045,0.26,9.695,0.7412962751154224,6.338070505144952,2.4425563909774435,0,0.05
1757329341.8023868,-0.912,0.183,9.674,0.7416727900496283,5.492246550452201,2.4482706766917293,0,0.05
1757329341.8299246,-0.912,0.183,9.674,0.7416727900496283,5.492246550452201,2.4482706766917293,0,0.05
1757329341.8572278,-0.842,0.038,9.766,0.741791705939073,4.932703419509136,2.450977443609023,0,0.05
1757329341.884015,-0.842,0.038,9.766,0.741791705939073,4.932703419509136,2.450977443609023,0,0.05
1757329341.9107623,-0.933,0.109,9.644,0.7421392019021767,5.563178614633916,2.4551378446115284,0,0.05
1757329341.9371493,-0.933,0.109,9.644,0.7421392019021767,5.563178614633916,2.4551378446115284,0,0.05
1757329341.9639187,-0.75,0.1,9.685,0.7419457678968188,4.46713949567687,2.464260651629073,0,0.05
1757329341.992033,-0.75,0.1,9.685,0.7419457678968188,4.46713949567687,2.464260651629073,0,0.05
1757329342.0189824,-0.45,0.121,9.825,0.7411481380264002,2.715411579166158,2.478345864661654,0,0.05
1757329342.0455227,-0.45,0.121,9.825,0.7411481380264002,2.715411579166158,2.478345864661654,0,0.05
1757329342.071581,-0.87,-0.014,9.578,0.7413371635092901,5.190782257704533,2.497593984962406,0,0.05
1757329342.0974722,-0.87,-0.014,9.578,0.7413371635092901,5.190782257704533,2.497593984962406,0,0.05
1757329342.1249208,-0.673,0.107,9.744,0.7411088921339427,4.000503252526236,2.5073182957393483,0,0.05
1757329342.1523976,-0.673,0.107,9.744,0.7411088921339427,4.000503252526236,2.5073182957393483,0,0.05
1757329342.1787572,-0.673,0.107,9.744,0.7411088921339427,4.000503252526236,2.5073182957393483,0,0.05
1757329342.2050457,-0.61,0.136,9.918,0.7407519152860829,3.6056915875523656,2.5100751879699246,0,0.05
1757329342.2328653,-0.651,-0.214,9.87,0.7404613038505118,3.9716571644880667,2.510877192982456,0,0.05
1757329342.2596622,-0.651,-0.214,9.87,0.7404613038505118,3.9716571644880667,2.510877192982456,0,0.05
1757329342.285616,-0.651,-0.214,9.87,0.7404613038505118,3.9716571644880667,2.510877192982456,0,0.05
1757329342.3116488,-0.911,-0.126,10.025,0.7407899314245571,5.2415221354241535,2.522907268170426,0,0.05
1757329342.337892,-0.802,0.298,9.917,0.7407489520748578,4.930899943253141,2.5283709273182957,0,0.05
1757329342.3646293,-0.802,0.298,9.917,0.7407489520748578,4.930899943253141,2.5283709273182957,0,0.05
1757329342.3914852,-0.802,0.298,9.917,0.7407489520748578,4.930899943253141,2.5283709273182957,0,0.05
1757329342.4185803,-0.491,-0.109,9.827,0.7400290467272214,2.92988478302689,2.5438095238095233,0,0.05
1757329342.4457712,-0.948,-0.034,9.816,0.7404112033188045,5.5198721755760305,2.5664160401002505,0,0.05
1757329342.4727535,-0.948,-0.034,9.816,0.7404112033188045,5.5198721755760305,2.5664160401002505,0,0.05
1757329342.4992576,-0.859,-0.271,9.893,0.7405382923927702,5.202301114958986,2.570025062656642,0,0.05
1757329342.5252032,-0.859,-0.271,9.893,0.7405382923927702,5.202301114958986,2.570025062656642,0,0.05
1757329342.5518124,-0.769,-0.43,9.789,0.740464274965376,5.143036001360053,2.573934837092732,0,0.05
1757329342.5780985,-0.769,-0.43,9.789,0.740464274965376,5.143036001360053,2.573934837092732,0,0.05
1757329342.6045187,-0.769,-0.43,9.789,0.740464274965376,5.143036001360053,2.573934837092732,0,0.05
1757329342.630979,-0.883,-0.3,9.713,0.7407401720576521,5.48431041362085,2.579448621553884,0,0.05
1757329342.65794,-0.684,-0.163,9.835,0.7405003308574548,4.08940517363579,2.58907268170426,0,0.05
1757329342.684612,-0.684,-0.163,9.835,0.7405003308574548,4.08940517363579,2.58907268170426,0,0.05
1757329342.710694,-0.684,-0.163,9.835,0.7405003308574548,4.08940517363579,2.58907268170426,0,0.05
1757329342.737492,-0.768,-0.004,9.792,0.7404477969445247,4.48466658736497,2.59187969924812,0,0.05
1757329342.7641006,-0.768,-0.004,9.792,0.7404477969445247,4.48466658736497,2.59187969924812,0,0.05
1757329342.7910812,-0.81,-0.282,9.609,0.740431326997987,5.100620271803562,2.5932330827067664,0,0.05
1757329342.8179383,-0.81,-0.282,9.609,0.740431326997987,5.100620271803562,2.5932330827067664,0,0.05
1757329342.8444905,-0.895,-0.007,9.921,0.7406177894163765,5.155008907081172,2.5971929824561397,0,0.05
1757329342.8711624,-0.895,-0.007,9.921,0.7406177894163765,5.155008907081172,2.5971929824561397,0,0.05
1757329342.8977141,-0.82,-0.005,9.788,0.7406039072945807,4.788920367661478,2.6003007518796992,0,0.05
1757329342.923776,-0.82,-0.005,9.788,0.7406039072945807,4.788920367661478,2.6003007518796992,0,0.05
1757329342.9506943,-0.632,-0.164,9.652,0.7401650812487711,3.870009364950802,2.608771929824561,0,0.05
1757329342.9786234,-0.632,-0.164,9.652,0.7401650812487711,3.870009364950802,2.608771929824561,0,0.05
1757329343.0055296,-1.007,-0.262,9.8,0.7408153261778538,6.0607330238618085,2.626766917293233,0,0.05
1757329343.0332341,-1.007,-0.262,9.8,0.7408153261778538,6.0607330238618085,2.626766917293233,0,0.05
1757329343.060069,-0.483,-0.145,9.684,0.7401900077007255,2.980992412086606,2.6527318295739346,0,0.05
1757329343.0880115,-0.483,-0.145,9.684,0.7401900077007255,2.980992412086606,2.6527318295739346,0,0.05
1757329343.1149597,-0.717,-0.467,9.644,0.7400228020135595,5.070350751825466,2.6643107769423557,0,0.05
1757329343.1429358,-0.717,-0.467,9.644,0.7400228020135595,5.070350751825466,2.6643107769423557,0,0.05
1757329343.1702864,-0.907,-0.133,9.915,0.7403687459637933,5.282311569288433,2.6728320802005006,0,0.05
1757329343.1978586,-0.851,-0.381,9.836,0.7404946269217624,5.415126772154453,2.675037593984962,0,0.05
1757329343.2247405,-0.851,-0.381,9.836,0.7404946269217624,5.415126772154453,2.675037593984962,0,0.05
1757329343.2511642,-0.851,-0.381,9.836,0.7404946269217624,5.415126772154453,2.675037593984962,0,0.05
1757329343.2775445,-0.813,-0.302,9.73,0.7404808606574514,5.093572017938796,2.6767418546365915,0,0.05
1757329343.3041193,-0.813,-0.302,9.73,0.7404808606574514,5.093572017938796,2.6767418546365915,0,0.05
1757329343.3309205,-0.981,-0.355,9.852,0.7409867188418426,6.044692914995984,2.6850626566416045,0,0.05
1757329343.358613,-0.981,-0.355,9.852,0.7409867188418426,6.044692914995984,2.6850626566416045,0,0.05
1757329343.3850594,-0.745,-0.017,10.11,0.7408107180650129,4.215568323179427,2.695739348370927,0,0.05
1757329343.4119325,-0.745,-0.017,10.11,0.7408107180650129,4.215568323179427,2.695739348370927,0,0.05
1757329343.4384694,-0.634,-0.046,9.878,0.7404384562541305,3.682006660196759,2.6999999999999997,0,0.05
1757329343.4646547,-0.634,-0.046,9.878,0.7404384562541305,3.682006660196759,2.6999999999999997,0,0.05
1757329343.4909656,-0.598,0.023,9.816,0.7400592510062961,3.4887756966278523,2.7016040100250627,0,0.05
1757329343.517173,-0.598,0.023,9.816,0.7400592510062961,3.4887756966278523,2.7016040100250627,0,0.05
1757329343.5446959,-0.767,0.156,9.965,0.7400798706896439,4.491092080278516,2.7097243107769424,0,0.05
1757329343.5709724,-0.767,0.156,9.965,0.7400798706896439,4.491092080278516,2.7097243107769424,0,0.05
1757329343.5972216,-0.745,0.129,9.843,0.7400262748713724,4.392525819727816,2.7104260651629075,0,0.05
1757329343.6232486,-0.745,0.129,9.843,0.7400262748713724,4.392525819727816,2.7104260651629075,0,0.05
1757329343.6497567,-0.631,-0.056,9.816,0.7396868256228442,3.692488949961123,2.7147869674185463,0,0.05
1757329343.6764514,-0.631,-0.056,9.816,0.7396868256228442,3.692488949961123,2.7147869674185463,0,0.05
1757329343.7026193,-0.862,0.048,9.957,0.7398582347314923,4.955515723898627,2.726265664160401,0,0.05
1757329343.730126,-0.862,0.048,9.957,0.7398582347314923,4.955515723898627,2.726265664160401,0,0.05
1757329343.7578025,-0.678,0.178,9.707,0.7395453975247226,4.130359181213711,2.7351378446115286,0,0.05
1757329343.783728,-0.678,0.178,9.707,0.7395453975247226,4.130359181213711,2.7351378446115286,0,0.05
1757329343.810067,-0.482,0.111,9.617,0.7388287724500177,2.944209407092189,2.7436591478696735,0,0.05
1757329343.836465,-0.482,0.111,9.617,0.7388287724500177,2.944209407092189,2.7436591478696735,0,0.05
1757329343.8627658,-0.738,-0.024,9.814,0.73871031196268,4.302738802035206,2.7553383458646614,0,0.05
1757329343.8896172,-0.738,-0.024,9.814,0.73871031196268,4.302738802035206,2.7553383458646614,0,0.05
1757329343.9161246,-0.798,-0.109,9.766,0.7388079131276275,4.7145595081740765,2.758345864661654,0,0.05
1757329343.9436953,-0.798,-0.109,9.766,0.7388079131276275,4.7145595081740765,2.758345864661654,0,0.05
1757329343.9717634,-0.835,-0.135,9.715,0.7390077080112223,4.975946248266486,2.7593984962406015,0,0.05
1757329343.9986715,-0.835,-0.135,9.715,0.7390077080112223,4.975946248266486,2.7593984962406015,0,0.05
1757329344.0253806,-0.93,-0.201,9.79,0.7394493356545802,5.55104337312154,2.7632581453634084,0,0.05
1757329344.0520697,-0.93,-0.201,9.79,0.7394493356545802,5.55104337312154,2.7632581453634084,0,0.05
1757329344.0777771,-0.72,0.133,9.931,0.7392572336473956,4.216606325539039,2.772731829573935,0,0.05
1757329344.105262,-0.72,0.133,9.931,0.7392572336473956,4.216606325539039,2.772731829573935,0,0.05
1757329344.1320634,-0.799,-0.11,9.692,0.7392108089036576,4.757006088019296,2.776240601503759,0,0.05
1757329344.1589134,-0.799,-0.11,9.692,0.7392108089036576,4.757006088019296,2.776240601503759,0,0.05
1757329344.1870267,-0.716,0.013,9.882,0.7389267199797285,4.144802831360283,2.7801503759398494,0,0.05
1757329344.2134812,-0.716,0.013,9.882,0.7389267199797285,4.144802831360283,2.7801503759398494,0,0.05
1757329344.2409518,-0.793,0.148,9.918,0.7388251281595666,4.649986038449147,2.783408521303258,0,0.05
1757329344.2680147,-0.793,0.148,9.918,0.7388251281595666,4.649986038449147,2.783408521303258,0,0.05
1757329344.293972,-0.675,0.144,9.672,0.7384638261282674,4.081679469101113,2.7885714285714283,0,0.05
1757329344.3208692,-0.675,0.144,9.672,0.7384638261282674,4.081679469101113,2.7885714285714283,0,0.05
1757329344.3485458,-0.639,-0.105,9.733,0.7380634136034654,3.8064712892247132,2.7898245614035084,0,0.05
1757329344.376022,-0.639,-0.105,9.733,0.7380634136034654,3.8064712892247132,2.7898245614035084,0,0.05
1757329344.4031706,-0.639,-0.105,9.733,0.7380634136034654,3.8064712892247132,2.7898245614035084,0,0.05
1757329344.4296694,-0.829,-0.12,10.017,0.7381649849457775,4.780058455527245,2.798546365914787,0,0.05
1757329344.4578753,-0.503,0.14,9.516,0.7374875643019345,3.140530779588157,2.814636591478697,0,0.05
1757329344.4855554,-0.503,0.14,9.516,0.7374875643019345,3.140530779588157,2.814636591478697,0,0.05
1757329344.5121305,-0.6,0.017,9.642,0.7369772622001306,3.5622215343830423,2.818646616541353,0,0.05
1757329344.5389872,-0.6,0.017,9.642,0.7369772622001306,3.5622215343830423,2.818646616541353,0,0.05
1757329344.5652215,-0.53,0.153,9.834,0.7362849210733573,3.210664427932474,2.8211528822055136,0,0.05
1757329344.5935857,-0.53,0.153,9.834,0.7362849210733573,3.210664427932474,2.8211528822055136,0,0.05
1757329344.6202784,-0.641,-0.019,9.618,0.7357556914492746,3.8145583673246564,2.8232581453634085,0,0.05
1757329344.6472063,-0.641,-0.019,9.618,0.7357556914492746,3.8145583673246564,2.8232581453634085,0,0.05
1757329344.6739569,-0.808,-0.116,9.61,0.7354299388792925,4.855114124070125,2.823408521303258,0,0.05
1757329344.7012057,-0.808,-0.116,9.61,0.7354299388792925,4.855114124070125,2.823408521303258,0,0.05
1757329344.728066,-0.665,-0.143,9.753,0.7352126869144737,3.9895075480108053,2.8196992481203007,0,0.05
1757329344.7554214,-0.665,-0.143,9.753,0.7352126869144737,3.9895075480108053,2.8196992481203007,0,0.05
1757329344.7824135,-0.318,0.021,9.612,0.7348924377077233,1.8989863471553676,2.834436090225564,0,0.05
1757329344.8085878,-0.318,0.021,9.612,0.7348924377077233,1.8989863471553676,2.834436090225564,0,0.05
1757329344.8348532,-0.844,-0.238,9.477,0.7357035221473389,5.286574756312223,2.8498245614035085,0,0.05
1757329344.8621676,-0.844,-0.238,9.477,0.7357035221473389,5.286574756312223,2.8498245614035085,0,0.05
1757329344.8879194,-0.952,-0.092,9.477,0.7364009726365114,5.762875583184845,2.8438596491228068,0,0.05
1757329344.9141502,-0.952,-0.092,9.477,0.7364009726365114,5.762875583184845,2.8438596491228068,0,0.05
1757329344.940901,-0.904,-0.139,9.566,0.7363168679311917,5.461559352091092,2.8460150375939848,0,0.05
1757329344.9681659,-0.904,-0.139,9.566,0.7363168679311917,5.461559352091092,2.8460150375939848,0,0.05
1757329344.9949822,-0.909,-0.04,9.476,0.7362322952030833,5.484690799521508,2.830426065162907,0,0.05
1757329345.0221698,-0.909,-0.04,9.476,0.7362322952030833,5.484690799521508,2.830426065162907,0,0.05
1757329345.0486093,-0.873,-0.231,9.629,0.736873337148251,5.357748531793052,2.824160401002506,0,0.05
1757329345.0740666,-0.873,-0.231,9.629,0.736873337148251,5.357748531793052,2.824160401002506,0,0.05
1757329345.1012807,-0.998,-0.123,9.881,0.7382043230027849,5.8107651977684265,2.816290726817042,0,0.05
1757329345.1292028,-0.998,-0.123,9.881,0.7382043230027849,5.8107651977684265,2.816290726817042,0,0.05
1757329345.1552682,-0.496,0.152,9.46,0.7376909651066631,3.1388438501433082,2.8337844611528817,0,0.05
1757329345.1828094,-0.496,0.152,9.46,0.7376909651066631,3.1388438501433082,2.8337844611528817,0,0.05
1757329345.2091417,-0.848,-0.275,9.65,0.7375551708177498,5.2780553234573695,2.847869674185464,0,0.05
1757329345.23653,-0.848,-0.275,9.65,0.7375551708177498,5.2780553234573695,2.847869674185464,0,0.05
1757329345.26391,-0.888,0.082,9.818,0.737743632639415,5.189986879912787,2.8460150375939848,0,0.05
1757329345.291049,-0.888,0.082,9.818,0.737743632639415,5.189986879912787,2.8460150375939848,0,0.05
1757329345.3178353,-0.888,0.082,9.818,0.737743632639415,5.189986879912787,2.8460150375939848,0,0.05
1757329345.3450975,-0.888,0.082,9.818,0.737743632639415,5.189986879912787,2.8460150375939848,0,0.05
1757329345.3727038,-0.696,0.136,9.65,0.7376214594898931,4.20301880683623,2.8440100250626568,0,0.05
1757329345.4005682,-0.593,-0.152,9.846,0.7365957710983685,3.5577602729983537,2.836591478696742,0,0.05
1757329345.427858,-0.873,-0.013,9.71,0.7369920827254524,5.138063089079953,2.8471177944862154,0,0.05
1757329345.4542952,-0.873,-0.013,9.71,0.7369920827254524,5.138063089079953,2.8471177944862154,0,0.05
1757329345.481416,-0.53,0.117,9.705,0.7363908999301934,3.2009816680213747,2.86125313283208,0,0.05
1757329345.508733,-0.53,0.117,9.705,0.7363908999301934,3.2009816680213747,2.86125313283208,0,0.05
1757329345.5348992,-0.584,-0.266,9.685,0.7357199110395205,3.790863466244368,2.8544862155388473,0,0.05
1757329345.561817,-0.584,-0.266,9.685,0.7357199110395205,3.790863466244368,2.8544862155388473,0,0.05
1757329345.58825,-0.749,-0.021,9.657,0.7348100213660672,4.436735953017723,2.8611528822055137,0,0.05
1757329345.6151032,-0.749,-0.021,9.657,0.7348100213660672,4.436735953017723,2.8611528822055137,0,0.05
1757329345.6428614,-0.57,-0.039,9.707,0.7336091977340524,3.3684173784587492,2.8635087719298244,0,0.05
1757329345.669672,-0.57,-0.039,9.707,0.7336091977340524,3.3684173784587492,2.8635087719298244,0,0.05
1757329345.696028,-0.614,-0.062,9.565,0.7320081437388521,3.691538579086622,2.8551378446115283,0,0.05
1757329345.7233648,-0.614,-0.062,9.565,0.7320081437388521,3.691538579086622,2.8551378446115283,0,0.05
1757329345.7500188,-0.67,-0.148,9.826,0.7312782866323873,3.9944916828173302,2.842406015037594,0,0.05
1757329345.777053,-0.67,-0.148,9.826,0.7312782866323873,3.9944916828173302,2.842406015037594,0,0.05
1757329345.8032618,-0.698,-0.2,9.998,0.7314412160249106,4.153718648784633,2.839749373433584,0,0.05
1757329345.830104,-0.698,-0.2,9.998,0.7314412160249106,4.153718648784633,2.839749373433584,0,0.05
1757329345.8567166,-0.501,0.054,9.764,0.7310158223321845,2.954307034601323,2.8331328320801994,0,0.05
1757329345.883949,-0.501,0.054,9.764,0.7310158223321845,2.954307034601323,2.8331328320801994,0,0.05
1757329345.9099443,-0.54,0.008,9.782,0.7296779375176421,3.1600628005113265,2.8328320802005007,0,0.05
1757329345.9361045,-0.54,0.008,9.782,0.7296779375176421,3.1600628005113265,2.8328320802005007,0,0.05
1757329345.96323,-0.676,0.172,9.948,0.7287778330876975,4.0109275595232345,2.8317794486215537,0,0.05
1757329345.9894745,-0.676,0.172,9.948,0.7287778330876975,4.0109275595232345,2.8317794486215537,0,0.05
1757329346.0159295,-0.753,0.339,9.765,0.7274887576450925,4.833794644112582,2.8294235588972434,0,0.05
1757329346.0435414,-0.753,0.339,9.765,0.7274887576450925,4.833794644112582,2.8294235588972434,0,0.05
1757329346.0704877,-0.512,0.103,9.835,0.7261362217242713,3.039662207769248,2.8352882205513783,0,0.05
1757329346.0980794,-0.512,0.103,9.835,0.7261362217242713,3.039662207769248,2.8352882205513783,0,0.05
1757329346.1255662,-0.799,0.178,9.859,0.7258407642176071,4.746349235652366,2.84922305764411,0,0.05
1757329346.151478,-0.799,0.178,9.859,0.7258407642176071,4.746349235652366,2.84922305764411,0,0.05
1757329346.1781049,-0.494,0.167,9.899,0.7248932352422666,3.0154673699877295,2.8604511278195486,0,0.05
1757329346.2053645,-0.494,0.167,9.899,0.7248932352422666,3.0154673699877295,2.8604511278195486,0,0.05
1757329346.232841,-0.713,-0.18,9.948,0.7246384443293082,4.227694213739908,2.85859649122807,0,0.05
1757329346.2595375,-0.713,-0.18,9.948,0.7246384443293082,4.227694213739908,2.85859649122807,0,0.05
1757329346.2859635,-0.67,-0.133,9.887,0.723451612065382,3.9521715403756312,2.8589974937343365,0,0.05
1757329346.3135023,-0.67,-0.133,9.887,0.723451612065382,3.9521715403756312,2.8589974937343365,0,0.05
1757329346.3407617,-0.762,0.006,9.936,0.7226177706782473,4.385611546388963,2.8512781954887214,0,0.05
1757329346.3669288,-0.762,0.006,9.936,0.7226177706782473,4.385611546388963,2.8512781954887214,0,0.05
1757329346.3940623,-0.755,-0.095,9.896,0.720780606356747,4.397108596908395,2.844010025062656,0,0.05
1757329346.4218686,-0.755,-0.095,9.896,0.720780606356747,4.397108596908395,2.844010025062656,0,0.05
1757329346.4484925,-0.534,-0.176,9.671,0.7190782363554051,3.327337682932933,2.828120300751879,0,0.05
1757329346.4761634,-0.534,-0.176,9.671,0.7190782363554051,3.327337682932933,2.828120300751879,0,0.05
1757329346.5040312,-0.912,0.52,9.754,0.7199246123727122,6.143139814166368,2.834837092731829,0,0.05
1757329346.5299938,-0.912,0.52,9.754,0.7199246123727122,6.143139814166368,2.834837092731829,0,0.05
1757329346.5563004,-0.272,0.44,9.622,0.7188532569307869,3.0772974213188506,2.8592481203007516,0,0.05
1757329346.583176,-0.272,0.44,9.622,0.7188532569307869,3.0772974213188506,2.8592481203007516,0,0.05
1757329346.6103272,-0.713,0.244,9.792,0.7180531230347793,4.4008223938316915,2.878295739348371,0,0.05
1757329346.6371317,-0.713,0.244,9.792,0.7180531230347793,4.4008223938316915,2.878295739348371,0,0.05
1757329346.6638656,-0.569,0.521,9.837,0.7171330891124743,4.48439729219001,2.88390977443609,0,0.05
1757329346.6897914,-0.569,0.521,9.837,0.7171330891124743,4.48439729219001,2.88390977443609,0,0.05
1757329346.7165139,-0.975,0.138,9.856,0.7172003677494874,5.705514960108933,2.9023558897243107,0,0.05
1757329346.7436059,-0.975,0.138,9.856,0.7172003677494874,5.705514960108933,2.9023558897243107,0,0.05
1757329346.7702239,-0.867,0.054,9.766,0.716791788108653,5.083048815837245,2.8963909774436085,0,0.05
1757329346.796669,-0.867,0.054,9.766,0.716791788108653,5.083048815837245,2.8963909774436085,0,0.05
1757329346.822192,-0.928,0.465,9.698,0.7172701983910944,6.109146856995983,2.896290726817042,0,0.05
1757329346.8480113,-0.928,0.465,9.698,0.7172701983910944,6.109146856995983,2.896290726817042,0,0.05
1757329346.8742914,-0.928,0.465,9.698,0.7172701983910944,6.109146856995983,2.896290726817042,0,0.05
1757329346.9008107,-0.681,0.378,9.912,0.7168806298819909,4.493007685497395,2.90295739348371,0,0.05
1757329346.9270008,-0.708,0.339,9.689,0.7162037943211416,4.6318205645047685,2.9015538847117797,0,0.05
1757329346.9544318,-0.708,0.339,9.689,0.7162037943211416,4.6318205645047685,2.9015538847117797,0,0.05
1757329346.982428,-0.737,0.24,9.678,0.7157754099576208,4.578938446631141,2.893032581453634,0,0.05
1757329347.009012,-0.737,0.24,9.678,0.7157754099576208,4.578938446631141,2.893032581453634,0,0.05
1757329347.0362694,-0.736,0.074,9.745,0.7146570890993805,4.340809102767663,2.8918796992481206,0,0.05
1757329347.062238,-0.736,0.074,9.745,0.7146570890993805,4.340809102767663,2.8918796992481206,0,0.05
1757329347.0881107,-0.707,0.057,9.671,0.7135541009622186,4.194697515810274,2.891127819548872,0,0.05
1757329347.115196,-0.707,0.057,9.671,0.7135541009622186,4.194697515810274,2.891127819548872,0,0.05
1757329347.141887,-0.794,0.058,9.76,0.7125109981607302,4.66324786218577,2.8803007518796995,0,0.05
1757329347.1676595,-0.794,0.058,9.76,0.7125109981607302,4.66324786218577,2.8803007518796995,0,0.05
1757329347.1943505,-1.036,0.159,9.925,0.713259505720043,6.02838024611353,2.888771929824561,0,0.05
1757329347.221156,-1.036,0.159,9.925,0.713259505720043,6.02838024611353,2.888771929824561,0,0.05
1757329347.2479422,-0.651,-0.061,9.735,0.7126540552750683,3.8425022363891244,2.904411027568922,0,0.05
1757329347.2746196,-0.651,-0.061,9.735,0.7126540552750683,3.8425022363891244,2.904411027568922,0,0.05
1757329347.3007662,-0.651,-0.061,9.735,0.7126540552750683,3.8425022363891244,2.904411027568922,0,0.05
1757329347.3279612,-1.024,-0.145,9.642,0.7129102275181637,6.122222765164645,2.923057644110275,0,0.05
1757329347.3542814,-1.085,-0.209,9.749,0.7133884303098839,6.46627726915562,2.9209022556390978,0,0.05
1757329347.3818762,-1.085,-0.209,9.749,0.7133884303098839,6.46627726915562,2.9209022556390978,0,0.05
1757329347.4085627,-1.085,-0.209,9.749,0.7133884303098839,6.46627726915562,2.9209022556390978,0,0.05
1757329347.4358675,-0.864,-0.136,9.646,0.7134393947631431,5.181050503669187,2.930676691729323,0,0.05
1757329347.4632037,-1.013,-0.148,9.748,0.7139018630035924,5.995339179234311,2.9324812030075185,0,0.05
1757329347.490434,-1.013,-0.148,9.748,0.7139018630035924,5.995339179234311,2.9324812030075185,0,0.05
1757329347.5165446,-1.013,-0.148,9.748,0.7139018630035924,5.995339179234311,2.9324812030075185,0,0.05
1757329347.542873,-1.013,-0.148,9.748,0.7139018630035924,5.995339179234311,2.9324812030075185,0,0.05
1757329347.5693882,-1.063,-0.026,9.782,0.714868374248015,6.203778161907824,2.9331829573934836,0,0.05
1757329347.5956209,-0.639,-0.257,9.721,0.7146657645361222,4.052706637296481,2.954285714285714,0,0.05
1757329347.6221743,-0.639,-0.257,9.721,0.7146657645361222,4.052706637296481,2.954285714285714,0,0.05
1757329347.6486816,-1.045,-0.3,9.63,0.7156506794519237,6.441316150187249,2.9662155388471176,0,0.05
1757329347.6750875,-1.045,-0.3,9.63,0.7156506794519237,6.441316150187249,2.9662155388471176,0,0.05
1757329347.7018054,-0.734,-0.081,9.927,0.7151924373901055,4.254318135569255,2.9743859649122806,0,0.05
1757329347.7281702,-0.734,-0.081,9.927,0.7151924373901055,4.254318135569255,2.9743859649122806,0,0.05
1757329347.7549098,-1.077,-0.227,9.904,0.7153184063757901,6.341437994113052,2.9882706766917293,0,0.05
1757329347.782054,-1.077,-0.227,9.904,0.7153184063757901,6.341437994113052,2.9882706766917293,0,0.05
1757329347.8080356,-0.82,-0.074,9.614,0.7143435588006656,4.894803870721029,2.992130325814536,0,0.05
1757329347.834272,-0.82,-0.074,9.614,0.7143435588006656,4.894803870721029,2.992130325814536,0,0.05
1757329347.8610778,-0.743,-0.275,9.765,0.7137991594279164,4.638389873277549,2.9898746867167922,0,0.05
1757329347.8874967,-0.743,-0.275,9.765,0.7137991594279164,4.638389873277549,2.9898746867167922,0,0.05
1757329347.913351,-0.806,-0.131,9.797,0.713796334748225,4.764569354545982,2.991278195488722,0,0.05
1757329347.940045,-0.806,-0.131,9.797,0.713796334748225,4.764569354545982,2.991278195488722,0,0.05
1757329347.9669538,-0.856,-0.09,9.677,0.7138379630560426,5.0827831184829035,2.9891228070175435,0,0.05
1757329347.9948783,-0.856,-0.09,9.677,0.7138379630560426,5.0827831184829035,2.9891228070175435,0,0.05
1757329348.0217867,-0.851,-0.127,9.728,0.714123685015418,5.054556524668212,2.9727819548872176,0,0.05
1757329348.0487895,-0.851,-0.127,9.728,0.714123685015418,5.054556524668212,2.9727819548872176,0,0.05
1757329348.0760303,-0.966,-0.232,9.684,0.7137152986310438,5.857406484181841,2.9738345864661655,0,0.05
1757329348.1032712,-0.966,-0.232,9.684,0.7137152986310438,5.857406484181841,2.9738345864661655,0,0.05
1757329348.130121,-0.82,-0.076,9.572,0.7131900430460313,4.91725864445133,2.979398496240602,0,0.05
1757329348.156896,-0.82,-0.076,9.572,0.7131900430460313,4.91725864445133,2.979398496240602,0,0.05
1757329348.1825826,-0.862,0.079,9.744,0.7129071783900061,5.076569296817523,2.977593984962406,0,0.05
1757329348.2090545,-0.862,0.079,9.744,0.7129071783900061,5.076569296817523,2.977593984962406,0,0.05
1757329348.237359,-0.789,-0.054,9.813,0.7126623499245628,4.607602498039324,2.9785463659147866,0,0.05
1757329348.264469,-0.789,-0.054,9.813,0.7126623499245628,4.607602498039324,2.9785463659147866,0,0.05
1757329348.2913826,-0.907,0.132,9.651,0.7129287096196927,5.425106010777742,2.981453634085213,0,0.05
1757329348.3184838,-0.907,0.132,9.651,0.7129287096196927,5.425106010777742,2.981453634085213,0,0.05
1757329348.3458335,-0.713,0.133,9.825,0.7124652026590491,4.222015540060294,2.982155388471178,0,0.05
1757329348.3726096,-0.713,0.133,9.825,0.7124652026590491,4.222015540060294,2.982155388471178,0,0.05
1757329348.3995225,-0.78,0.144,9.776,0.7115644471866199,4.638562710614158,2.9828070175438595,0,0.05
1757329348.4254985,-0.78,0.144,9.776,0.7115644471866199,4.638562710614158,2.9828070175438595,0,0.05
1757329348.4523902,-0.751,0.184,9.589,0.7107804882662438,4.610089381221298,2.977142857142857,0,0.05
1757329348.4792697,-0.751,0.184,9.589,0.7107804882662438,4.610089381221298,2.977142857142857,0,0.05
1757329348.5072958,-0.694,0.211,9.721,0.7093123219005856,4.2674187778759585,2.9602005012531327,0,0.05
1757329348.5343866,-0.694,0.211,9.721,0.7093123219005856,4.2674187778759585,2.9602005012531327,0,0.05
1757329348.560933,-0.756,0.241,9.881,0.709322951835058,4.591229520963026,2.953634085213032,0,0.05
1757329348.587976,-0.756,0.241,9.881,0.709322951835058,4.591229520963026,2.953634085213032,0,0.05
1757329348.6147394,-0.715,0.199,9.744,0.7086498077329875,4.355668552942571,2.9486716791979948,0,0.05
1757329348.6421714,-0.715,0.199,9.744,0.7086498077329875,4.355668552942571,2.9486716791979948,0,0.05
1757329348.6690056,-0.837,0.202,9.864,0.7087424849689766,4.98871312346003,2.952230576441103,0,0.05
1757329348.696425,-0.837,0.202,9.864,0.7087424849689766,4.98871312346003,2.952230576441103,0,0.05
1757329348.7245932,-0.701,0.186,9.928,0.7083167176482565,4.178127944157654,2.9539849624060146,0,0.05
1757329348.7523987,-0.701,0.186,9.928,0.7083167176482565,4.178127944157654,2.9539849624060146,0,0.05
1757329348.7799394,-0.816,0.142,9.899,0.7078754057035743,4.782877673946824,2.9524812030075185,0,0.05
1757329348.8074574,-0.816,0.142,9.899,0.7078754057035743,4.782877673946824,2.9524812030075185,0,0.05
1757329348.8348072,-0.872,0.024,9.856,0.7080538044527407,5.057928150514957,2.952982456140351,0,0.05
1757329348.8613544,-0.872,0.024,9.856,0.7080538044527407,5.057928150514957,2.952982456140351,0,0.05
1757329348.887535,-0.71,0.057,9.904,0.7079078682992583,4.113564465766536,2.9570426065162905,0,0.05
1757329348.9143336,-0.71,0.057,9.904,0.7079078682992583,4.113564465766536,2.9570426065162905,0,0.05
1757329348.9423826,-0.762,0.003,9.704,0.7081045809059563,4.489933555298585,2.9550877192982457,0,0.05
1757329348.9696076,-0.762,0.003,9.704,0.7081045809059563,4.489933555298585,2.9550877192982457,0,0.05
1757329348.998176,-0.833,0.32,9.754,0.7087063778462841,5.227186387708447,2.9512781954887215,0,0.05
1757329349.024579,-0.833,0.32,9.754,0.7087063778462841,5.227186387708447,2.9512781954887215,0,0.05
1757329349.0512056,-0.532,0.124,9.775,0.7082369571689973,3.198554778108428,2.960551378446115,0,0.05
1757329349.0785017,-0.532,0.124,9.775,0.7082369571689973,3.198554778108428,2.960551378446115,0,0.05
1757329349.1046631,-0.875,0.02,9.685,0.7082919789888912,5.163764162375585,2.9742355889724306,0,0.05
1757329349.1308427,-0.875,0.02,9.685,0.7082919789888912,5.163764162375585,2.9742355889724306,0,0.05
1757329349.157277,-0.873,-0.059,9.7,0.7085438783166501,5.1544327626510125,2.971428571428571,0,0.05
1757329349.182984,-0.873,-0.059,9.7,0.7085438783166501,5.1544327626510125,2.971428571428571,0,0.05
1757329349.2100866,-0.944,-0.037,9.846,0.7088562654022323,5.480758305005584,2.9643609022556383,0,0.05
1757329349.2382073,-0.944,-0.037,9.846,0.7088562654022323,5.480758305005584,2.9643609022556383,0,0.05
1757329349.2656863,-0.821,-0.199,9.897,0.709338131641039,4.878742090295269,2.970175438596491,0,0.05
1757329349.2918718,-0.821,-0.199,9.897,0.709338131641039,4.878742090295269,2.970175438596491,0,0.05
1757329349.3185918,-0.878,0.07,9.686,0.7100057077235364,5.195840218473167,2.9672681704260655,0,0.05
1757329349.3452349,-0.878,0.07,9.686,0.7100057077235364,5.195840218473167,2.9672681704260655,0,0.05
1757329349.371857,-0.932,0.041,9.763,0.7105680562057374,5.458313507761802,2.962255639097744,0,0.05
1757329349.3990452,-0.932,0.041,9.763,0.7105680562057374,5.458313507761802,2.962255639097744,0,0.05
1757329349.4256084,-0.89,0.051,9.813,0.7105523555657246,5.190775574681341,2.943609022556391,0,0.05
1757329349.4534578,-0.89,0.051,9.813,0.7105523555657246,5.190775574681341,2.943609022556391,0,0.05
1757329349.4809928,-0.722,-0.11,9.577,0.7084519443829623,4.360872435295871,2.9462155388471176,0,0.05
1757329349.5072422,-0.722,-0.11,9.577,0.7084519443829623,4.360872435295871,2.9462155388471176,0,0.05
1757329349.5334923,-0.85,0.126,9.652,0.7072144547448108,5.087455813062187,2.9415538847117793,0,0.05
1757329349.5595613,-0.85,0.126,9.652,0.7072144547448108,5.087455813062187,2.9415538847117793,0,0.05
1757329349.5858147,-0.85,0.126,9.652,0.7072144547448108,5.087455813062187,2.9415538847117793,0,0.05
1757329349.6127996,-0.827,0.024,9.959,0.7067532437138155,4.74896631988455,2.9380451127819542,0,0.05
1757329349.6391814,-0.745,0.138,9.695,0.7063682520470467,4.4686365835618505,2.9398496240601504,0,0.05
1757329349.6649368,-0.745,0.138,9.695,0.7063682520470467,4.4686365835618505,2.9398496240601504,0,0.05
1757329349.692141,-0.713,0.09,9.842,0.7060398767066914,4.1762964123422375,2.9364411027568917,0,0.05
1757329349.7191424,-0.713,0.09,9.842,0.7060398767066914,4.1762964123422375,2.9364411027568917,0,0.05
1757329349.745802,-0.926,0.155,9.801,0.7066065206322398,5.471928971140452,2.941203007518797,0,0.05
1757329349.7717988,-0.926,0.155,9.801,0.7066065206322398,5.471928971140452,2.941203007518797,0,0.05
1757329349.7978346,-0.883,0.042,9.522,0.707316361326387,5.303991554300021,2.93453634085213,0,0.05
1757329349.8238971,-0.883,0.042,9.522,0.707316361326387,5.303991554300021,2.93453634085213,0,0.05
1757329349.850814,-0.818,0.087,9.429,0.7073931315046817,4.986026741892071,2.918546365914787,0,0.05
1757329349.876876,-0.818,0.087,9.429,0.7073931315046817,4.986026741892071,2.918546365914787,0,0.05
1757329349.9033825,-0.802,0.102,9.744,0.7082364929880414,4.742970588183003,2.900451127819548,0,0.05
1757329349.9292147,-0.802,0.102,9.744,0.7082364929880414,4.742970588183003,2.900451127819548,0,0.05
1757329349.955832,-0.612,0.027,9.621,0.7078125811258231,3.643260271214797,2.9085714285714284,0,0.05
1757329349.9836984,-0.612,0.027,9.621,0.7078125811258231,3.643260271214797,2.9085714285714284,0,0.05
1757329350.0099123,-0.663,0.126,9.626,0.7075794884675501,4.0103723964795694,2.8971428571428572,0,0.05
1757329350.0363007,-0.663,0.126,9.626,0.7075794884675501,4.0103723964795694,2.8971428571428572,0,0.05
1757329350.0628984,-0.753,0.074,9.754,0.7066881861896377,4.435607538138408,2.901654135338345,0,0.05
1757329350.0895677,-0.753,0.074,9.754,0.7066881861896377,4.435607538138408,2.901654135338345,0,0.05
1757329350.1162374,-0.726,0.128,9.626,0.7057250314392993,4.379390343584631,2.899348370927318,0,0.05
1757329350.1428864,-0.726,0.128,9.626,0.7057250314392993,4.379390343584631,2.899348370927318,0,0.05
1757329350.1694355,-0.777,-0.036,9.327,0.7051549705561182,4.767201575141401,2.8979949874686715,0,0.05
1757329350.1959114,-0.777,-0.036,9.327,0.7051549705561182,4.767201575141401,2.8979949874686715,0,0.05
1757329350.2231193,-0.822,0.089,9.628,0.7049674478300398,4.9082309863414535,2.885513784461152,0,0.05
1757329350.2500966,-0.822,0.089,9.628,0.7049674478300398,4.9082309863414535,2.885513784461152,0,0.05
1757329350.2763045,-0.705,-0.057,9.811,0.7052314620037877,4.123467915040992,2.8844110275689214,0,0.05
1757329350.303175,-0.705,-0.057,9.811,0.7052314620037877,4.123467915040992,2.8844110275689214,0,0.05
1757329350.3301518,-0.753,0.111,9.628,0.7052945023180033,4.5200920092135055,2.878947368421052,0,0.05
1757329350.3574963,-0.753,0.111,9.628,0.7052945023180033,4.5200920092135055,2.878947368421052,0,0.05
1757329350.3839407,-0.572,0.158,9.754,0.7044826506025539,3.481509038142803,2.885513784461153,0,0.05
1757329350.4098449,-0.572,0.158,9.754,0.7044826506025539,3.481509038142803,2.885513784461153,0,0.05
1757329350.436061,-0.88,0.133,9.716,0.7043021830152169,5.233736225658214,2.8980952380952374,0,0.05
1757329350.46328,-0.88,0.133,9.716,0.7043021830152169,5.233736225658214,2.8980952380952374,0,0.05
1757329350.491322,-0.627,-0.035,9.597,0.7036283003120327,3.7437907905756247,2.89453634085213,0,0.05
1757329350.5178764,-0.627,-0.035,9.597,0.7036283003120327,3.7437907905756247,2.89453634085213,0,0.05
1757329350.5438564,-1.02,0.055,9.697,0.7049281683263905,6.013359156275396,2.9069674185463663,0,0.05
1757329350.5705802,-1.02,0.055,9.697,0.7049281683263905,6.013359156275396,2.9069674185463663,0,0.05
1757329350.5969937,-1.02,0.055,9.697,0.7049281683263905,6.013359156275396,2.9069674185463663,0,0.05
1757329350.622944,-0.651,0.083,9.82,0.7048107724772656,3.823386765470278,2.9078195488721805,0,0.05
1757329350.6489816,-0.651,0.083,9.82,0.7048107724772656,3.823386765470278,2.9078195488721805,0,0.05
1757329350.6749701,-0.709,0.204,9.599,0.7054871845044387,4.395027865114547,2.9063157894736844,0,0.05
1757329350.702601,-0.709,0.204,9.599,0.7054871845044387,4.395027865114547,2.9063157894736844,0,0.05
1757329350.7296016,-0.748,0.085,9.611,0.706358214718283,4.478740966061102,2.8919799498746865,0,0.05
1757329350.7572308,-0.784,-0.016,9.788,0.7068401551977646,4.580454518576622,2.873834586466165,0,0.05
1757329350.7843916,-0.784,-0.016,9.788,0.7068401551977646,4.580454518576622,2.873834586466165,0,0.05
1757329350.8119264,-0.784,-0.016,9.788,0.7068401551977646,4.580454518576622,2.873834586466165,0,0.05
1757329350.8376243,-0.79,-0.113,9.659,0.7078812276787682,4.7231335225092215,2.8639097744360904,0,0.05
1757329350.864651,-0.79,-0.113,9.659,0.7078812276787682,4.7231335225092215,2.8639097744360904,0,0.05
