timestamp,ax,ay,az,rms,tilt_now,jerk,tilt_crosses,freq
1757328611.732676,-0.981,-0.017,9.746,0.049049999999999996,5.74870036225144,0.04917293233082706,0,0.5
1757328611.7610424,-0.952,-0.019,9.737,0.06834956108125348,5.585244606510221,0.050626566416040096,0,0.05
1757328611.7887857,-0.937,-0.009,9.735,0.08286485986230835,5.49807174475498,0.05137844611528821,0,0.05
1757328611.8155992,-0.94,-0.008,9.736,0.09526586482051166,5.514949231932743,0.051528822055137834,0,0.05
1757328611.8423831,-0.963,-0.002,9.737,0.10674271637915161,5.648259476185762,0.05268170426065162,0,0.05
1757328611.8679712,-0.991,0.009,9.736,0.11768266652315455,5.812197249871439,0.05408521303258145,0,0.05
1757328611.8935382,-0.994,0.011,9.722,0.12774701562071814,5.838124076113613,0.05423558897243107,0,0.05
1757328611.919047,-0.985,0.0,9.722,0.13691187859349532,5.7852721826058815,0.05468671679197994,0,0.05
1757328611.944303,-0.974,-0.005,9.708,0.1453153553482907,5.729366647439288,0.055238095238095225,0,0.05
1757328611.9695134,-0.948,-0.009,9.698,0.15285062152310666,5.583295766898572,0.056541353383458635,0,0.05
1757328611.9944422,-0.95,-0.014,9.692,0.16006112113814522,5.5987952184559875,0.05664160401002505,0,0.05
1757328612.019686,-0.964,-0.008,9.684,0.16716100771411974,5.685011420343876,0.05734335839598996,0,0.05
1757328612.0448341,-1.0,-0.0,9.72,0.17447865915349073,5.873961516191935,0.05914786967418545,0,0.05
1757328612.069932,-1.0,-0.015,9.733,0.18150152203218572,5.866825941390328,0.05914786967418545,0,0.05
1757328612.095182,-1.006,-0.014,9.744,0.18834248724066485,5.895071916416753,0.0594486215538847,0,0.05
1757328612.1202123,-0.982,-0.017,9.755,0.19463736152136876,5.749245789111063,0.06065162907268169,0,0.05
1757328612.1452847,-0.982,-0.017,9.755,0.19463736152136876,5.749245789111063,0.06065162907268169,0,0.05
1757328612.1705296,-0.982,-0.017,9.755,0.19463736152136876,5.749245789111063,0.06065162907268169,0,0.05
1757328612.195421,-0.951,-0.017,9.752,0.20036143591020703,5.570668909159222,0.062205513784461146,0,0.05
1757328612.2201648,-0.951,-0.017,9.752,0.20036143591020703,5.570668909159222,0.062205513784461146,0,0.05
1757328612.2451952,-0.938,-0.012,9.725,0.20577734326208022,5.509723684959459,0.06285714285714285,0,0.05
1757328612.2702491,-0.938,-0.012,9.725,0.20577734326208022,5.509723684959459,0.06285714285714285,0,0.05
1757328612.295211,-0.931,-0.004,9.701,0.21097681744684652,5.481908464723277,0.0632080200501253,0,0.05
1757328612.3200958,-0.931,-0.004,9.701,0.21097681744684652,5.481908464723277,0.0632080200501253,0,0.05
1757328612.3453383,-0.948,-0.005,9.714,0.21623593017812742,5.573984883248232,0.06406015037593983,0,0.05
1757328612.3706899,-0.948,-0.005,9.714,0.21623593017812742,5.573984883248232,0.06406015037593983,0,0.05
1757328612.3955586,-0.964,-0.002,9.714,0.22154281188971128,5.667386967689627,0.06486215538847116,0,0.05
1757328612.420859,-0.964,-0.002,9.714,0.22154281188971128,5.667386967689627,0.06486215538847116,0,0.05
1757328612.445794,-0.973,-0.006,9.716,0.22682160390932782,5.718875163712351,0.06531328320802002,0,0.05
1757328612.471261,-0.973,-0.006,9.716,0.22682160390932782,5.718875163712351,0.06531328320802002,0,0.05
1757328612.4967937,-0.978,0.004,9.709,0.23203286405162524,5.752122342176362,0.06556390977443609,0,0.05
1757328612.5221562,-0.978,0.004,9.709,0.23203286405162524,5.752122342176362,0.06556390977443609,0,0.05
1757328612.547648,-0.978,0.004,9.709,0.23203286405162524,5.752122342176362,0.06556390977443609,0,0.05
1757328612.5744576,-0.948,-0.007,9.713,0.23682485089196192,5.574629100406563,0.06706766917293233,0,0.05
1757328612.5999093,-0.948,-0.007,9.713,0.23682485089196192,5.574629100406563,0.06706766917293233,0,0.05
1757328612.6258945,-0.932,-0.014,9.705,0.24136604980816997,5.486077454281517,0.06786967418546365,0,0.05
1757328612.6520624,-0.932,-0.014,9.705,0.24136604980816997,5.486077454281517,0.06786967418546365,0,0.05
1757328612.6773353,-0.942,-0.011,9.724,0.24591864508410094,5.533564218729418,0.06837092731829571,0,0.05
1757328612.7031434,-0.942,-0.011,9.724,0.24591864508410094,5.533564218729418,0.06837092731829571,0,0.05
1757328612.728725,-0.958,-0.009,9.723,0.25054019637575126,5.627394929711814,0.06917293233082705,0,0.05
1757328612.7542567,-0.958,-0.009,9.723,0.25054019637575126,5.627394929711814,0.06917293233082705,0,0.05
1757328612.7796853,-0.981,0.002,9.713,0.255296479607534,5.767251991183038,0.07032581453634083,0,0.05
1757328612.8052518,-0.981,0.002,9.713,0.255296479607534,5.767251991183038,0.07032581453634083,0,0.05
1757328612.8311024,-0.986,-0.002,9.739,0.2600130429420801,5.781077278604152,0.07057644110275689,0,0.05
1757328612.856099,-0.986,-0.002,9.739,0.2600130429420801,5.781077278604152,0.07057644110275689,0,0.05
1757328612.8819318,-0.986,-0.001,9.76,0.2646455601365721,5.768713626240179,0.07057644110275688,0,0.05
1757328612.9068189,-0.986,-0.001,9.76,0.2646455601365721,5.768713626240179,0.07057644110275688,0,0.05
1757328612.9316401,-0.96,-0.011,9.752,0.2689633292848674,5.622526128832931,0.0718796992481203,0,0.05
1757328612.9569533,-0.96,-0.011,9.752,0.2689633292848674,5.622526128832931,0.0718796992481203,0,0.05
1757328612.982124,-0.945,-0.01,9.729,0.2730821030386283,5.548174887639427,0.07263157894736841,0,0.05
1757328613.0070562,-0.945,-0.01,9.729,0.2730821030386283,5.548174887639427,0.07263157894736841,0,0.05
1757328613.0320537,-0.945,-0.01,9.729,0.2730821030386283,5.548174887639427,0.07263157894736841,0,0.05
1757328613.0571487,-0.928,-0.014,9.73,0.2769960198270004,5.448728993366448,0.07348370927318294,0,0.05
1757328613.0824687,-0.928,-0.014,9.73,0.2769960198270004,5.448728993366448,0.07348370927318294,0,0.05
1757328613.1074653,-0.92,-0.006,9.715,0.28078959204357984,5.409830012021181,0.07388471177944861,0,0.05
1757328613.1324844,-0.92,-0.006,9.715,0.28078959204357984,5.409830012021181,0.07388471177944861,0,0.05
1757328613.1575592,-0.955,-0.007,9.714,0.2848207462598186,5.6149532174921175,0.07563909774436088,0,0.05
1757328613.1828814,-0.955,-0.007,9.714,0.2848207462598186,5.6149532174921175,0.07563909774436088,0,0.05
1757328613.2080233,-0.975,-0.003,9.711,0.28896266194787174,5.733401717730031,0.07664160401002502,0,0.05
1757328613.23316,-0.975,-0.003,9.711,0.28896266194787174,5.733401717730031,0.07664160401002502,0,0.05
1757328613.2581313,-0.965,-0.004,9.712,0.29296327841557207,5.674424633957147,0.0771428571428571,0,0.05
1757328613.2830548,-0.965,-0.004,9.712,0.29296327841557207,5.674424633957147,0.0771428571428571,0,0.05
1757328613.3081172,-0.961,-0.013,9.733,0.29687755893633994,5.639406624170747,0.07734335839598995,0,0.05
1757328613.33334,-0.961,-0.013,9.733,0.29687755893633994,5.639406624170747,0.07734335839598995,0,0.05
1757328613.3582802,-0.936,-0.01,9.702,0.3005437156222036,5.510866108710186,0.07859649122807014,0,0.05
1757328613.3831263,-0.936,-0.01,9.702,0.3005437156222036,5.510866108710186,0.07859649122807014,0,0.05
1757328613.4080257,-0.936,-0.01,9.702,0.3005437156222036,5.510866108710186,0.07859649122807014,0,0.05
1757328613.4327943,-0.942,-0.011,9.715,0.304211990230497,5.538658664763527,0.0788972431077694,0,0.05
1757328613.4576259,-0.942,-0.011,9.715,0.304211990230497,5.538658664763527,0.0788972431077694,0,0.05
1757328613.4824355,-0.945,-0.023,9.714,0.3078595418368578,5.558014619835512,0.079047619047619,0,0.05
1757328613.5074253,-0.945,-0.023,9.714,0.3078595418368578,5.558014619835512,0.079047619047619,0,0.05
1757328613.5322714,-0.98,0.0,9.718,0.3117346588045673,5.758456348860581,0.08080200501253128,0,0.05
1757328613.557281,-0.98,0.0,9.718,0.3117346588045673,5.758456348860581,0.08080200501253128,0,0.05
1757328613.582363,-1.0,-0.009,9.711,0.3157190166904743,5.879603734394826,0.08180451127819544,0,0.05
1757328613.6075392,-1.0,-0.009,9.711,0.3157190166904743,5.879603734394826,0.08180451127819544,0,0.05
1757328613.632705,-0.995,-0.018,9.722,0.3196147055440347,5.844550984137798,0.08205513784461148,0,0.05
1757328613.6581395,-0.995,-0.018,9.722,0.3196147055440347,5.844550984137798,0.08205513784461148,0,0.05
1757328613.6836991,-1.004,-0.014,9.708,0.3235329967715812,5.905100192322535,0.08250626566416035,0,0.05
1757328613.708943,-1.004,-0.014,9.708,0.3235329967715812,5.905100192322535,0.08250626566416035,0,0.05
1757328613.7341967,-1.004,-0.014,9.708,0.3235329967715812,5.905100192322535,0.08250626566416035,0,0.05
1757328613.759561,-0.952,-0.019,9.711,0.32701584059491673,5.600103477432188,0.08511278195488717,0,0.05
1757328613.7848682,-0.952,-0.019,9.711,0.32701584059491673,5.600103477432188,0.08511278195488717,0,0.05
1757328613.8099918,-0.955,-0.017,9.738,0.33048361910993407,5.601935075241809,0.08526315789473679,0,0.05
1757328613.835436,-0.955,-0.017,9.738,0.33048361910993407,5.601935075241809,0.08526315789473679,0,0.05
1757328613.8610053,-0.968,-0.008,9.733,0.3340089557182561,5.679893280123129,0.0859147869674185,0,0.05
1757328613.8866627,-0.968,-0.008,9.733,0.3340089557182561,5.679893280123129,0.0859147869674185,0,0.05
1757328613.9119382,-0.983,-0.006,9.738,0.3376058426627122,5.764289148046595,0.08666666666666661,0,0.05
1757328613.9373727,-0.983,-0.006,9.738,0.3376058426627122,5.764289148046595,0.08666666666666661,0,0.05
1757328613.9627964,-1.004,0.011,9.747,0.34131765995916474,5.881421255219845,0.087719298245614,0,0.05
1757328613.9880288,-1.004,0.011,9.747,0.34131765995916474,5.881421255219845,0.087719298245614,0,0.05
1757328614.0131586,-0.989,0.003,9.749,0.3448812078092977,5.792654348449693,0.08847117794486209,0,0.05
1757328614.03817,-0.989,0.003,9.749,0.3448812078092977,5.792654348449693,0.08847117794486209,0,0.05
1757328614.063084,-0.982,-0.01,9.746,0.3483588056874693,5.753959352207983,0.08882205513784457,0,0.05
1757328614.088091,-0.982,-0.01,9.746,0.3483588056874693,5.753959352207983,0.08882205513784457,0,0.05
1757328614.1129856,-0.982,-0.01,9.746,0.3483588056874693,5.753959352207983,0.08882205513784457,0,0.05
1757328614.1378536,-0.962,-0.007,9.731,0.3516638558339483,5.646025046607367,0.08982456140350871,0,0.05
1757328614.163156,-0.962,-0.007,9.731,0.3516638558339483,5.646025046607367,0.08982456140350871,0,0.05
1757328614.1881986,-0.94,-0.009,9.72,0.35479073761867,5.524024039172606,0.09092731829573927,0,0.05
1757328614.2131321,-0.94,-0.009,9.72,0.35479073761867,5.524024039172606,0.09092731829573927,0,0.05
1757328614.2381742,-0.929,-0.001,9.714,0.3578184875044888,5.462880296072827,0.09147869674185456,0,0.05
1757328614.26353,-0.929,-0.001,9.714,0.3578184875044888,5.462880296072827,0.09147869674185456,0,0.05
1757328614.288387,-0.947,0.002,9.733,0.36093779588732455,5.557276047253164,0.09238095238095233,0,0.05
1757328614.3133235,-0.947,0.002,9.733,0.36093779588732455,5.557276047253164,0.09238095238095233,0,0.05
1757328614.3382435,-0.978,0.008,9.728,0.36423522962503224,5.741105930601721,0.09393483709273177,0,0.05
1757328614.3631806,-0.978,0.008,9.728,0.36423522962503224,5.741105930601721,0.09393483709273177,0,0.05
1757328614.3881192,-0.976,-0.002,9.717,0.36748978557233397,5.735707685238161,0.09403508771929818,0,0.05
1757328614.413147,-0.976,-0.002,9.717,0.36748978557233397,5.735707685238161,0.09403508771929818,0,0.05
1757328614.4380033,-0.976,-0.002,9.717,0.36748978557233397,5.735707685238161,0.09403508771929818,0,0.05
1757328614.4629154,-0.975,0.014,9.719,0.3707091919550957,5.729273460000401,0.0940852130325814,0,0.05
1757328614.4876838,-0.975,0.014,9.719,0.3707091919550957,5.729273460000401,0.0940852130325814,0,0.05
1757328614.5125487,-0.975,-0.001,9.73,0.37390087924475385,5.722256423105152,0.0940852130325814,0,0.05
1757328614.5374305,-0.975,-0.001,9.73,0.37390087924475385,5.722256423105152,0.0940852130325814,0,0.05
1757328614.562326,-0.946,-0.015,9.705,0.37688082665479283,5.568043570883572,0.09553884711779445,0,0.05
1757328614.5875232,-0.946,-0.015,9.705,0.37688082665479283,5.568043570883572,0.09553884711779445,0,0.05
1757328614.6124685,-0.947,-0.006,9.712,0.37984362571984803,5.5693156684811145,0.09558897243107765,0,0.05
1757328614.6374164,-0.947,-0.006,9.712,0.37984362571984803,5.5693156684811145,0.09558897243107765,0,0.05
1757328614.6627343,-0.957,-0.0,9.713,0.3828456640736577,5.627062285647846,0.09609022556390975,0,0.05
1757328614.6879504,-0.957,-0.0,9.713,0.3828456640736577,5.627062285647846,0.09609022556390975,0,0.05
1757328614.7132964,-0.964,-0.006,9.713,0.3858679080980951,5.668063603933116,0.0964411027568922,0,0.05
1757328614.7407389,-0.964,-0.006,9.713,0.3858679080980951,5.668063603933116,0.0964411027568922,0,0.05
1757328614.7656615,-0.964,-0.006,9.713,0.3858679080980951,5.668063603933116,0.0964411027568922,0,0.05
1757328614.7925863,-0.994,-0.0,9.724,0.389055436281258,5.83657669135734,0.09794486215538845,0,0.05
1757328614.819793,-0.99,0.006,9.729,0.39219176750666246,5.810389473301853,0.09814536340852127,0,0.05
1757328614.8468633,-0.99,0.006,9.729,0.39219176750666246,5.810389473301853,0.09814536340852127,0,0.05
1757328614.8735168,-0.976,-0.003,9.728,0.3952161718604136,5.729280103161397,0.09884711779448617,0,0.05
1757328614.9004009,-0.976,-0.003,9.728,0.3952161718604136,5.729280103161397,0.09884711779448617,0,0.05
1757328614.9272187,-0.943,-0.02,9.719,0.3980187746828031,5.54309705047921,0.10050125313283206,0,0.05
1757328614.95468,-0.943,-0.02,9.719,0.3980187746828031,5.54309705047921,0.10050125313283206,0,0.05
1757328614.982081,-0.937,-0.028,9.741,0.40076659978096973,5.496891649386779,0.10080200501253131,0,0.05
1757328615.0087976,-0.937,-0.028,9.741,0.40076659978096973,5.496891649386779,0.10080200501253131,0,0.05
1757328615.0357046,-0.945,-0.031,9.727,0.4035423521763236,5.5519660491258485,0.10120300751879696,0,0.05
1757328615.0627239,-0.945,-0.031,9.727,0.4035423521763236,5.5519660491258485,0.10120300751879696,0,0.05
1757328615.0897784,-0.827,-0.021,9.75,0.40565533707816537,4.8498080554039635,0.10711779448621549,0,0.05
1757328615.1172059,-0.827,-0.021,9.75,0.40565533707816537,4.8498080554039635,0.10711779448621549,0,0.05
1757328615.1441128,-0.737,-0.115,9.681,0.4073256375432315,4.405918049654796,0.1116290726817042,0,0.05
1757328615.171451,-0.737,-0.115,9.681,0.4073256375432315,4.405918049654796,0.1116290726817042,0,0.05
1757328615.1985078,-0.718,-0.004,9.777,0.40890461601698747,4.2001931812404765,0.11258145363408516,0,0.05
1757328615.2254746,-0.718,-0.004,9.777,0.40890461601698747,4.2001931812404765,0.11258145363408516,0,0.05
1757328615.252138,-0.686,-0.251,9.784,0.41034068162930176,4.269803375596984,0.11418546365914782,0,0.05
1757328615.2790816,-0.686,-0.251,9.784,0.41034068162930176,4.269803375596984,0.11418546365914782,0,0.05
1757328615.3058858,-0.793,-0.378,9.723,0.41225186173018064,5.16271654698273,0.11954887218045109,0,0.05
1757328615.3334117,-0.793,-0.378,9.723,0.41225186173018064,5.16271654698273,0.11954887218045109,0,0.05
1757328615.360183,-0.828,-0.317,9.708,0.4143254246362393,5.218205809961779,0.12130325814536336,0,0.05
1757328615.387028,-0.828,-0.317,9.708,0.4143254246362393,5.218205809961779,0.12130325814536336,0,0.05
1757328615.4142036,-0.98,-0.222,9.757,0.41721284436124445,5.87991022647974,0.12892230576441097,0,0.05
1757328615.4416127,-0.98,-0.222,9.757,0.41721284436124445,5.87991022647974,0.12892230576441097,0,0.05
1757328615.4687603,-0.825,-0.076,9.719,0.419247087050107,4.872382170672411,0.13669172932330823,0,0.05
1757328615.4958818,-0.825,-0.076,9.719,0.419247087050107,4.872382170672411,0.13669172932330823,0,0.05
1757328615.522676,-0.655,-0.169,9.597,0.42052429477974274,4.031863500753379,0.14521303258145357,0,0.05
1757328615.549889,-0.655,-0.169,9.597,0.42052429477974274,4.031863500753379,0.14521303258145357,0,0.05
1757328615.576638,-0.846,-0.205,9.626,0.4226463917981555,5.167226574379156,0.15478696741854628,0,0.05
1757328615.6026704,-0.846,-0.205,9.626,0.4226463917981555,5.167226574379156,0.15478696741854628,0,0.05
1757328615.6294117,-0.809,-0.113,9.669,0.42457764307603385,4.828979204650239,0.156641604010025,0,0.05
1757328615.6566076,-0.809,-0.113,9.669,0.42457764307603385,4.828979204650239,0.156641604010025,0,0.05
1757328615.6834447,-1.045,-0.456,9.628,0.42778059504844296,6.753576544983003,0.16847117794486208,0,0.05
1757328615.7111642,-1.045,-0.456,9.628,0.42778059504844296,6.753576544983003,0.16847117794486208,0,0.05
1757328615.7382832,-0.926,-0.246,9.704,0.43027889502042743,5.638790775361583,0.17443609022556383,0,0.05
1757328615.764943,-0.926,-0.246,9.704,0.43027889502042743,5.638790775361583,0.17443609022556383,0,0.05
1757328615.7917435,-0.853,-0.3,10.067,0.4323874998193171,5.132530638150671,0.17809523809523803,0,0.05
1757328615.8187,-0.853,-0.3,10.067,0.4323874998193171,5.132530638150671,0.17809523809523803,0,0.05
1757328615.8457263,-0.806,-0.184,9.943,0.43426148804608494,4.753068393542189,0.1804511278195488,0,0.05
1757328615.8724084,-0.806,-0.184,9.943,0.43426148804608494,4.753068393542189,0.1804511278195488,0,0.05
1757328615.8991878,-0.889,-0.097,9.895,0.4365304599910526,5.164166828449818,0.18461152882205506,0,0.05
1757328615.9260654,-0.889,-0.097,9.895,0.4365304599910526,5.164166828449818,0.18461152882205506,0,0.05
1757328615.9530847,-0.883,-0.026,10.059,0.4387574101938336,5.018846910950257,0.1849122807017543,0,0.05
1757328615.9806194,-0.883,-0.026,10.059,0.4387574101938336,5.018846910950257,0.1849122807017543,0,0.05
1757328616.0076907,-0.951,-0.107,9.838,0.44132648628877913,5.556018988640145,0.18832080200501247,0,0.05
1757328616.03466,-0.951,-0.107,9.838,0.44132648628877913,5.556018988640145,0.18832080200501247,0,0.05
1757328616.0614176,-1.05,-0.131,9.831,0.4444382043659163,6.143268398993976,0.19328320802005006,0,0.05
1757328616.0884197,-1.05,-0.131,9.831,0.4444382043659163,6.143268398993976,0.19328320802005006,0,0.05
1757328616.1152158,-1.034,-0.238,9.909,0.4474351433448204,6.111837257404843,0.1940852130325814,0,0.05
1757328616.1421654,-1.034,-0.238,9.909,0.4474351433448204,6.111837257404843,0.1940852130325814,0,0.05
1757328616.168882,-0.993,-0.177,9.624,0.4501814411989903,5.983090496274436,0.19614035087719292,0,0.05
1757328616.195893,-0.993,-0.177,9.624,0.4501814411989903,5.983090496274436,0.19614035087719292,0,0.05
1757328616.2225037,-0.967,-0.285,9.672,0.4527704191971909,5.950519854307555,0.1974436090225563,0,0.05
1757328616.2491882,-0.967,-0.285,9.672,0.4527704191971909,5.950519854307555,0.1974436090225563,0,0.05
1757328616.276341,-0.967,-0.285,9.672,0.4527704191971909,5.950519854307555,0.1974436090225563,0,0.05
1757328616.3030512,-0.958,-0.05,9.695,0.45529711453072047,5.650926441550618,0.1978947368421052,0,0.05
1757328616.3300502,-0.958,-0.05,9.695,0.45529711453072047,5.650926441550618,0.1978947368421052,0,0.05
1757328616.3570802,-1.207,-0.116,9.645,0.4592794193081158,7.165583900298467,0.21037593984962402,0,0.05
1757328616.3844774,-1.273,0.396,9.672,0.463668963270133,7.848093292881686,0.21368421052631573,0,0.05
1757328616.4116645,-1.273,0.396,9.672,0.463668963270133,7.848093292881686,0.21368421052631573,0,0.05
1757328616.438772,-1.166,0.379,9.671,0.4673198021697775,7.2251782899022094,0.219047619047619,0,0.05
1757328616.4661686,-1.166,0.379,9.671,0.4673198021697775,7.2251782899022094,0.219047619047619,0,0.05
1757328616.4930186,-1.108,0.054,9.821,0.4705921349746508,6.444437301693182,0.22195488721804504,0,0.05
1757328616.5199094,-1.108,0.054,9.821,0.4705921349746508,6.444437301693182,0.22195488721804504,0,0.05
1757328616.5449152,-1.012,-0.16,9.648,0.4733046772428939,6.061810998646926,0.22676691729323298,0,0.05
1757328616.5712144,-1.012,-0.16,9.648,0.4733046772428939,6.061810998646926,0.22676691729323298,0,0.05
1757328616.5980198,-1.012,-0.16,9.648,0.4733046772428939,6.061810998646926,0.22676691729323298,0,0.05
1757328616.6250877,-1.065,-0.057,9.606,0.47629075153733563,6.335424776060179,0.22942355889724306,0,0.05
1757328616.6529202,-1.042,-0.019,9.746,0.47913180858715687,6.1036402036025965,0.2305764411027568,0,0.05
1757328616.6798203,-1.042,-0.019,9.746,0.47913180858715687,6.1036402036025965,0.2305764411027568,0,0.05
1757328616.706799,-1.042,-0.019,9.746,0.47913180858715687,6.1036402036025965,0.2305764411027568,0,0.05
1757328616.7337701,-0.998,0.082,9.648,0.48172326080437505,5.925495736883098,0.23278195488721792,0,0.05
1757328616.7606308,-0.998,0.082,9.648,0.48172326080437505,5.925495736883098,0.23278195488721792,0,0.05
1757328616.7880921,-1.084,0.054,9.786,0.4847627667220328,6.328687307267752,0.23709273182957383,0,0.05
1757328616.8151374,-1.084,0.054,9.786,0.4847627667220328,6.328687307267752,0.23709273182957383,0,0.05
1757328616.8425262,-0.987,0.101,9.796,0.4872682654349655,5.783285192430168,0.24195488721804498,0,0.05
1757328616.8696113,-0.924,-0.082,9.591,0.48945357542876317,5.524403942740378,0.24511278195488714,0,0.05
1757328616.8966637,-0.924,-0.082,9.591,0.48945357542876317,5.524403942740378,0.24511278195488714,0,0.05
1757328616.923608,-0.915,-0.225,9.667,0.49158708791016875,5.567125015918523,0.24556390977443598,0,0.05
1757328616.9505682,-0.915,-0.225,9.667,0.49158708791016875,5.567125015918523,0.24556390977443598,0,0.05
1757328616.9769044,-0.915,-0.225,9.667,0.49158708791016875,5.567125015918523,0.24556390977443598,0,0.05
1757328617.003857,-0.873,-0.229,9.68,0.4935212128166325,5.3266937995183286,0.24766917293233073,0,0.05
1757328617.0307858,-1.048,-0.305,9.637,0.49629522212086624,6.461745899787993,0.25644110275689214,0,0.05
1757328617.0581067,-1.048,-0.305,9.637,0.49629522212086624,6.461745899787993,0.25644110275689214,0,0.05
1757328617.0848444,-1.037,-0.28,9.928,0.4989963627121945,6.1749616641714935,0.25699248120300744,0,0.05
1757328617.112047,-1.037,-0.28,9.928,0.4989963627121945,6.1749616641714935,0.25699248120300744,0,0.05
1757328617.1388464,-1.037,-0.28,9.928,0.4989963627121945,6.1749616641714935,0.25699248120300744,0,0.05
1757328617.165646,-0.853,0.192,9.666,0.5008157270893158,5.1686438230706955,0.26621553884711774,0,0.05
1757328617.1929088,-0.992,-0.091,9.714,0.503265886485464,5.8551815657439,0.27318295739348364,0,0.05
1757328617.2192464,-0.992,-0.091,9.714,0.503265886485464,5.8551815657439,0.27318295739348364,0,0.05
1757328617.2458422,-0.992,-0.091,9.714,0.503265886485464,5.8551815657439,0.27318295739348364,0,0.05
1757328617.2725906,-0.937,-0.217,9.687,0.505441861147254,5.670179105461022,0.27593984962406004,0,0.05
1757328617.2997468,-0.937,-0.217,9.687,0.505441861147254,5.670179105461022,0.27593984962406004,0,0.05
1757328617.3275964,-1.099,0.038,9.679,0.5084200797568876,6.481731882790349,0.2840601503759398,0,0.05
1757328617.3544989,-1.099,0.038,9.679,0.5084200797568876,6.481731882790349,0.2840601503759398,0,0.05
1757328617.3812978,-1.075,-0.096,9.767,0.511253400966683,6.305744329876963,0.2852631578947368,0,0.05
1757328617.408499,-1.075,-0.096,9.767,0.511253400966683,6.305744329876963,0.2852631578947368,0,0.05
1757328617.4356651,-1.009,-0.086,9.686,0.5137365497022769,5.96851423311007,0.2885714285714285,0,0.05
1757328617.4629395,-1.039,0.122,9.71,0.5163565095939046,6.149226186271055,0.29007518796992476,0,0.05
1757328617.4902055,-1.039,0.122,9.71,0.5163565095939046,6.149226186271055,0.29007518796992476,0,0.05
1757328617.515612,-1.039,0.122,9.71,0.5163565095939046,6.149226186271055,0.29007518796992476,0,0.05
1757328617.5409925,-0.898,0.297,9.72,0.5183049826115894,5.5578751719643,0.29714285714285704,0,0.05
1757328617.5666988,-0.898,0.297,9.72,0.5183049826115894,5.5578751719643,0.29714285714285704,0,0.05
1757328617.5920658,-1.041,0.142,9.599,0.5209119479336215,6.246336058801568,0.3043107769423558,0,0.05
1757328617.6178296,-1.041,0.142,9.599,0.5209119479336215,6.246336058801568,0.3043107769423558,0,0.05
1757328617.6433897,-0.978,0.109,9.644,0.5232021287227336,5.826187694822836,0.3074686716791979,0,0.05
1757328617.6698208,-0.978,0.109,9.644,0.5232021287227336,5.826187694822836,0.3074686716791979,0,0.05
1757328617.6966567,-1.012,0.146,9.645,0.52564325116946,6.051388847514542,0.30917293233082704,0,0.05
1757328617.7233803,-1.012,0.146,9.645,0.52564325116946,6.051388847514542,0.30917293233082704,0,0.05
1757328617.749628,-0.962,0.057,9.642,0.5278394050277034,5.707576014758731,0.3116791979949874,0,0.05
1757328617.7765462,-0.962,0.057,9.642,0.5278394050277034,5.707576014758731,0.3116791979949874,0,0.05
1757328617.802766,-0.97,-0.027,9.644,0.5300629090023183,5.745741587477852,0.31208020050125307,0,0.05
1757328617.8294115,-0.97,-0.027,9.644,0.5300629090023183,5.745741587477852,0.31208020050125307,0,0.05
1757328617.8570175,-0.742,0.269,9.682,0.5313596686802641,4.660325034380938,0.3235087719298245,0,0.05
1757328617.8827825,-0.742,0.269,9.682,0.5313596686802641,4.660325034380938,0.3235087719298245,0,0.05
1757328617.9085543,-0.919,0.113,9.72,0.5333427603333526,5.441540531352779,0.3323809523809524,0,0.05
1757328617.9364185,-0.919,0.113,9.72,0.5333427603333526,5.441540531352779,0.3323809523809524,0,0.05
1757328617.9634945,-0.684,0.1,9.669,0.5344381535781292,4.089321791854912,0.3441604010025062,0,0.05
1757328617.9909267,-0.684,0.1,9.669,0.5344381535781292,4.089321791854912,0.3441604010025062,0,0.05
1757328618.017822,-0.921,0.172,9.392,0.5364184397464352,5.696840471634276,0.3560401002506265,0,0.05
1757328618.0450215,-0.921,0.172,9.392,0.5364184397464352,5.696840471634276,0.3560401002506265,0,0.05
1757328618.0720518,-1.082,0.009,9.582,0.5391396410022176,6.4427733932012705,0.364110275689223,0,0.05
1757328618.0991886,-1.082,0.009,9.582,0.5391396410022176,6.4427733932012705,0.364110275689223,0,0.05
1757328618.126141,-0.998,-0.061,9.666,0.5414439606275058,5.905739117268823,0.3683208020050125,0,0.05
1757328618.1532276,-0.998,-0.061,9.666,0.5414439606275058,5.905739117268823,0.3683208020050125,0,0.05
1757328618.1801019,-0.954,0.041,9.635,0.5435410311098878,5.659839884708587,0.37052631578947365,0,0.05
1757328618.2071736,-0.954,0.041,9.635,0.5435410311098878,5.659839884708587,0.37052631578947365,0,0.05
1757328618.2343588,-0.939,0.094,9.612,0.5455649869630564,5.607252717256853,0.37127819548872176,0,0.05
1757328618.2615767,-0.939,0.094,9.612,0.5455649869630564,5.607252717256853,0.37127819548872176,0,0.05
1757328618.2883866,-0.908,0.294,9.585,0.5474507420763991,5.6863904033498525,0.3728320802005012,0,0.05
1757328618.3154306,-0.908,0.294,9.585,0.5474507420763991,5.6863904033498525,0.3728320802005012,0,0.05
1757328618.3425484,-0.971,0.231,9.619,0.5495993245083185,5.923999041470075,0.37598997493734326,0,0.05
1757328618.3697093,-0.971,0.231,9.619,0.5495993245083185,5.923999041470075,0.37598997493734326,0,0.05
1757328618.396662,-1.102,0.171,9.658,0.5523544401016435,6.5866499468675235,0.3825563909774436,0,0.05
1757328618.4239392,-1.102,0.171,9.658,0.5523544401016435,6.5866499468675235,0.3825563909774436,0,0.05
1757328618.4510822,-1.057,0.005,9.809,0.5548770584552942,6.1504249237817685,0.38481203007518794,0,0.05
1757328618.4783423,-1.057,0.005,9.809,0.5548770584552942,6.1504249237817685,0.38481203007518794,0,0.05
1757328618.5055907,-1.231,0.125,9.803,0.558280352958977,7.193805722184332,0.3935338345864661,0,0.05
1757328618.533707,-1.231,0.125,9.803,0.558280352958977,7.193805722184332,0.3935338345864661,0,0.05
1757328618.560742,-0.735,0.63,9.366,0.5594886191872003,5.901030307713926,0.4183959899749373,0,0.05
1757328618.5881233,-0.735,0.63,9.366,0.5594886191872003,5.901030307713926,0.4183959899749373,0,0.05
1757328618.615095,-0.735,0.63,9.366,0.5594886191872003,5.901030307713926,0.4183959899749373,0,0.05
1757328618.6421907,-0.884,0.273,9.669,0.5612318193046435,5.465802318161077,0.42586466165413533,0,0.05
1757328618.6694732,-0.721,0.21,9.529,0.5623884400483353,4.506044364842336,0.4340350877192983,0,0.05
1757328618.696856,-0.721,0.21,9.529,0.5623884400483353,4.506044364842336,0.4340350877192983,0,0.05
1757328618.7240572,-1.054,0.446,9.567,0.5648522351022434,6.8217482984459465,0.45072681704260636,0,0.05
1757328618.7514932,-1.054,0.446,9.567,0.5648522351022434,6.8217482984459465,0.45072681704260636,0,0.05
1757328618.7787123,-1.026,0.32,9.705,0.5671769895720383,6.3192624540498965,0.45213032581453627,0,0.05
1757328618.8060443,-1.026,0.32,9.705,0.5671769895720383,6.3192624540498965,0.45213032581453627,0,0.05
1757328618.8328817,-0.976,0.244,9.652,0.5692724984574611,5.9505104350319975,0.4546365914786966,0,0.05
1757328618.8595762,-0.976,0.244,9.652,0.5692724984574611,5.9505104350319975,0.4546365914786966,0,0.05
1757328618.8864384,-0.855,0.389,9.74,0.5708754154804707,5.508610950611152,0.4607017543859648,0,0.05
1757328618.9139047,-0.855,0.389,9.74,0.5708754154804707,5.508610950611152,0.4607017543859648,0,0.05
1757328618.9411035,-0.968,0.234,9.883,0.5729234678384191,5.754107800646722,0.46636591478696726,0,0.05
1757328618.9688141,-0.968,0.234,9.883,0.5729234678384191,5.754107800646722,0.46636591478696726,0,0.05
1757328618.995672,-0.973,0.311,9.773,0.5749853237257452,5.9670057643999925,0.4666165413533833,0,0.05
1757328619.0226014,-0.973,0.311,9.773,0.5749853237257452,5.9670057643999925,0.4666165413533833,0,0.05
1757328619.0498514,-0.903,0.388,9.659,0.5767552730578195,5.810002353826272,0.4701253132832079,0,0.05
1757328619.076874,-0.903,0.388,9.659,0.5767552730578195,5.810002353826272,0.4701253132832079,0,0.05
1757328619.1025698,-1.0,0.29,9.803,0.5789185132641727,6.062798361015645,0.47498746867167907,0,0.05
1757328619.129848,-1.0,0.29,9.803,0.5789185132641727,6.062798361015645,0.47498746867167907,0,0.05
1757328619.1572645,-0.832,0.321,9.838,0.5804112378305575,5.179483710879056,0.483408521303258,0,0.05
1757328619.1843834,-0.832,0.321,9.838,0.5804112378305575,5.179483710879056,0.483408521303258,0,0.05
1757328619.2121332,-1.176,0.305,9.663,0.5833820746303403,7.166071486793885,0.5006516290726816,0,0.05
1757328619.2391894,-1.176,0.305,9.663,0.5833820746303403,7.166071486793885,0.5006516290726816,0,0.05
1757328619.2659476,-1.011,-0.031,9.796,0.585568055395784,5.895121643496223,0.5089223057644109,0,0.05
1757328619.2930639,-1.011,-0.031,9.796,0.585568055395784,5.895121643496223,0.5089223057644109,0,0.05
1757328619.319983,-1.087,0.087,9.809,0.5880849173376239,6.343579549279318,0.5127318295739348,0,0.05
1757328619.3467934,-1.087,0.087,9.809,0.5880849173376239,6.343579549279318,0.5127318295739348,0,0.05
1757328619.3736627,-0.877,0.104,9.469,0.5897174683693879,5.328389413358145,0.5232581453634085,0,0.05
1757328619.4008586,-0.877,0.104,9.469,0.5897174683693879,5.328389413358145,0.5232581453634085,0,0.05
1757328619.4284077,-1.005,0.222,9.685,0.5918545049249857,6.066069782659602,0.5296741854636592,0,0.05
1757328619.455599,-1.005,0.222,9.685,0.5918545049249857,6.066069782659602,0.5296741854636592,0,0.05
1757328619.482636,-0.755,0.119,9.73,0.5930571789465161,4.491531628925333,0.5422055137844611,0,0.05
1757328619.509844,-0.755,0.119,9.73,0.5930571789465161,4.491531628925333,0.5422055137844611,0,0.05
1757328619.5367508,-0.563,0.1,9.609,0.5937248857846537,3.4055391133604824,0.551829573934837,0,0.05
1757328619.563851,-0.563,0.1,9.609,0.5937248857846537,3.4055391133604824,0.551829573934837,0,0.05
1757328619.5906498,-0.719,0.025,9.793,0.5948122750078381,4.2016383288214945,0.5596491228070175,0,0.05
1757328619.6178439,-0.719,0.025,9.793,0.5948122750078381,4.2016383288214945,0.5596491228070175,0,0.05
1757328619.644864,-0.844,0.049,9.688,0.5963073725017995,4.987269659401214,0.5659147869674185,0,0.05
1757328619.6720448,-0.844,0.049,9.688,0.5963073725017995,4.987269659401214,0.5659147869674185,0,0.05
1757328619.6988466,-0.854,-0.051,9.666,0.5978342349681891,5.057973416388968,0.5664160401002505,0,0.05
1757328619.726009,-0.854,-0.051,9.666,0.5978342349681891,5.057973416388968,0.5664160401002505,0,0.05
1757328619.7527916,-1.153,0.167,9.838,0.6006074383488769,6.753602834352455,0.5814035087719297,0,0.05
1757328619.779744,-1.153,0.167,9.838,0.6006074383488769,6.753602834352455,0.5814035087719297,0,0.05
1757328619.8070462,-1.233,0.052,9.827,0.6037632131059327,7.157856943211425,0.5854135338345864,0,0.05
1757328619.8341105,-1.233,0.052,9.827,0.6037632131059327,7.157856943211425,0.5854135338345864,0,0.05
1757328619.860958,-1.147,-0.135,9.758,0.6064808653205804,6.749895215036712,0.5897243107769422,0,0.05
1757328619.8883677,-1.147,-0.135,9.758,0.6064808653205804,6.749895215036712,0.5897243107769422,0,0.05
1757328619.9152446,-0.695,0.026,9.678,0.6074755982753546,4.110357304721745,0.6123809523809521,0,0.05
1757328619.942455,-0.695,0.026,9.678,0.6074755982753546,4.110357304721745,0.6123809523809521,0,0.05
1757328619.9698434,-1.05,-0.015,9.88,0.609739987617673,6.06697041761469,0.630175438596491,0,0.05
1757328619.9969728,-1.05,-0.015,9.88,0.609739987617673,6.06697041761469,0.630175438596491,0,0.05
1757328620.0239315,-0.961,-0.048,9.828,0.6116303254417655,5.591651224107036,0.6346365914786966,0,0.05
1757328620.0510802,-0.961,-0.048,9.828,0.6116303254417655,5.591651224107036,0.6346365914786966,0,0.05
1757328620.0779197,-0.87,-0.242,9.811,0.6131752645043667,5.258838170689218,0.6391979949874684,0,0.05
1757328620.105044,-0.87,-0.242,9.811,0.6131752645043667,5.258838170689218,0.6391979949874684,0,0.05
1757328620.131884,-1.025,-0.065,9.844,0.6153133084047508,5.956318749024497,0.6469674185463657,0,0.05
1757328620.1591408,-1.025,-0.065,9.844,0.6153133084047508,5.956318749024497,0.6469674185463657,0,0.05
1757328620.186915,-0.91,-0.168,9.735,0.6169932880510127,5.4300366808522,0.6527318295739347,0,0.05
1757328620.2137218,-0.91,-0.168,9.735,0.6169932880510127,5.4300366808522,0.6527318295739347,0,0.05
1757328620.2406,-0.686,0.046,9.672,0.617945958397658,4.066068899755643,0.6639598997493733,0,0.05
1757328620.2680924,-0.686,0.046,9.672,0.617945958397658,4.066068899755643,0.6639598997493733,0,0.05
1757328620.2951107,-0.711,-0.082,9.678,0.6189676970569628,4.229470814021925,0.6652130325814535,0,0.05
1757328620.3221993,-0.711,-0.082,9.678,0.6189676970569628,4.229470814021925,0.6652130325814535,0,0.05
1757328620.3489552,-0.762,-0.045,9.772,0.620139194052432,4.4665185024680545,0.6677694235588971,0,0.05
1757328620.3760204,-0.762,-0.045,9.772,0.620139194052432,4.4665185024680545,0.6677694235588971,0,0.05
1757328620.4031632,-0.752,-0.221,9.815,0.6212780215008414,4.565810010381576,0.6682706766917292,0,0.05
1757328620.4307077,-0.752,-0.221,9.815,0.6212780215008414,4.565810010381576,0.6682706766917292,0,0.05
1757328620.4575608,-0.72,0.153,9.794,0.6223201587607459,4.298034962286892,0.669874686716792,0,0.05
1757328620.4845264,-0.72,0.153,9.794,0.6223201587607459,4.298034962286892,0.669874686716792,0,0.05
1757328620.511523,-0.697,-0.161,9.873,0.623295196917159,4.144151957178703,0.6710275689223058,0,0.05
1757328620.538552,-0.697,-0.161,9.873,0.623295196917159,4.144151957178703,0.6710275689223058,0,0.05
1757328620.5655198,-1.048,-0.23,9.9,0.6254939348227128,6.185457107382712,0.6886215538847118,0,0.05
1757328620.592773,-1.048,-0.23,9.9,0.6254939348227128,6.185457107382712,0.6886215538847118,0,0.05
1757328620.6203258,-1.138,-0.139,9.894,0.628076645402454,6.609615702678304,0.6931328320802005,0,0.05
1757328620.6476607,-1.138,-0.139,9.894,0.628076645402454,6.609615702678304,0.6931328320802005,0,0.05
1757328620.6748466,-0.83,-0.213,9.886,0.629446203022943,4.953880520673056,0.7085714285714286,0,0.05
1757328620.7022233,-0.915,-0.27,9.789,0.6311066352051766,5.566285788218734,0.7128320802005013,0,0.05
1757328620.7294476,-0.915,-0.27,9.789,0.6311066352051766,5.566285788218734,0.7128320802005013,0,0.05
1757328620.7564936,-0.915,-0.27,9.789,0.6311066352051766,5.566285788218734,0.7128320802005013,0,0.05
1757328620.7836795,-0.934,-0.166,9.827,0.6328321064863887,5.5138898471710425,0.7137844611528821,0,0.05
1757328620.810893,-0.979,-0.262,9.771,0.6347224413080098,5.921567121499512,0.7160401002506266,0,0.05
1757328620.838132,-0.979,-0.262,9.771,0.6347224413080098,5.921567121499512,0.7160401002506266,0,0.05
1757328620.8653424,-0.979,-0.262,9.771,0.6347224413080098,5.921567121499512,0.7160401002506266,0,0.05
1757328620.892458,-0.713,-0.053,9.814,0.6357228169572019,4.166737062116456,0.7293734335839599,0,0.05
1757328620.9197614,-0.713,-0.053,9.814,0.6357228169572019,4.166737062116456,0.7293734335839599,0,0.05
1757328620.9467587,-0.798,-0.116,9.873,0.6369737121734302,4.669324687635736,0.7336340852130325,0,0.05
1757328620.974027,-0.798,-0.116,9.873,0.6369737121734302,4.669324687635736,0.7336340852130325,0,0.05
1757328621.0010097,-0.693,-0.044,9.824,0.6379154587404197,4.043145946118755,0.7388972431077693,0,0.05
1757328621.0281274,-0.643,-0.073,9.793,0.6387251012759715,3.7806620421471293,0.7414035087719296,0,0.05
1757328621.0552697,-0.643,-0.073,9.793,0.6387251012759715,3.7806620421471293,0.7414035087719296,0,0.05
1757328621.082549,-0.61,-0.121,9.823,0.6394528950595189,3.622508210664023,0.7430576441102756,0,0.05
1757328621.1099694,-0.61,-0.121,9.823,0.6394528950595189,3.622508210664023,0.7430576441102756,0,0.05
1757328621.1370986,-0.37,-0.109,9.844,0.6397204506657576,2.2438956091392575,0.7550877192982456,0,0.05
1757328621.16465,-0.37,-0.109,9.844,0.6397204506657576,2.2438956091392575,0.7550877192982456,0,0.05
1757328621.1921153,-0.557,0.128,9.747,0.6403263835732524,3.355712306810442,0.7644611528822055,0,0.05
1757328621.2191901,-0.557,0.128,9.747,0.6403263835732524,3.355712306810442,0.7644611528822055,0,0.05
1757328621.2463684,-0.406,0.11,9.708,0.6406480839743455,2.4810150953039525,0.7720300751879698,0,0.05
1757328621.2739742,-0.406,0.11,9.708,0.6406480839743455,2.4810150953039525,0.7720300751879698,0,0.05
1757328621.3010218,-0.533,-0.17,9.807,0.6412021444131327,3.264980186925034,0.7783959899749374,0,0.05
1757328621.3286383,-0.533,-0.17,9.807,0.6412021444131327,3.264980186925034,0.7783959899749374,0,0.05
1757328621.356107,-0.702,0.058,9.767,0.6421621290608781,4.125005731463097,0.7868671679197995,0,0.05
1757328621.3836365,-0.702,0.058,9.767,0.6421621290608781,4.125005731463097,0.7868671679197995,0,0.05
1757328621.4112515,-0.904,-0.143,9.909,0.6437509145624571,5.277126579415025,0.7969924812030077,0,0.05
1757328621.4390326,-0.904,-0.143,9.909,0.6437509145624571,5.277126579415025,0.7969924812030077,0,0.05
1757328621.466702,-0.64,-0.129,9.845,0.6445457625335845,3.7940155215820113,0.8102255639097744,0,0.05
1757328621.4941912,-0.64,-0.129,9.845,0.6445457625335845,3.7940155215820113,0.8102255639097744,0,0.05
1757328621.521389,-0.785,-0.105,9.832,0.6457397327871346,4.60536858739798,0.8174937343358396,0,0.05
1757328621.548849,-0.785,-0.105,9.832,0.6457397327871346,4.60536858739798,0.8174937343358396,0,0.05
1757328621.5758684,-0.791,-0.217,9.75,0.6469497700749263,4.808724914279231,0.8177944862155387,0,0.05
1757328621.6026409,-0.791,-0.217,9.75,0.6469497700749263,4.808724914279231,0.8177944862155387,0,0.05
1757328621.6298952,-0.64,-0.141,9.757,0.6477406927158429,3.8426115731135,0.8253634085213031,0,0.05
1757328621.6574643,-0.64,-0.141,9.757,0.6477406927158429,3.8426115731135,0.8253634085213031,0,0.05
1757328621.6848793,-0.724,-0.178,9.68,0.6487514508654297,4.404264719205963,0.8295739348370926,0,0.05
1757328621.7126558,-0.724,-0.178,9.68,0.6487514508654297,4.404264719205963,0.8295739348370926,0,0.05
1757328621.7405565,-0.766,-0.055,9.806,0.649881016032935,4.478066834509859,0.8316791979949872,0,0.05
1757328621.7678595,-0.766,-0.055,9.806,0.649881016032935,4.478066834509859,0.8316791979949872,0,0.05
1757328621.7948043,-0.734,-0.126,9.844,0.6509164500917148,4.3264030404733305,0.8332832080200502,0,0.05
1757328621.8212464,-0.734,-0.126,9.844,0.6509164500917148,4.3264030404733305,0.8332832080200502,0,0.05
1757328621.848488,-0.792,-0.182,9.783,0.6521199161197272,4.748476013063892,0.8361904761904762,0,0.05
1757328621.8757942,-0.792,-0.182,9.783,0.6521199161197272,4.748476013063892,0.8361904761904762,0,0.05
1757328621.9028397,-0.616,-0.079,9.808,0.6528468618290204,3.623146406041009,0.8450125313283208,0,0.05
1757328621.9307063,-0.616,-0.079,9.808,0.6528468618290204,3.623146406041009,0.8450125313283208,0,0.05
1757328621.9578211,-0.52,0.044,9.804,0.6533643891428427,3.04692800127236,0.8498245614035087,0,0.05
1757328621.9852047,-0.52,0.044,9.804,0.6533643891428427,3.04692800127236,0.8498245614035087,0,0.05
1757328622.013125,-0.423,0.01,9.84,0.6537066218878312,2.462191191269754,0.8546867167919799,0,0.05
1757328622.040434,-0.423,0.01,9.84,0.6537066218878312,2.462191191269754,0.8546867167919799,0,0.05
1757328622.0676894,-0.606,0.232,9.815,0.6544084638052903,3.7824463357554796,0.863859649122807,0,0.05
1757328622.095527,-0.606,0.232,9.815,0.6544084638052903,3.7824463357554796,0.863859649122807,0,0.05
1757328622.1225417,-0.455,0.194,9.742,0.6548037874050516,2.9065922103752446,0.8714285714285716,0,0.05
1757328622.1494453,-0.455,0.194,9.742,0.6548037874050516,2.9065922103752446,0.8714285714285716,0,0.05
1757328622.1770353,-0.473,-0.054,9.937,0.6552307398924443,2.7428904864369765,0.8723308270676691,0,0.05
1757328622.2049785,-0.473,-0.054,9.937,0.6552307398924443,2.7428904864369765,0.8723308270676691,0,0.05
1757328622.2320476,-0.775,-0.126,9.827,0.6563755670346056,4.568219246476345,0.8874686716791981,0,0.05
1757328622.259721,-0.775,-0.126,9.827,0.6563755670346056,4.568219246476345,0.8874686716791981,0,0.05
1757328622.2871828,-0.931,-0.271,9.74,0.6580241541919263,5.685198961711932,0.8952882205513787,0,0.05
1757328622.3147209,-0.931,-0.271,9.74,0.6580241541919263,5.685198961711932,0.8952882205513787,0,0.05
1757328622.3419325,-0.765,-0.277,9.856,0.6591349254894631,4.7190248158782975,0.9036090225563912,0,0.05
1757328622.3692634,-0.765,-0.277,9.856,0.6591349254894631,4.7190248158782975,0.9036090225563912,0,0.05
1757328622.3964329,-0.818,-0.233,9.83,0.6604026499038295,4.945178654340323,0.9062656641604011,0,0.05
1757328622.4236557,-0.818,-0.233,9.83,0.6604026499038295,4.945178654340323,0.9062656641604011,0,0.05
1757328622.450663,-0.818,-0.233,9.83,0.6604026499038295,4.945178654340323,0.9062656641604011,0,0.05
1757328622.4778464,-0.886,-0.215,9.79,0.6618868105650694,5.320438098564548,0.9096741854636592,0,0.05
1757328622.5042357,-0.932,-0.274,9.673,0.6635252142910621,5.734884703058717,0.911979949874687,0,0.05
1757328622.5304902,-0.932,-0.274,9.673,0.6635252142910621,5.734884703058717,0.911979949874687,0,0.05
1757328622.556228,-0.675,-0.274,9.725,0.6643830013629186,4.283981745233243,0.9248621553884713,0,0.05
1757328622.582338,-0.675,-0.274,9.725,0.6643830013629186,4.283981745233243,0.9248621553884713,0,0.05
1757328622.6086283,-0.607,-0.198,9.635,0.6650758565757744,3.791244070137515,0.9282706766917295,0,0.05
1757328622.634543,-0.607,-0.198,9.635,0.6650758565757744,3.791244070137515,0.9282706766917295,0,0.05
1757328622.6601338,-0.544,0.004,9.513,0.6656318314203431,3.272977515588111,0.9314285714285715,0,0.05
1757328622.6870914,-0.544,0.004,9.513,0.6656318314203431,3.272977515588111,0.9314285714285715,0,0.05
1757328622.7147424,-0.487,0.106,9.573,0.6660770657363906,2.980319345354363,0.9342857142857142,0,0.05
1757328622.7414055,-0.487,0.106,9.573,0.6660770657363906,2.980319345354363,0.9342857142857142,0,0.05
1757328622.7689025,-0.556,0.012,9.644,0.6666569563876161,3.3003549285415676,0.9377443609022557,0,0.05
1757328622.795109,-0.556,0.012,9.644,0.6666569563876161,3.3003549285415676,0.9377443609022557,0,0.05
1757328622.8219857,-0.68,-0.001,9.534,0.667523405956675,4.079642011073684,0.9439598997493734,0,0.05
1757328622.849699,-0.68,-0.001,9.534,0.667523405956675,4.079642011073684,0.9439598997493734,0,0.05
1757328622.8757598,-0.613,-0.014,9.707,0.6682266980598724,3.6143873185691247,0.9473182957393482,0,0.05
1757328622.9023967,-0.613,-0.014,9.707,0.6682266980598724,3.6143873185691247,0.9473182957393482,0,0.05
1757328622.928024,-0.565,-0.201,9.918,0.6688235809987564,3.4601557680725654,0.9497243107769422,0,0.05
1757328622.955775,-0.565,-0.201,9.918,0.6688235809987564,3.4601557680725654,0.9497243107769422,0,0.05
1757328622.9829013,-0.642,0.182,9.78,0.6695934531489985,3.903297749684481,0.9535839598997494,0,0.05
1757328623.0103555,-0.642,0.182,9.78,0.6695934531489985,3.903297749684481,0.9535839598997494,0,0.05
1757328623.0373478,-0.54,0.175,9.768,0.6701375922152106,3.3258941391355323,0.9586967418546365,0,0.05
1757328623.0651882,-0.54,0.175,9.768,0.6701375922152106,3.3258941391355323,0.9586967418546365,0,0.05
1757328623.092159,-0.513,0.019,9.815,0.6706282986871341,2.994000112649411,0.9600501253132833,0,0.05
1757328623.118869,-0.513,0.019,9.815,0.6706282986871341,2.994000112649411,0.9600501253132833,0,0.05
1757328623.1463768,-0.581,0.131,9.706,0.6712571917678052,3.5114153394525824,0.9634586466165416,0,0.05
1757328623.1735344,-0.581,0.131,9.706,0.6712571917678052,3.5114153394525824,0.9634586466165416,0,0.05
1757328623.2013,-0.615,0.084,9.671,0.6719611447100197,3.6723558857418275,0.9651629072681707,0,0.05
1757328623.2299473,-0.615,0.084,9.671,0.6719611447100197,3.6723558857418275,0.9651629072681707,0,0.05
1757328623.2570305,-0.527,0.008,9.793,0.6724775851283075,3.0806951527706055,0.9695739348370928,0,0.05
1757328623.2845955,-0.527,0.008,9.793,0.6724775851283075,3.0806951527706055,0.9695739348370928,0,0.05
1757328623.3120701,-0.637,0.306,9.831,0.6732314052389416,4.111544701935934,0.9750877192982458,0,0.05
1757328623.339166,-0.637,0.306,9.831,0.6732314052389416,4.111544701935934,0.9750877192982458,0,0.05
1757328623.3665056,-0.541,0.153,9.925,0.6737746117953688,3.24215378533285,0.9798997493734335,0,0.05
1757328623.3939095,-0.541,0.153,9.925,0.6737746117953688,3.24215378533285,0.9798997493734335,0,0.05
1757328623.4211528,-0.54,0.078,9.883,0.6743153768823607,3.1598826873507515,0.9799498746867169,0,0.05
1757328623.4482205,-0.54,0.078,9.883,0.6743153768823607,3.1598826873507515,0.9799498746867169,0,0.05
1757328623.4757144,-0.534,0.227,9.758,0.6748437726614953,3.4030051692719416,0.9802506265664159,0,0.05
1757328623.503747,-0.534,0.227,9.758,0.6748437726614953,3.4030051692719416,0.9802506265664159,0,0.05
1757328623.5311282,-0.651,0.079,9.746,0.6756283149779915,3.8494397094018193,0.9861152882205513,0,0.05
1757328623.558853,-0.651,0.079,9.746,0.6756283149779915,3.8494397094018193,0.9861152882205513,0,0.05
1757328623.5865426,-0.466,-0.005,9.766,0.6760299623537407,2.732042825690057,0.9953884711779446,0,0.05
1757328623.6140425,-0.466,-0.005,9.766,0.6760299623537407,2.732042825690057,0.9953884711779446,0,0.05
1757328623.6412456,-0.551,0.223,9.712,0.6765910969706888,3.502376339531267,0.9996491228070175,0,0.05
1757328623.6680248,-0.551,0.223,9.712,0.6765910969706888,3.502376339531267,0.9996491228070175,0,0.05
1757328623.6950016,-0.338,0.38,9.647,0.676802129503151,3.0177253634967633,1.0103258145363407,0,0.05
1757328623.7230322,-0.338,0.38,9.647,0.676802129503151,3.0177253634967633,1.0103258145363407,0,0.05
1757328623.7504072,-0.359,0.121,9.823,0.6770401206723277,2.2086278363188447,1.011378446115288,0,0.05
1757328623.7777095,-0.359,0.121,9.823,0.6770401206723277,2.2086278363188447,1.011378446115288,0,0.05
1757328623.8048718,-0.372,0.141,9.672,0.6772955669425277,2.3553423990397357,1.0120300751879696,0,0.05
1757328623.8323739,-0.372,0.141,9.672,0.6772955669425277,2.3553423990397357,1.0120300751879696,0,0.05
1757328623.859735,-0.516,0.046,9.79,0.6777867843208512,3.0290307246595356,1.0192481203007517,0,0.05
1757328623.8872495,-0.516,0.046,9.79,0.6777867843208512,3.0290307246595356,1.0192481203007517,0,0.05
1757328623.9144232,-0.427,0.09,9.623,0.6781229589831036,2.5964577344701145,1.0237092731829571,0,0.05
1757328623.941529,-0.427,0.09,9.623,0.6781229589831036,2.5964577344701145,1.0237092731829571,0,0.05
1757328623.9688666,-0.385,-0.097,9.576,0.6783961305903801,2.3741861882875166,1.025814536340852,0,0.05
1757328623.9963439,-0.385,-0.097,9.576,0.6783961305903801,2.3741861882875166,1.025814536340852,0,0.05
1757328624.0239186,-0.633,0.029,9.678,0.679134031322242,3.746075850090148,1.0382456140350873,0,0.05
1757328624.0513282,-0.568,0.137,9.721,0.6797275869787837,3.439670322571442,1.0415037593984962,0,0.05
1757328624.078854,-0.568,0.137,9.721,0.6797275869787837,3.439670322571442,1.0415037593984962,0,0.05
1757328624.106116,-0.506,-0.013,9.753,0.6801982670516001,2.9709048600372108,1.044611528822055,0,0.05
1757328624.1334412,-0.506,-0.013,9.753,0.6801982670516001,2.9709048600372108,1.044611528822055,0,0.05
1757328624.1605875,-0.506,-0.013,9.753,0.6801982670516001,2.9709048600372108,1.044611528822055,0,0.05
1757328624.1875927,-0.419,0.122,9.749,0.6805208189320882,2.563052633072527,1.0489724310776942,0,0.05
1757328624.2149813,-0.457,0.114,9.823,0.680904330651524,2.74517990062871,1.050877192982456,0,0.05
1757328624.2424936,-0.457,0.114,9.823,0.680904330651524,2.74517990062871,1.050877192982456,0,0.05
1757328624.2699075,-0.322,0.021,9.761,0.6810946465066364,1.8934231963076935,1.0576441102756888,0,0.05
1757328624.297711,-0.322,0.021,9.761,0.6810946465066364,1.8934231963076935,1.0576441102756888,0,0.05
1757328624.3253756,-0.606,0.258,9.655,0.6817682945840178,3.9024990988877186,1.07187969924812,0,0.05
1757328624.3531554,-0.606,0.258,9.655,0.6817682945840178,3.9024990988877186,1.07187969924812,0,0.05
1757328624.380615,-0.42,0.213,9.711,0.6820916415702512,2.7763167124221635,1.081203007518797,0,0.05
1757328624.408125,-0.42,0.213,9.711,0.6820916415702512,2.7763167124221635,1.081203007518797,0,0.05
1757328624.4354253,-0.456,0.234,9.754,0.6824725983510254,3.0079047024683865,1.0830075187969925,0,0.05
1757328624.462588,-0.456,0.234,9.754,0.6824725983510254,3.0079047024683865,1.0830075187969925,0,0.05
1757328624.489132,-0.444,0.217,9.833,0.6828335723293049,2.8771757348017144,1.083609022556391,0,0.05
1757328624.51604,-0.444,0.217,9.833,0.6828335723293049,2.8771757348017144,1.083609022556391,0,0.05
1757328624.5438821,-0.863,0.161,9.791,0.684195593379554,5.123605117258897,1.1046115288220553,0,0.05
1757328624.5712998,-0.863,0.161,9.791,0.684195593379554,5.123605117258897,1.1046115288220553,0,0.05
1757328624.5993185,-0.472,0.163,9.773,0.6846024905008745,2.924990906309883,1.1242105263157895,0,0.05
1757328624.6266742,-0.472,0.163,9.773,0.6846024905008745,2.924990906309883,1.1242105263157895,0,0.05
1757328624.6537864,-0.519,0.071,9.725,0.6850941340429065,3.083238814847139,1.1265664160401003,0,0.05
1757328624.6811426,-0.519,0.071,9.725,0.6850941340429065,3.083238814847139,1.1265664160401003,0,0.05
1757328624.707615,-0.679,0.314,9.909,0.6859348183318879,4.317406475456165,1.1345864661654133,0,0.05
1757328624.7346017,-0.679,0.314,9.909,0.6859348183318879,4.317406475456165,1.1345864661654133,0,0.05
1757328624.7616136,-0.404,0.11,9.844,0.6862321873826672,2.4355671372227268,1.1483709273182958,0,0.05
1757328624.788812,-0.404,0.11,9.844,0.6862321873826672,2.4355671372227268,1.1483709273182958,0,0.05
1757328624.815918,-0.615,0.112,9.794,0.6869207941968274,3.65202615962003,1.1589473684210525,0,0.05
1757328624.8440378,-0.615,0.112,9.794,0.6869207941968274,3.65202615962003,1.1589473684210525,0,0.05
1757328624.8712866,-0.681,0.236,9.789,0.687764189239306,4.210912181480874,1.1622556390977443,0,0.05
1757328624.8988907,-0.681,0.236,9.789,0.687764189239306,4.210912181480874,1.1622556390977443,0,0.05
1757328624.925969,-0.573,0.008,9.948,0.6883606630974782,3.2968873656385145,1.1676691729323305,0,0.05
1757328624.953452,-0.573,0.008,9.948,0.6883606630974782,3.2968873656385145,1.1676691729323305,0,0.05
1757328624.980767,-0.6,-0.13,9.756,0.689014080044813,3.600738967802154,1.1690225563909775,0,0.05
1757328625.0079837,-0.6,-0.13,9.756,0.689014080044813,3.600738967802154,1.1690225563909775,0,0.05
1757328625.0354068,-0.783,0.062,9.87,0.6901254414959646,4.549987496613734,1.1781954887218045,0,0.05
1757328625.0628989,-0.783,0.062,9.87,0.6901254414959646,4.549987496613734,1.1781954887218045,0,0.05
1757328625.0899577,-0.463,-0.126,9.961,0.6905136113792399,2.757904380401572,1.194235588972431,0,0.05
1757328625.1176703,-0.463,-0.126,9.961,0.6905136113792399,2.757904380401572,1.194235588972431,0,0.05
1757328625.1447935,-0.469,-0.007,10.067,0.6909116803181142,2.6676558290773618,1.1945363408521303,0,0.05
1757328625.172034,-0.469,-0.007,10.067,0.6909116803181142,2.6676558290773618,1.1945363408521303,0,0.05
1757328625.1991463,-0.537,-0.102,9.979,0.6914332017628312,3.135252384813822,1.1979448621553885,0,0.05
1757328625.2264543,-0.537,-0.102,9.979,0.6914332017628312,3.135252384813822,1.1979448621553885,0,0.05
1757328625.2536259,-0.867,0.002,9.845,0.6927908017576445,5.032782922591636,1.2144862155388474,0,0.05
1757328625.2808812,-0.867,0.002,9.845,0.6927908017576445,5.032782922591636,1.2144862155388474,0,0.05
1757328625.3081164,-0.819,-0.127,9.725,0.6939999981988473,4.871116385510428,1.2168922305764411,0,0.05
1757328625.3355484,-0.819,-0.127,9.725,0.6939999981988473,4.871116385510428,1.2168922305764411,0,0.05
1757328625.3629422,-0.847,-0.279,9.798,0.6952909606776145,5.200464289021934,1.2182957393483709,0,0.05
1757328625.3909588,-0.847,-0.279,9.798,0.6952909606776145,5.200464289021934,1.2182957393483709,0,0.05
1757328625.418232,-0.754,0.045,9.941,0.6963122934431073,4.345125212225971,1.2229573934837092,0,0.05
1757328625.4466696,-0.754,0.045,9.941,0.6963122934431073,4.345125212225971,1.2229573934837092,0,0.05
1757328625.4739368,-0.717,-0.257,9.711,0.6972345606035317,4.48472826147827,1.2248120300751881,0,0.05
1757328625.5011704,-0.717,-0.257,9.711,0.6972345606035317,4.48472826147827,1.2248120300751881,0,0.05
1757328625.5287578,-0.598,0.021,9.616,0.6978753774851209,3.560716328116051,1.2307769423558896,0,0.05
1757328625.5566845,-0.598,0.021,9.616,0.6978753774851209,3.560716328116051,1.2307769423558896,0,0.05
1757328625.5846424,-0.493,0.268,9.787,0.6983105791837898,3.2814481741505808,1.2360401002506267,0,0.05
1757328625.6121957,-0.493,0.268,9.787,0.6983105791837898,3.2814481741505808,1.2360401002506267,0,0.05
1757328625.639592,-0.294,0.23,9.873,0.6984652854652119,2.165201706239395,1.246015037593985,0,0.05
1757328625.6669805,-0.294,0.23,9.873,0.6984652854652119,2.165201706239395,1.246015037593985,0,0.05
1757328625.6947138,-0.283,0.296,9.708,0.6986086010778854,2.415507923769647,1.2465664160401002,0,0.05
1757328625.7220688,-0.283,0.296,9.708,0.6986086010778854,2.415507923769647,1.2465664160401002,0,0.05
1757328625.7496288,-0.674,0.194,9.743,0.6994209515735141,4.117419702692204,1.2661654135338347,0,0.05
1757328625.777041,-0.674,0.194,9.743,0.6994209515735141,4.117419702692204,1.2661654135338347,0,0.05
1757328625.8041651,-0.473,-0.007,9.836,0.6998206841755965,2.7534569887276104,1.2762406015037595,0,0.05
1757328625.8299587,-0.473,-0.007,9.836,0.6998206841755965,2.7534569887276104,1.2762406015037595,0,0.05
1757328625.8571486,-0.408,0.102,9.673,0.7001179543476942,2.489503002778237,1.279498746867168,0,0.05
1757328625.8842363,-0.408,0.102,9.673,0.7001179543476942,2.489503002778237,1.279498746867168,0,0.05
1757328625.911453,-0.442,0.097,9.639,0.700466673011643,2.68786989648435,1.281203007518797,0,0.05
1757328625.9385662,-0.442,0.097,9.639,0.700466673011643,2.68786989648435,1.281203007518797,0,0.05
1757328625.9656775,-0.556,0.105,9.688,0.7010181167416432,3.3425632252465856,1.2869172932330828,0,0.05
1757328625.993011,-0.556,0.105,9.688,0.7010181167416432,3.3425632252465856,1.2869172932330828,0,0.05
1757328626.0204918,-0.43,-0.088,9.816,0.7013477382867931,2.560216209050882,1.2932330827067668,0,0.05
1757328626.0476685,-0.43,-0.088,9.816,0.7013477382867931,2.560216209050882,1.2932330827067668,0,0.05
1757328626.0747783,-0.492,0.297,9.567,0.7017790321746582,3.4376513775672364,1.2963408521303255,0,0.05
1757328626.1017363,-0.492,0.297,9.567,0.7017790321746582,3.4376513775672364,1.2963408521303255,0,0.05
1757328626.128883,-0.245,0.278,9.605,0.7018859398078864,2.2093241704155955,1.3087218045112783,0,0.05
1757328626.1563797,-0.245,0.278,9.605,0.7018859398078864,2.2093241704155955,1.3087218045112783,0,0.05
1757328626.184134,-0.241,0.08,9.781,0.7019893695776311,1.4871600533863936,1.308922305764411,0,0.05
1757328626.212447,-0.306,-0.07,9.58,0.7021560830755509,1.876718921285601,1.3121804511278197,0,0.05
1757328626.2398899,-0.306,-0.07,9.58,0.7021560830755509,1.876718921285601,1.3121804511278197,0,0.05
1757328626.2670481,-0.663,0.063,9.637,0.7029381818481623,3.9532679134971143,1.3300751879699249,0,0.05
1757328626.2947028,-0.663,0.063,9.637,0.7029381818481623,3.9532679134971143,1.3300751879699249,0,0.05
1757328626.3226097,-0.397,-0.104,9.825,0.7032183942417889,2.391888655066797,1.343408521303258,0,0.05
1757328626.3502991,-0.397,-0.104,9.825,0.7032183942417889,2.391888655066797,1.343408521303258,0,0.05
1757328626.3775234,-0.542,-0.016,9.644,0.7037403782645983,3.218080112193223,1.3506766917293231,0,0.05
1757328626.4049013,-0.542,-0.016,9.644,0.7037403782645983,3.218080112193223,1.3506766917293231,0,0.05
1757328626.4320078,-0.602,-0.048,9.71,0.7043837945324978,3.5589100147339376,1.3536842105263156,0,0.05
1757328626.4593313,-0.602,-0.048,9.71,0.7043837945324978,3.5589100147339376,1.3536842105263156,0,0.05
1757328626.4866073,-0.478,0.093,9.837,0.7047891457734008,2.83401130955435,1.3598997493734337,0,0.05
1757328626.514018,-0.478,0.093,9.837,0.7047891457734008,2.83401130955435,1.3598997493734337,0,0.05
1757328626.541139,-0.468,-0.044,9.537,0.7051774953867997,2.821735913265648,1.3604010025062656,0,0.05
1757328626.5684197,-0.468,-0.044,9.537,0.7051774953867997,2.821735913265648,1.3604010025062656,0,0.05
1757328626.5949285,-0.431,-0.004,9.643,0.7055066991177333,2.559278020452139,1.3622556390977443,0,0.05
1757328626.6222157,-0.431,-0.004,9.643,0.7055066991177333,2.559278020452139,1.3622556390977443,0,0.05
1757328626.6494384,-0.752,-0.035,9.855,0.7065079351995984,4.3682864173263924,1.3783458646616542,0,0.05
1757328626.6768825,-0.752,-0.035,9.855,0.7065079351995984,4.3682864173263924,1.3783458646616542,0,0.05
1757328626.7042258,-0.54,-0.122,9.732,0.7070236647383169,3.255791894277028,1.388972431077694,0,0.05
1757328626.732131,-0.54,-0.122,9.732,0.7070236647383169,3.255791894277028,1.388972431077694,0,0.05
1757328626.759892,-0.523,0.114,9.436,0.7075070918372479,3.246764249547754,1.3898245614035087,0,0.05
1757328626.7876658,-0.523,0.114,9.436,0.7075070918372479,3.246764249547754,1.3898245614035087,0,0.05
1757328626.8152733,-0.526,-0.174,9.835,0.7079957450437114,3.22422052955354,1.3899749373433585,0,0.05
1757328626.8426533,-0.526,-0.174,9.835,0.7079957450437114,3.22422052955354,1.3899749373433585,0,0.05
1757328626.8700085,-0.544,-0.178,9.66,0.7085180414075565,3.3909643849462388,1.3908771929824562,0,0.05
1757328626.8974996,-0.544,-0.178,9.66,0.7085180414075565,3.3909643849462388,1.3908771929824562,0,0.05
1757328626.9248183,-0.934,-0.043,9.445,0.710055423893093,5.653464387855361,1.4104260651629072,0,0.05
1757328626.9520357,-0.934,-0.043,9.445,0.710055423893093,5.653464387855361,1.4104260651629072,0,0.05
1757328626.979511,-0.541,-0.228,9.52,0.710570480318455,3.5288617500426467,1.4301253132832081,0,0.05
1757328627.0070653,-0.541,-0.228,9.52,0.710570480318455,3.5288617500426467,1.4301253132832081,0,0.05
1757328627.03451,-0.639,0.158,9.521,0.7112884154827772,3.9549079374097675,1.4350375939849622,0,0.05
1757328627.0618849,-0.639,0.158,9.521,0.7112884154827772,3.9549079374097675,1.4350375939849622,0,0.05
1757328627.0892053,-0.805,-0.117,9.421,0.7124263277701071,4.934975128260889,1.443358395989975,0,0.05
1757328627.1165085,-0.805,-0.117,9.421,0.7124263277701071,4.934975128260889,1.443358395989975,0,0.05
1757328627.1437535,-0.825,-0.033,9.576,0.7136195309827219,4.927956242060339,1.444360902255639,0,0.05
1757328627.1708927,-0.825,-0.033,9.576,0.7136195309827219,4.927956242060339,1.444360902255639,0,0.05
1757328627.197943,-0.609,0.029,9.74,0.7142688831945572,3.5818428974686145,1.455187969924812,0,0.05
1757328627.2252781,-0.609,0.029,9.74,0.7142688831945572,3.5818428974686145,1.455187969924812,0,0.05
1757328627.2524529,-0.636,0.111,9.635,0.7149764174432608,3.833494979096067,1.4565413533834586,0,0.05
1757328627.2795827,-0.636,0.111,9.635,0.7149764174432608,3.833494979096067,1.4565413533834586,0,0.05
1757328627.307152,-0.54,0.318,9.657,0.7154860428408091,3.712920089257553,1.4613533834586467,0,0.05
1757328627.334471,-0.54,0.318,9.657,0.7154860428408091,3.712920089257553,1.4613533834586467,0,0.05
1757328627.3616638,-0.431,0.199,9.82,0.7158105056507622,2.767664965203834,1.4668170426065164,0,0.05
1757328627.3891366,-0.431,0.199,9.82,0.7158105056507622,2.767664965203834,1.4668170426065164,0,0.05
1757328627.4164233,-0.457,0.307,9.668,0.7161751199951029,3.2591830435663125,1.4681203007518797,0,0.05
1757328627.4430742,-0.457,0.307,9.668,0.7161751199951029,3.2591830435663125,1.4681203007518797,0,0.05
1757328627.4694388,-0.385,0.235,9.637,0.7164337827043055,2.679740817196036,1.4717293233082707,0,0.05
1757328627.4981322,-0.385,0.235,9.637,0.7164337827043055,2.679740817196036,1.4717293233082707,0,0.05
1757328627.5242171,-0.498,0.266,9.807,0.7168663578380562,3.2948774055966847,1.477393483709273,0,0.05
1757328627.5513422,-0.498,0.266,9.807,0.7168663578380562,3.2948774055966847,1.477393483709273,0,0.05
1757328627.5778363,-0.498,0.266,9.807,0.7168663578380562,3.2948774055966847,1.477393483709273,0,0.05
1757328627.6045072,-0.604,0.114,9.691,0.717502205571523,3.6291970730526626,1.482706766917293,0,0.05
1757328627.6304774,-0.782,-0.015,9.768,0.7185667853442712,4.5780235196376795,1.491629072681704,0,0.05
1757328627.6569111,-0.782,-0.015,9.768,0.7185667853442712,4.5780235196376795,1.491629072681704,0,0.05
1757328627.6829875,-0.632,-0.105,9.826,0.7192612772838531,3.7304496989502085,1.4991478696741853,0,0.05
1757328627.7092886,-0.632,-0.105,9.826,0.7192612772838531,3.7304496989502085,1.4991478696741853,0,0.05
1757328627.7367945,-0.839,0.017,9.699,0.7204835789245998,4.9450030160198875,1.5095238095238097,0,0.05
1757328627.7646542,-0.839,0.017,9.699,0.7204835789245998,4.9450030160198875,1.5095238095238097,0,0.05
1757328627.790931,-0.672,0.075,9.606,0.7212666271913598,4.026444195733791,1.5178947368421052,0,0.05
1757328627.8171546,-0.672,0.075,9.606,0.7212666271913598,4.026444195733791,1.5178947368421052,0,0.05
1757328627.845404,-0.586,-0.001,9.801,0.7218615085319344,3.421635801940008,1.5222055137844612,0,0.05
1757328627.8710554,-0.586,-0.001,9.801,0.7218615085319344,3.421635801940008,1.5222055137844612,0,0.05
1757328627.897093,-0.452,0.121,9.716,0.7222152016539115,2.7571933582867647,1.5289223057644112,0,0.05
1757328627.923703,-0.452,0.121,9.716,0.7222152016539115,2.7571933582867647,1.5289223057644112,0,0.05
1757328627.9518557,-0.374,0.198,9.697,0.7224572565211038,2.498810417319969,1.5328320802005013,0,0.05
1757328627.9798646,-0.374,0.198,9.697,0.7224572565211038,2.498810417319969,1.5328320802005013,0,0.05
1757328628.0075927,-0.402,0.096,9.814,0.7227368106717686,2.41151176530579,1.5342355889724313,0,0.05
1757328628.0355837,-0.402,0.096,9.814,0.7227368106717686,2.41151176530579,1.5342355889724313,0,0.05
1757328628.063206,-0.424,0.215,9.831,0.7230476730479117,2.76848352972595,1.5353383458646617,0,0.05
1757328628.090885,-0.424,0.215,9.831,0.7230476730479117,2.76848352972595,1.5353383458646617,0,0.05
1757328628.1179252,-0.444,0.18,9.784,0.723388400169646,2.8033984703567176,1.536340852130326,0,0.05
1757328628.1454499,-0.444,0.18,9.784,0.723388400169646,2.8033984703567176,1.536340852130326,0,0.05
1757328628.1730158,-0.533,0.133,9.666,0.7238791335575298,3.2527650992960764,1.5408020050125313,0,0.05
1757328628.2004716,-0.533,0.133,9.666,0.7238791335575298,3.2527650992960764,1.5408020050125313,0,0.05
1757328628.2280178,-0.826,-0.292,9.793,0.7250563357422649,5.112140577736994,1.555488721804511,0,0.05
1757328628.2559304,-0.826,-0.292,9.793,0.7250563357422649,5.112140577736994,1.555488721804511,0,0.05
1757328628.2834165,-0.723,-0.121,9.672,0.7259569632560873,4.3342457913979,1.5606516290726817,0,0.05
1757328628.3107545,-0.723,-0.121,9.672,0.7259569632560873,4.3342457913979,1.5606516290726817,0,0.05
1757328628.3381057,-0.767,-0.081,9.713,0.7269692118652619,4.540071432059924,1.5628571428571427,0,0.05
1757328628.3656244,-0.767,-0.081,9.713,0.7269692118652619,4.540071432059924,1.5628571428571427,0,0.05
1757328628.3933692,-0.753,-0.117,9.794,0.7279435125749799,4.44901230515304,1.5635588972431078,0,0.05
1757328628.4212117,-0.753,-0.117,9.794,0.7279435125749799,4.44901230515304,1.5635588972431078,0,0.05
1757328628.4485197,-1.071,-0.03,9.585,0.7299105150633193,6.378097969181671,1.579498746867168,0,0.05
1757328628.4759078,-1.071,-0.03,9.585,0.7299105150633193,6.378097969181671,1.579498746867168,0,0.05
1757328628.5029974,-0.71,-0.04,9.853,0.7307732958996244,4.128081285626044,1.5975939849624061,0,0.05
1757328628.5307145,-0.71,-0.04,9.853,0.7307732958996244,4.128081285626044,1.5975939849624061,0,0.05
1757328628.5580382,-0.99,0.065,9.923,0.7324478547992341,5.70963009320952,1.6116290726817042,0,0.05
1757328628.585922,-0.99,0.065,9.923,0.7324478547992341,5.70963009320952,1.6116290726817042,0,0.05
1757328628.6133394,-0.573,-0.079,9.604,0.7330079689198474,3.446590592176284,1.632531328320802,0,0.05
1757328628.6408184,-0.573,-0.079,9.604,0.7330079689198474,3.446590592176284,1.632531328320802,0,0.05
1757328628.6678183,-0.47,0.209,9.855,0.73338457339925,2.987799300140958,1.6376942355889725,0,0.05
1757328628.6943884,-0.47,0.209,9.855,0.73338457339925,2.987799300140958,1.6376942355889725,0,0.05
1757328628.7219267,-0.547,0.128,9.724,0.7338943759152267,3.306426628460976,1.6415538847117794,0,0.05
1757328628.7494664,-0.547,0.128,9.724,0.7338943759152267,3.306426628460976,1.6415538847117794,0,0.05
1757328628.7766473,-0.47,-0.029,9.697,0.7342705257600907,2.7801434740905395,1.6454135338345868,0,0.05
1757328628.8044827,-0.47,-0.029,9.697,0.7342705257600907,2.7801434740905395,1.6454135338345868,0,0.05
1757328628.8318567,-0.655,0.128,9.784,0.7350005221086581,3.9022353315349627,1.65468671679198,0,0.05
1757328628.860169,-0.655,0.128,9.784,0.7350005221086581,3.9022353315349627,1.65468671679198,0,0.05
1757328628.887648,-0.794,-0.092,9.782,0.736071910549506,4.671406029731376,1.661654135338346,0,0.05
1757328628.9148068,-0.692,-0.15,9.778,0.7368846704200054,4.141825163324065,1.666766917293233,0,0.05
1757328628.9422731,-0.692,-0.15,9.778,0.7368846704200054,4.141825163324065,1.666766917293233,0,0.05
1757328628.9690742,-0.845,0.005,9.754,0.7380948990475412,4.9513225516547035,1.674436090225564,0,0.05
1757328628.9959629,-0.845,0.005,9.754,0.7380948990475412,4.9513225516547035,1.674436090225564,0,0.05
1757328629.0230308,-0.925,-0.151,9.582,0.7395425224420837,5.586499263472225,1.6784461152882206,0,0.05
1757328629.050529,-0.925,-0.151,9.582,0.7395425224420837,5.586499263472225,1.6784461152882206,0,0.05
1757328629.0779252,-1.272,-0.203,9.717,0.7422722563183943,7.551168721297541,1.695839598997494,0,0.05
1757328629.10563,-1.272,-0.203,9.717,0.7422722563183943,7.551168721297541,1.695839598997494,0,0.05
1757328629.1328943,-0.636,-0.083,9.8,0.7429531226800248,3.7445689711480385,1.727719298245614,0,0.05
1757328629.1612833,-0.636,-0.083,9.8,0.7429531226800248,3.7445689711480385,1.727719298245614,0,0.05
1757328629.188653,-0.697,-0.143,9.965,0.7437700350242674,4.08408585871359,1.7307769423558896,0,0.05
1757328629.2160656,-0.697,-0.143,9.965,0.7437700350242674,4.08408585871359,1.7307769423558896,0,0.05
1757328629.2437012,-0.445,0.186,9.934,0.7441027667600759,2.7795983234767685,1.7434085213032584,0,0.05
1757328629.2712295,-0.445,0.186,9.934,0.7441027667600759,2.7795983234767685,1.7434085213032584,0,0.05
1757328629.2984824,-0.502,0.237,9.81,0.7445259817494619,3.2388287486512644,1.7462656641604015,0,0.05
1757328629.3260784,-0.502,0.237,9.81,0.7445259817494619,3.2388287486512644,1.7462656641604015,0,0.05
1757328629.3532813,-0.455,0.174,9.867,0.7448734791895869,2.8264077072509157,1.7486215538847119,0,0.05
1757328629.3805993,-0.455,0.174,9.867,0.7448734791895869,2.8264077072509157,1.7486215538847119,0,0.05
1757328629.4085376,-0.46,-0.158,9.969,0.7452284884516962,2.7931941524636548,1.748872180451128,0,0.05
1757328629.43612,-0.46,-0.158,9.969,0.7452284884516962,2.7931941524636548,1.748872180451128,0,0.05
1757328629.4634957,-0.57,-0.081,9.851,0.7457732564258389,3.344758742792206,1.7543859649122806,0,0.05
1757328629.490745,-0.57,-0.081,9.851,0.7457732564258389,3.344758742792206,1.7543859649122806,0,0.05
1757328629.5180109,-0.881,-0.065,9.791,0.7470730570031286,5.155561637736387,1.7699749373433584,0,0.05
1757328629.5456522,-0.881,-0.065,9.791,0.7470730570031286,5.155561637736387,1.7699749373433584,0,0.05
1757328629.5730646,-0.831,-0.251,9.911,0.7482276090869676,5.005618568743077,1.7724812030075188,0,0.05
1757328629.6005323,-0.831,-0.251,9.911,0.7482276090869676,5.005618568743077,1.7724812030075188,0,0.05
1757328629.627929,-0.758,-0.015,9.794,0.7491868692122147,4.426408971158508,1.776140350877193,0,0.05
1757328629.6555986,-0.758,-0.015,9.794,0.7491868692122147,4.426408971158508,1.776140350877193,0,0.05
1757328629.682837,-0.822,-0.129,9.738,0.7503133845267589,4.883759837855938,1.7793483709273181,0,0.05
1757328629.7100964,-0.822,-0.129,9.738,0.7503133845267589,4.883759837855938,1.7793483709273181,0,0.05
1757328629.7374966,-0.661,-0.222,9.873,0.7510409293107799,4.0398262197360175,1.7874185463659147,0,0.05
1757328629.765205,-0.661,-0.222,9.873,0.7510409293107799,4.0398262197360175,1.7874185463659147,0,0.05
1757328629.7925582,-0.768,-0.107,9.861,0.7520219661020547,4.496191191141849,1.7927819548872177,0,0.05
1757328629.8199544,-0.768,-0.107,9.861,0.7520219661020547,4.496191191141849,1.7927819548872177,0,0.05
1757328629.8472848,-0.484,-0.066,9.738,0.752411242273798,2.8716739966869524,1.8070175438596487,0,0.05
1757328629.875054,-0.484,-0.066,9.738,0.752411242273798,2.8716739966869524,1.8070175438596487,0,0.05
1757328629.9023948,-0.565,0.0,9.875,0.7529413921415132,3.2746187777793034,1.8110776942355886,0,0.05
1757328629.9297023,-0.565,0.0,9.875,0.7529413921415132,3.2746187777793034,1.8110776942355886,0,0.05
1757328629.9570277,-0.7,0.004,9.693,0.753754429506056,4.13062941820748,1.8178446115288218,0,0.05
1757328629.9853022,-0.7,0.004,9.693,0.753754429506056,4.13062941820748,1.8178446115288218,0,0.05
1757328630.0126276,-0.674,-0.019,9.762,0.7545074088436774,3.9511817183411955,1.819147869674185,0,0.05
1757328630.0400493,-0.674,-0.019,9.762,0.7545074088436774,3.9511817183411955,1.819147869674185,0,0.05
1757328630.0675602,-0.721,-0.068,9.926,0.7553681436888903,4.172898154123309,1.821503759398496,0,0.05
1757328630.0950334,-0.721,-0.068,9.926,0.7553681436888903,4.172898154123309,1.821503759398496,0,0.05
1757328630.122499,-0.721,-0.068,9.926,0.7553681436888903,4.172898154123309,1.821503759398496,0,0.05
1757328630.1498103,-0.656,-0.158,9.746,0.756079937903394,3.960523276899482,1.8247619047619046,0,0.05
1757328630.1771889,-0.386,-0.067,9.716,0.7563262275632123,2.309047620494466,1.8382957393483708,0,0.05
1757328630.2049882,-0.386,-0.067,9.716,0.7563262275632123,2.309047620494466,1.8382957393483708,0,0.05
1757328630.2323613,-0.468,0.256,9.713,0.7566881276325141,3.1435479756456286,1.8424060150375936,0,0.05
1757328630.2597268,-0.468,0.256,9.713,0.7566881276325141,3.1435479756456286,1.8424060150375936,0,0.05
1757328630.2871065,-0.442,0.133,9.649,0.7570107875717492,2.7387551545222575,1.843709273182957,0,0.05
1757328630.3145938,-0.442,0.133,9.649,0.7570107875717492,2.7387551545222575,1.843709273182957,0,0.05
1757328630.3420753,-0.563,0.211,9.661,0.757533995936816,3.5611392232811134,1.8497744360902255,0,0.05
1757328630.3697698,-0.563,0.211,9.661,0.757533995936816,3.5611392232811134,1.8497744360902255,0,0.05
1757328630.3972964,-0.608,0.044,9.56,0.7581437297768807,3.6485056539056795,1.85203007518797,0,0.05
1757328630.4243872,-0.68,0.189,9.592,0.7589057352530681,4.208225144509162,1.8556390977443609,0,0.05
1757328630.4519882,-0.68,0.189,9.592,0.7589057352530681,4.208225144509162,1.8556390977443609,0,0.05
1757328630.4795792,-0.798,-0.0,9.552,0.7599538966279467,4.775555352666675,1.8615538847117794,0,0.05
1757328630.50719,-0.798,-0.0,9.552,0.7599538966279467,4.775555352666675,1.8615538847117794,0,0.05
1757328630.5346253,-0.519,-0.031,9.525,0.7603968223894678,3.124406733894955,1.8755388471177943,0,0.05
1757328630.5621645,-0.519,-0.031,9.525,0.7603968223894678,3.124406733894955,1.8755388471177943,0,0.05
1757328630.5897386,-0.757,0.122,9.736,0.761338262535123,4.503088541833733,1.8874686716791977,0,0.05
1757328630.617358,-0.757,0.122,9.736,0.761338262535123,4.503088541833733,1.8874686716791977,0,0.05
1757328630.6447575,-0.594,0.174,9.626,0.7619173445984807,3.6791049529880864,1.8956390977443607,0,0.05
1757328630.6718185,-0.594,0.174,9.626,0.7619173445984807,3.6791049529880864,1.8956390977443607,0,0.05
1757328630.697387,-0.652,0.139,9.453,0.7626144504269506,4.0339803563463565,1.898546365914787,0,0.05
1757328630.7247124,-0.652,0.139,9.453,0.7626144504269506,4.0339803563463565,1.898546365914787,0,0.05
1757328630.752459,-0.496,-0.034,9.837,0.7630175882638617,2.893278441379858,1.9063659147869672,0,0.05
1757328630.7801876,-0.496,-0.034,9.837,0.7630175882638617,2.893278441379858,1.9063659147869672,0,0.05
1757328630.8077734,-0.5,0.045,9.781,0.7634270364612455,2.938192565088367,1.9065664160401004,0,0.05
1757328630.8353894,-0.5,0.045,9.781,0.7634270364612455,2.938192565088367,1.9065664160401004,0,0.05
1757328630.8628297,-0.557,0.101,9.754,0.7639348548796554,3.321491427486936,1.9094235588972428,0,0.05
1757328630.8902986,-0.557,0.101,9.754,0.7639348548796554,3.321491427486936,1.9094235588972428,0,0.05
1757328630.917655,-0.507,0.248,9.903,0.7643553394855039,3.261948745178902,1.9119298245614034,0,0.05
1757328630.9451714,-0.507,0.248,9.903,0.7643553394855039,3.261948745178902,1.9119298245614034,0,0.05
1757328630.9725292,-0.744,0.265,9.677,0.7652600375035926,4.665836321108784,1.9238095238095236,0,0.05
1757328631.0013425,-0.744,0.265,9.677,0.7652600375035926,4.665836321108784,1.9238095238095236,0,0.05
1757328631.028609,-0.523,0.094,9.692,0.7657066980900715,3.13819601360583,1.9348872180451127,0,0.05
1757328631.056104,-0.523,0.094,9.692,0.7657066980900715,3.13819601360583,1.9348872180451127,0,0.05
1757328631.0835767,-0.472,0.09,9.871,0.7660703019305735,2.7868636386018824,1.9374436090225562,0,0.05
1757328631.11165,-0.472,0.09,9.871,0.7660703019305735,2.7868636386018824,1.9374436090225562,0,0.05
1757328631.1402612,-0.517,0.243,9.767,0.7665063143901686,3.3473472622762492,1.9396992481203008,0,0.05
1757328631.1678,-0.517,0.243,9.767,0.7665063143901686,3.3473472622762492,1.9396992481203008,0,0.05
1757328631.1952794,-0.592,0.146,9.792,0.7670776297090146,3.563148031326934,1.9434586466165416,0,0.05
1757328631.2227519,-0.592,0.146,9.792,0.7670776297090146,3.563148031326934,1.9434586466165416,0,0.05
1757328631.2497559,-0.477,0.088,9.907,0.7674483125917992,2.8029790865155624,1.9492230576441103,0,0.05
1757328631.2771916,-0.477,0.088,9.907,0.7674483125917992,2.8029790865155624,1.9492230576441103,0,0.05
1757328631.3045404,-0.526,0.172,9.818,0.7678988230880419,3.226156486792983,1.9516791979949872,0,0.05
1757328631.332012,-0.526,0.172,9.818,0.7678988230880419,3.226156486792983,1.9516791979949872,0,0.05
1757328631.3597243,-0.559,0.131,9.709,0.768407317117686,3.384261605294083,1.9533333333333336,0,0.05
1757328631.387055,-0.559,0.131,9.709,0.768407317117686,3.384261605294083,1.9533333333333336,0,0.05
1757328631.4151042,-0.559,0.131,9.709,0.768407317117686,3.384261605294083,1.9533333333333336,0,0.05
1757328631.4426017,-0.44,-0.026,9.771,0.7687221897408711,2.5828481527148135,1.959298245614035,0,0.05
1757328631.4702451,-0.53,0.074,9.857,0.7691788186111211,3.107563712428729,1.963809523809524,0,0.05
1757328631.4978817,-0.53,0.074,9.857,0.7691788186111211,3.107563712428729,1.963809523809524,0,0.05
1757328631.5254493,-0.513,0.019,9.691,0.7696063782869786,3.0322384324881906,1.9646616541353386,0,0.05
1757328631.5512424,-0.513,0.019,9.691,0.7696063782869786,3.0322384324881906,1.9646616541353386,0,0.05
1757328631.5787208,-0.671,0.396,9.774,0.7703373157260396,4.557720002388089,1.9725814536340853,0,0.05
1757328631.6067312,-0.671,0.396,9.774,0.7703373157260396,4.557720002388089,1.9725814536340853,0,0.05
1757328631.6351473,-0.273,0.151,9.817,0.7704582418924467,1.8202081953802913,1.992531328320802,0,0.05
1757328631.6612108,-0.273,0.151,9.817,0.7704582418924467,1.8202081953802913,1.992531328320802,0,0.05
1757328631.688787,-0.747,0.366,9.802,0.7713630306152869,4.850769494051252,2.0162907268170427,0,0.05
1757328631.71637,-0.747,0.366,9.802,0.7713630306152869,4.850769494051252,2.0162907268170427,0,0.05
1757328631.743591,-0.438,0.15,9.647,0.7716738527383185,2.747596364817102,2.031779448621554,0,0.05
1757328631.7700188,-0.438,0.15,9.647,0.7716738527383185,2.747596364817102,2.031779448621554,0,0.05
1757328631.7968013,-0.692,0.169,9.786,0.7724491536664404,4.16330334303994,2.044511278195489,0,0.05
1757328631.824425,-0.692,0.169,9.786,0.7724491536664404,4.16330334303994,2.044511278195489,0,0.05
1757328631.8519177,-0.545,0.069,9.744,0.7729296588306079,3.226824878005907,2.0518796992481203,0,0.05
1757328631.8796277,-0.545,0.069,9.744,0.7729296588306079,3.226824878005907,2.0518796992481203,0,0.05
1757328631.9070508,-0.52,-0.049,9.733,0.7733668324281822,3.0717263484713824,2.0531328320802005,0,0.05
1757328631.9356058,-0.555,0.12,9.802,0.7738645359492835,3.3154095800594066,2.0548872180451125,0,0.05
1757328631.9630964,-0.555,0.12,9.802,0.7738645359492835,3.3154095800594066,2.0548872180451125,0,0.05
1757328631.9904962,-0.622,0.129,9.782,0.7744892058640973,3.7155304109395084,2.0582456140350875,0,0.05
1757328632.0179794,-0.622,0.129,9.782,0.7744892058640973,3.7155304109395084,2.0582456140350875,0,0.05
1757328632.0454693,-0.622,0.129,9.782,0.7744892058640973,3.7155304109395084,2.0582456140350875,0,0.05
1757328632.0729196,-0.434,0.125,9.676,0.7747931465881717,2.6724311718824536,2.0676691729323307,0,0.05
1757328632.1006021,-0.527,0.091,9.674,0.7752410866949713,3.164210197608782,2.072330827067669,0,0.05
1757328632.1280015,-0.527,0.091,9.674,0.7752410866949713,3.164210197608782,2.072330827067669,0,0.05
1757328632.155492,-0.62,0.09,9.706,0.7758606463147876,3.6931769517263375,2.0769924812030074,0,0.05
1757328632.1830585,-0.62,0.09,9.706,0.7758606463147876,3.6931769517263375,2.0769924812030074,0,0.05
1757328632.2105749,-0.627,0.0,9.645,0.7764937636581507,3.719437633302595,2.0773433583959897,0,0.05
1757328632.2390132,-0.627,0.0,9.645,0.7764937636581507,3.719437633302595,2.0773433583959897,0,0.05
1757328632.2665634,-0.608,-0.07,9.788,0.7770886210722686,3.5778873719533175,2.0782957393483708,0,0.05
1757328632.2940528,-0.608,-0.07,9.788,0.7770886210722686,3.5778873719533175,2.0782957393483708,0,0.05
1757328632.3214698,-0.64,0.144,9.823,0.777747211502555,3.8206560617647547,2.0798997493734332,0,0.05
1757328632.34908,-0.64,0.144,9.823,0.777747211502555,3.8206560617647547,2.0798997493734332,0,0.05
1757328632.3767495,-0.638,0.133,9.672,0.7784011401584661,3.854857804185175,2.08,0,0.05
1757328632.4041402,-0.638,0.133,9.672,0.7784011401584661,3.854857804185175,2.08,0,0.05
1757328632.4315894,-0.661,-0.11,9.719,0.7791024563560303,3.9440974297083433,2.081152882205514,0,0.05
1757328632.459017,-0.661,-0.11,9.719,0.7791024563560303,3.9440974297083433,2.081152882205514,0,0.05
1757328632.4865987,-0.781,-0.005,9.592,0.780080470208042,4.654964550011085,2.087167919799499,0,0.05
1757328632.5130787,-0.781,-0.005,9.592,0.780080470208042,4.654964550011085,2.087167919799499,0,0.05
1757328632.538826,-0.816,-0.197,9.775,0.7811467083717373,4.908321529606586,2.088922305764411,0,0.05
1757328632.5651438,-0.816,-0.197,9.775,0.7811467083717373,4.908321529606586,2.088922305764411,0,0.05
1757328632.5916538,-0.645,-0.204,9.747,0.781812152949799,3.9702535092216533,2.0974937343358397,0,0.05
1757328632.6179156,-0.645,-0.204,9.747,0.781812152949799,3.9702535092216533,2.0974937343358397,0,0.05
1757328632.6442547,-0.749,0.043,9.647,0.7827085952000271,4.446859878154353,2.102706766917293,0,0.05
1757328632.6710942,-0.749,0.043,9.647,0.7827085952000271,4.446859878154353,2.102706766917293,0,0.05
1757328632.6989553,-0.749,0.043,9.647,0.7827085952000271,4.446859878154353,2.102706766917293,0,0.05
1757328632.7259903,-0.587,0.045,9.707,0.7832586849183353,3.470695211435089,2.1108270676691725,0,0.05
1757328632.7538214,-0.57,-0.064,9.671,0.7837770202678821,3.394205291158943,2.111679197994987,0,0.05
1757328632.7809048,-0.57,-0.064,9.671,0.7837770202678821,3.394205291158943,2.111679197994987,0,0.05
1757328632.8069813,-0.794,-0.293,9.571,0.7847818215911987,5.05335831289469,2.122907268170426,0,0.05
1757328632.8330438,-0.794,-0.293,9.571,0.7847818215911987,5.05335831289469,2.122907268170426,0,0.05
1757328632.8587627,-1.007,-0.178,9.746,0.786395339508062,5.989911348621992,2.084411027568922,0,0.05
1757328632.884869,-1.007,-0.178,9.746,0.786395339508062,5.989911348621992,2.084411027568922,0,0.05
1757328632.9107425,-0.805,-0.11,9.613,0.7858955337702332,4.831097990931707,2.0930827067669173,0,0.05
1757328632.93823,-0.805,-0.11,9.613,0.7858955337702332,4.831097990931707,2.0930827067669173,0,0.05
1757328632.9656277,-0.585,0.011,9.643,0.784997829614834,3.4722498792502092,2.103358395989975,0,0.05
1757328632.99345,-0.585,0.011,9.643,0.784997829614834,3.4722498792502092,2.103358395989975,0,0.05
1757328633.0211072,-0.417,-0.001,9.767,0.7838758782485911,2.44475347035232,2.1116290726817044,0,0.05
1757328633.0485556,-0.417,-0.001,9.767,0.7838758782485911,2.44475347035232,2.1116290726817044,0,0.05
1757328633.0759518,-0.677,-0.012,9.979,0.7831974304094722,3.881747786985025,2.1235087719298242,0,0.05
1757328633.1035311,-0.677,-0.012,9.979,0.7831974304094722,3.881747786985025,2.1235087719298242,0,0.05
1757328633.1307807,-0.77,-0.136,9.799,0.7826634286205022,4.562290505202671,2.1267669172932333,0,0.05
1757328633.158775,-0.77,-0.136,9.799,0.7826634286205022,4.562290505202671,2.1267669172932333,0,0.05
1757328633.1864676,-0.979,-0.263,9.816,0.7826256720169611,5.896107884057367,2.137092731829574,0,0.05
1757328633.2150352,-0.979,-0.263,9.816,0.7826256720169611,5.896107884057367,2.137092731829574,0,0.05
1757328633.2434871,-0.691,-0.244,9.776,0.7818097946431727,4.286906234531646,2.1510776942355894,0,0.05
1757328633.2713833,-0.691,-0.244,9.776,0.7818097946431727,4.286906234531646,2.1510776942355894,0,0.05
1757328633.298855,-0.837,-0.318,9.65,0.7813785350263981,5.300998816166836,2.1578446115288217,0,0.05
1757328633.3269296,-0.837,-0.318,9.65,0.7813785350263981,5.300998816166836,2.1578446115288217,0,0.05
1757328633.354934,-0.836,-0.255,9.705,0.7809788505459031,5.1461362669302595,2.156591478696742,0,0.05
1757328633.3824146,-0.836,-0.255,9.705,0.7809788505459031,5.1461362669302595,2.156591478696742,0,0.05
1757328633.4099956,-0.744,-0.179,9.72,0.780426194460437,4.5014613042714,2.1611027568922303,0,0.05
1757328633.4367118,-0.744,-0.179,9.72,0.780426194460437,4.5014613042714,2.1611027568922303,0,0.05
1757328633.4638698,-0.752,-0.205,9.656,0.779886244910115,4.6149634506281,2.160802005012531,0,0.05
1757328633.4917612,-0.752,-0.205,9.656,0.779886244910115,4.6149634506281,2.160802005012531,0,0.05
1757328633.519994,-0.772,-0.265,9.725,0.7793518300485346,4.797573291265548,2.1599999999999997,0,0.05
1757328633.5478594,-0.772,-0.265,9.725,0.7793518300485346,4.797573291265548,2.1599999999999997,0,0.05
1757328633.576187,-0.891,-0.361,9.742,0.7790211662721366,5.635781536460296,2.165964912280702,0,0.05
1757328633.6039271,-0.891,-0.361,9.742,0.7790211662721366,5.635781536460296,2.165964912280702,0,0.05
1757328633.6307607,-0.906,-0.49,9.466,0.7787336306465773,6.210054664335746,2.1664160401002506,0,0.05
1757328633.6585636,-0.906,-0.49,9.466,0.7787336306465773,6.210054664335746,2.1664160401002506,0,0.05
1757328633.6860495,-0.696,-0.022,9.6,0.7778862497177849,4.148752642891032,2.1757393483709278,0,0.05
1757328633.713725,-0.696,-0.022,9.6,0.7778862497177849,4.148752642891032,2.1757393483709278,0,0.05
1757328633.7412598,-0.641,-0.193,9.599,0.7769964028230761,3.989294155440016,2.1769423558897243,0,0.05
1757328633.7692902,-0.641,-0.193,9.599,0.7769964028230761,3.989294155440016,2.1769423558897243,0,0.05
1757328633.7971342,-0.593,-0.255,9.617,0.7761066485992759,3.8399917196589186,2.1786967418546364,0,0.05
1757328633.824768,-0.593,-0.255,9.617,0.7761066485992759,3.8399917196589186,2.1786967418546364,0,0.05
1757328633.8524137,-0.791,0.002,9.636,0.7756971847957165,4.692789286664503,2.188270676691729,0,0.05
1757328633.8801324,-0.791,0.002,9.636,0.7756971847957165,4.692789286664503,2.188270676691729,0,0.05
1757328633.9076526,-0.738,-0.203,9.633,0.7751779344124806,4.543012471647634,2.1900751879699247,0,0.05
1757328633.9352574,-0.351,-0.035,9.67,0.7739263999244372,2.089099910194518,2.208671679197995,0,0.05
1757328633.9635985,-0.351,-0.035,9.67,0.7739263999244372,2.089099910194518,2.208671679197995,0,0.05
1757328633.991091,-0.576,0.114,9.562,0.7729607186008872,3.5139444895701155,2.219498746867168,0,0.05
1757328634.0189085,-0.576,0.114,9.562,0.7729607186008872,3.5139444895701155,2.219498746867168,0,0.05
1757328634.046412,-0.432,0.187,9.631,0.771730529394814,2.798232424991918,2.2264661654135334,0,0.05
1757328634.0741353,-0.432,0.187,9.631,0.771730529394814,2.798232424991918,2.2264661654135334,0,0.05
1757328634.1018014,-0.295,0.045,9.653,0.7703209477224412,1.7706755788572177,2.2318295739348373,0,0.05
1757328634.1301203,-0.295,0.045,9.653,0.7703209477224412,1.7706755788572177,2.2318295739348373,0,0.05
1757328634.1584213,-0.407,0.432,9.562,0.7691304993302501,3.5518674001957184,2.2366416040100248,0,0.05
1757328634.1861181,-0.407,0.432,9.562,0.7691304993302501,3.5518674001957184,2.2366416040100248,0,0.05
1757328634.213589,-0.441,0.178,9.618,0.768034092667767,2.8307205729966327,2.237844611528822,0,0.05
1757328634.2412026,-0.441,0.178,9.618,0.768034092667767,2.8307205729966327,2.237844611528822,0,0.05
1757328634.2689664,-0.423,-0.451,9.85,0.7668802253285711,3.5919980906556845,2.2379448621553886,0,0.05
1757328634.2965229,-0.423,-0.451,9.85,0.7668802253285711,3.5919980906556845,2.2379448621553886,0,0.05
1757328634.3230917,-0.806,-0.33,9.634,0.7664430572456117,5.165652006777911,2.2559899749373438,0,0.05
1757328634.3501978,-0.806,-0.33,9.634,0.7664430572456117,5.165652006777911,2.2559899749373438,0,0.05
1757328634.3772237,-0.414,0.19,9.515,0.7651519767340342,2.740862503536006,2.275388471177945,0,0.05
1757328634.4058082,-0.414,0.19,9.515,0.7651519767340342,2.740862503536006,2.275388471177945,0,0.05
1757328634.433283,-0.496,-0.039,9.743,0.763964722680308,2.9232968369958505,2.2794987468671684,0,0.05
1757328634.4615319,-0.496,-0.039,9.743,0.763964722680308,2.9232968369958505,2.2794987468671684,0,0.05
1757328634.4896934,-0.454,-0.088,9.71,0.7627102316738645,2.72671748523139,2.2803007518796994,0,0.05
1757328634.5171797,-0.454,-0.088,9.71,0.7627102316738645,2.72671748523139,2.2803007518796994,0,0.05
1757328634.542742,-0.672,-0.171,9.589,0.7619395366431644,4.136066670169048,2.2904761904761908,0,0.05
1757328634.5695488,-0.672,-0.171,9.589,0.7619395366431644,4.136066670169048,2.2904761904761908,0,0.05
1757328634.5960305,-0.584,-0.201,9.592,0.7610334650986118,3.6841486090618294,2.294035087719298,0,0.05
1757328634.62375,-0.584,-0.201,9.592,0.7610334650986118,3.6841486090618294,2.294035087719298,0,0.05
1757328634.651386,-0.53,-0.209,9.493,0.760079749105316,3.434472953960544,2.2963408521303257,0,0.05
1757328634.6794112,-0.53,-0.209,9.493,0.760079749105316,3.434472953960544,2.2963408521303257,0,0.05
1757328634.707064,-0.528,-0.014,9.434,0.7591456941852466,3.204498935681071,2.2946867167919796,0,0.05
1757328634.7349668,-0.528,-0.014,9.434,0.7591456941852466,3.204498935681071,2.2946867167919796,0,0.05
1757328634.7626383,-0.627,-0.098,9.848,0.7582908050345857,3.6870848177944078,2.298646616541353,0,0.05
1757328634.790324,-0.627,-0.098,9.848,0.7582908050345857,3.6870848177944078,2.298646616541353,0,0.05
1757328634.8180356,-0.561,0.029,9.741,0.757241827291652,3.30050726525769,2.3014536340852128,0,0.05
1757328634.8457527,-0.561,0.029,9.741,0.757241827291652,3.30050726525769,2.3014536340852128,0,0.05
1757328634.8732874,-0.714,0.154,9.575,0.7565458429599623,4.362301120137373,2.308922305764411,0,0.05
1757328634.9010494,-0.714,0.154,9.575,0.7565458429599623,4.362301120137373,2.308922305764411,0,0.05
1757328634.9280863,-0.701,0.098,9.782,0.755831537116572,4.138660023420282,2.3083208020050123,0,0.05
1757328634.9554954,-0.701,0.098,9.782,0.755831537116572,4.138660023420282,2.3083208020050123,0,0.05
1757328634.9829738,-0.682,-0.237,9.788,0.7551515626018395,4.21874986561867,2.3089724310776942,0,0.05
1757328635.010755,-0.682,-0.237,9.788,0.7551515626018395,4.21874986561867,2.3089724310776942,0,0.05
1757328635.0387373,-0.672,-0.176,9.677,0.7544298724865023,4.105945892817765,2.3093233082706766,0,0.05
1757328635.0671873,-0.672,-0.176,9.677,0.7544298724865023,4.105945892817765,2.3093233082706766,0,0.05
1757328635.0946975,-0.755,0.102,9.894,0.7538945101935682,4.4032071512069,2.311729323308271,0,0.05
1757328635.1224732,-0.755,0.102,9.894,0.7538945101935682,4.4032071512069,2.311729323308271,0,0.05
1757328635.1499867,-0.355,-0.048,9.811,0.7525097972784142,2.091119593648728,2.33077694235589,0,0.05
1757328635.1781054,-0.727,0.221,9.671,0.7517262250979408,4.492489527296889,2.349172932330827,0,0.05
1757328635.205794,-0.727,0.221,9.671,0.7517262250979408,4.492489527296889,2.349172932330827,0,0.05
1757328635.233345,-0.727,0.221,9.671,0.7517262250979408,4.492489527296889,2.349172932330827,0,0.05
1757328635.2607603,-0.829,0.311,9.764,0.7512225752065762,5.181507869672073,2.3538345864661654,0,0.05
1757328635.2886534,-0.546,0.142,9.802,0.7500404039116826,3.2940769178092815,2.3654135338345865,0,0.05
1757328635.316813,-0.546,0.142,9.802,0.7500404039116826,3.2940769178092815,2.3654135338345865,0,0.05
1757328635.3446844,-0.596,0.104,9.546,0.7491214103868611,3.6264379715054726,2.3677694235588973,0,0.05
1757328635.3721564,-0.596,0.104,9.546,0.7491214103868611,3.6264379715054726,2.3677694235588973,0,0.05
1757328635.3999226,-0.958,0.035,9.79,0.7491309865437419,5.592587293195572,2.385263157894737,0,0.05
1757328635.4279263,-0.958,0.035,9.79,0.7491309865437419,5.592587293195572,2.385263157894737,0,0.05
1757328635.4556887,-0.716,-0.04,9.863,0.7484225511033189,4.158529086049535,2.396641604010025,0,0.05
1757328635.4836895,-0.716,-0.04,9.863,0.7484225511033189,4.158529086049535,2.396641604010025,0,0.05
1757328635.5115721,-0.427,0.308,9.742,0.7471120498292073,3.0934518247835103,2.410075187969925,0,0.05
1757328635.539625,-0.427,0.308,9.742,0.7471120498292073,3.0934518247835103,2.410075187969925,0,0.05
1757328635.5674345,-0.423,0.115,9.786,0.7457236066398863,2.5647906243285163,2.40952380952381,0,0.05
1757328635.5949872,-0.423,0.115,9.786,0.7457236066398863,2.5647906243285163,2.40952380952381,0,0.05
1757328635.6229184,-0.483,0.13,9.907,0.744474054282619,2.890320242774062,2.4121804511278198,0,0.05
1757328635.6504855,-0.483,0.13,9.907,0.744474054282619,2.890320242774062,2.4121804511278198,0,0.05
1757328635.6782763,-0.504,-0.077,9.72,0.7432804635532942,3.00261240247579,2.412230576441103,0,0.05
1757328635.706461,-0.504,-0.077,9.72,0.7432804635532942,3.00261240247579,2.412230576441103,0,0.05
1757328635.734158,-1.138,-0.305,9.743,0.7439017727496017,6.894962499814783,2.4429072681704262,0,0.05
1757328635.7626033,-1.138,-0.305,9.743,0.7439017727496017,6.894962499814783,2.4429072681704262,0,0.05
1757328635.7903736,-0.857,-0.08,9.927,0.7436511077111362,4.955467919737336,2.4564411027568918,0,0.05
1757328635.8181252,-0.857,-0.08,9.927,0.7436511077111362,4.955467919737336,2.4564411027568918,0,0.05
1757328635.844804,-0.805,0.008,9.848,0.743289600357761,4.673339343435976,2.458145363408521,0,0.05
1757328635.8713195,-0.805,0.008,9.848,0.743289600357761,4.673339343435976,2.458145363408521,0,0.05
1757328635.8986773,-0.762,0.144,9.818,0.742757711168319,4.516202062301233,2.45874686716792,0,0.05
1757328635.9264104,-0.762,0.144,9.818,0.742757711168319,4.516202062301233,2.45874686716792,0,0.05
1757328635.9548175,-0.694,0.207,9.867,0.7419581507740178,4.197840935570868,2.4620551378446116,0,0.05
1757328635.9825766,-0.694,0.207,9.867,0.7419581507740178,4.197840935570868,2.4620551378446116,0,0.05
1757328636.010812,-0.56,0.103,9.81,0.7408808659291991,3.321843529646406,2.4687218045112784,0,0.05
1757328636.038747,-0.56,0.103,9.81,0.7408808659291991,3.321843529646406,2.4687218045112784,0,0.05
1757328636.0668316,-0.542,0.051,9.983,0.7397717925144213,3.1213687417248206,2.4696240601503763,0,0.05
1757328636.0945926,-0.616,0.185,9.694,0.7388060520190668,3.7959138553725613,2.4718796992481202,0,0.05
1757328636.1223931,-0.616,0.185,9.694,0.7388060520190668,3.7959138553725613,2.4718796992481202,0,0.05
1757328636.1498191,-0.564,0.113,9.803,0.7378294738623552,3.358082531542924,2.474436090225564,0,0.05
1757328636.1769574,-0.564,0.113,9.803,0.7378294738623552,3.358082531542924,2.474436090225564,0,0.05
1757328636.2043364,-0.64,0.324,10.081,0.7370036024335296,4.070168435982005,2.4777443609022556,0,0.05
1757328636.2323902,-0.64,0.324,10.081,0.7370036024335296,4.070168435982005,2.4777443609022556,0,0.05
1757328636.2602468,-0.727,-0.157,9.862,0.7363463926712753,4.312893468225192,2.4817543859649125,0,0.05
1757328636.2862089,-0.727,-0.157,9.862,0.7363463926712753,4.312893468225192,2.4817543859649125,0,0.05
1757328636.3144248,-0.663,-0.113,9.667,0.7355145766740452,3.979817880671876,2.483458646616541,0,0.05
1757328636.3420727,-0.663,-0.113,9.667,0.7355145766740452,3.979817880671876,2.483458646616541,0,0.05
1757328636.3700976,-0.712,0.173,9.844,0.7346965104721813,4.256833821944968,2.4857142857142858,0,0.05
1757328636.3987646,-0.712,0.173,9.844,0.7346965104721813,4.256833821944968,2.4857142857142858,0,0.05
1757328636.4268942,-0.677,0.029,9.733,0.7338082413001369,3.9825610758272285,2.486766917293233,0,0.05
1757328636.4540253,-0.677,0.029,9.733,0.7338082413001369,3.9825610758272285,2.486766917293233,0,0.05
1757328636.4819846,-0.925,0.177,9.631,0.7336430722769758,5.585000656899189,2.4975438596491224,0,0.05
1757328636.5093548,-0.925,0.177,9.631,0.7336430722769758,5.585000656899189,2.4975438596491224,0,0.05
1757328636.537136,-0.925,0.177,9.631,0.7336430722769758,5.585000656899189,2.4975438596491224,0,0.05
1757328636.5646262,-0.783,-0.017,9.737,0.7331723927563012,4.598620847441018,2.5043609022556392,0,0.05
1757328636.5930007,-0.78,-0.068,9.662,0.7327126551384247,4.632830523350931,2.504110275689223,0,0.05
1757328636.6210673,-0.78,-0.068,9.662,0.7327126551384247,4.632830523350931,2.504110275689223,0,0.05
1757328636.6490006,-0.632,0.083,9.684,0.7318700926393973,3.7659293929668634,2.505614035087719,0,0.05
1757328636.6770144,-0.632,0.083,9.684,0.7318700926393973,3.7659293929668634,2.505614035087719,0,0.05
1757328636.7047503,-0.349,0.158,9.778,0.7309093736572271,2.2436844364029653,2.515288220551378,0,0.05
1757328636.7327657,-0.349,0.158,9.778,0.7309093736572271,2.2436844364029653,2.515288220551378,0,0.05
1757328636.7604694,-0.23,0.528,9.738,0.7300704349581622,3.384617085042588,2.520300751879699,0,0.05
1757328636.786786,-0.23,0.528,9.738,0.7300704349581622,3.384617085042588,2.520300751879699,0,0.05
1757328636.8142118,-0.29,0.486,9.793,0.7293313924410494,3.3074999679246226,2.521704260651629,0,0.05
1757328636.841686,-0.29,0.486,9.793,0.7293313924410494,3.3074999679246226,2.521704260651629,0,0.05
1757328636.8694816,-0.819,0.599,9.642,0.7296743742930815,6.007395473138989,2.5428571428571427,0,0.05
1757328636.8980067,-0.819,0.599,9.642,0.7296743742930815,6.007395473138989,2.5428571428571427,0,0.05
1757328636.9257941,-0.595,0.216,9.731,0.7292034232640436,3.7218005620644887,2.552330827067669,0,0.05
1757328636.9538767,-0.595,0.216,9.731,0.7292034232640436,3.7218005620644887,2.552330827067669,0,0.05
1757328636.9815521,-0.851,0.159,9.767,0.7292696174941062,5.065339181745782,2.557543859649123,0,0.05
1757328637.009527,-0.851,0.159,9.767,0.7292696174941062,5.065339181745782,2.557543859649123,0,0.05
1757328637.037069,-0.728,0.069,9.655,0.7285314921127294,4.331270858043882,2.55593984962406,0,0.05
1757328637.0645664,-0.728,0.069,9.655,0.7285314921127294,4.331270858043882,2.55593984962406,0,0.05
1757328637.091576,-0.641,0.235,9.798,0.7280685235607979,3.985897734298132,2.551779448621554,0,0.05
1757328637.1191318,-0.641,0.235,9.798,0.7280685235607979,3.985897734298132,2.551779448621554,0,0.05
1757328637.1467516,-0.366,0.204,9.724,0.727561751674729,2.4673839022662802,2.5559899749373436,0,0.05
1757328637.1747441,-0.366,0.204,9.724,0.727561751674729,2.4673839022662802,2.5559899749373436,0,0.05
1757328637.2025259,-0.667,0.07,9.525,0.72709630380026,4.0275960107505275,2.56922305764411,0,0.05
1757328637.2314587,-0.494,-0.068,9.789,0.7263903375596347,2.9161645927573763,2.5660651629072677,0,0.05
1757328637.258978,-0.494,-0.068,9.789,0.7263903375596347,2.9161645927573763,2.5660651629072677,0,0.05
1757328637.2867265,-0.57,0.075,9.768,0.7250690380922358,3.368359266375088,2.56390977443609,0,0.05
1757328637.3145158,-0.57,0.075,9.768,0.7250690380922358,3.368359266375088,2.56390977443609,0,0.05
1757328637.3415937,-0.433,-0.028,9.668,0.7239130766190095,2.569736971128387,2.5671177944862156,0,0.05
1757328637.3685493,-0.433,-0.028,9.668,0.7239130766190095,2.569736971128387,2.5671177944862156,0,0.05
1757328637.3947647,-0.481,-0.094,9.68,0.7230556842318577,2.898413778132945,2.5671679197994988,0,0.05
1757328637.422221,-0.481,-0.094,9.68,0.7230556842318577,2.898413778132945,2.5671679197994988,0,0.05
1757328637.4498906,-0.653,0.034,9.733,0.7226696721185966,3.8434821467523084,2.571629072681704,0,0.05
1757328637.4780002,-0.653,0.034,9.733,0.7226696721185966,3.8434821467523084,2.571629072681704,0,0.05
1757328637.5049958,-0.465,0.126,9.579,0.7216759764603502,2.87922219445466,2.5807518796992475,0,0.05
1757328637.53222,-0.465,0.126,9.579,0.7216759764603502,2.87922219445466,2.5807518796992475,0,0.05
1757328637.5590143,-0.754,0.165,9.634,0.7213101153456812,4.5805551241835065,2.5918295739348367,0,0.05
1757328637.585243,-0.754,0.165,9.634,0.7213101153456812,4.5805551241835065,2.5918295739348367,0,0.05
1757328637.611853,-0.648,0.199,9.758,0.7204700132552361,3.9738346379414855,2.5921804511278195,0,0.05
1757328637.638718,-0.648,0.199,9.758,0.7204700132552361,3.9738346379414855,2.5921804511278195,0,0.05
1757328637.6650343,-0.731,-0.278,9.881,0.7194836290701825,4.525504466968295,2.595538847117795,0,0.05
1757328637.6911228,-0.731,-0.278,9.881,0.7194836290701825,4.525504466968295,2.595538847117795,0,0.05
1757328637.7176788,-0.609,-0.266,9.816,0.7182694515291598,3.8730989652239365,2.5995989974937346,0,0.05
1757328637.7447588,-0.609,-0.266,9.816,0.7182694515291598,3.8730989652239365,2.5995989974937346,0,0.05
1757328637.7721107,-0.753,0.146,9.894,0.7175398281628692,4.432937426447115,2.6055137844611527,0,0.05
1757328637.800464,-0.753,0.146,9.894,0.7175398281628692,4.432937426447115,2.6055137844611527,0,0.05
1757328637.8268664,-0.518,0.151,9.772,0.7163773394657316,3.160371701959224,2.6168421052631574,0,0.05
1757328637.8542302,-0.518,0.151,9.772,0.7163773394657316,3.160371701959224,2.6168421052631574,0,0.05
1757328637.8806639,-0.694,0.085,9.69,0.7156159392439495,4.127048210591017,2.6131829573934833,0,0.05
1757328637.9066496,-0.694,0.085,9.69,0.7156159392439495,4.127048210591017,2.6131829573934833,0,0.05
1757328637.9334347,-0.551,-0.163,9.986,0.7135986634656766,3.2932238402910103,2.617042606516291,0,0.05
1757328637.961104,-0.551,-0.163,9.986,0.7135986634656766,3.2932238402910103,2.617042606516291,0,0.05
1757328637.9897213,-0.77,0.043,9.982,0.711796305132304,4.417840769402794,2.62265664160401,0,0.05
1757328638.018263,-0.77,0.043,9.982,0.711796305132304,4.417840769402794,2.62265664160401,0,0.05
1757328638.046037,-0.674,-0.03,9.728,0.7102047451263613,3.967289535789682,2.6245614035087717,0,0.05
1757328638.0739906,-0.674,-0.03,9.728,0.7102047451263613,3.967289535789682,2.6245614035087717,0,0.05
1757328638.101812,-0.677,-0.345,10.014,0.7088493792760209,4.339150732121492,2.6198997493734333,0,0.05
1757328638.1293511,-0.677,-0.345,10.014,0.7088493792760209,4.339150732121492,2.6198997493734333,0,0.05
1757328638.1569512,-0.723,-0.008,9.951,0.7079646212912055,4.15583445072287,2.6195488721804514,0,0.05
1757328638.1845515,-0.723,-0.008,9.951,0.7079646212912055,4.15583445072287,2.6195488721804514,0,0.05
1757328638.2121794,-0.714,-0.119,9.737,0.7068612540661711,4.251548732243715,2.6188471177944863,0,0.05
1757328638.2391987,-0.714,-0.119,9.737,0.7068612540661711,4.251548732243715,2.6188471177944863,0,0.05
1757328638.2674232,-0.607,-0.058,10.034,0.7055916276430724,3.477579455975474,2.6220050125313286,0,0.05
1757328638.2955058,-0.607,-0.058,10.034,0.7055916276430724,3.477579455975474,2.6220050125313286,0,0.05
1757328638.323992,-0.569,-0.143,10.043,0.7043997000993115,3.343317359281259,2.6195989974937346,0,0.05
1757328638.3525918,-0.569,-0.143,10.043,0.7043997000993115,3.343317359281259,2.6195989974937346,0,0.05
1757328638.380552,-0.69,-0.0,9.869,0.7031582663241612,3.999377734666934,2.6208020050125316,0,0.05
1757328638.4082396,-0.69,-0.0,9.869,0.7031582663241612,3.999377734666934,2.6208020050125316,0,0.05
1757328638.4359603,-0.603,0.016,9.967,0.7020720386826411,3.463370177665988,2.6220050125313286,0,0.05
1757328638.463611,-0.603,0.016,9.967,0.7020720386826411,3.463370177665988,2.6220050125313286,0,0.05
1757328638.4901102,-0.619,0.369,10.042,0.7012336343901368,4.104657401724235,2.6223558897243113,0,0.05
1757328638.5178223,-0.619,0.369,10.042,0.7012336343901368,4.104657401724235,2.6223558897243113,0,0.05
1757328638.5444183,-0.543,0.337,9.886,0.7002661422630685,3.698712679006825,2.6240601503759398,0,0.05
1757328638.5726504,-0.543,0.337,9.886,0.7002661422630685,3.698712679006825,2.6240601503759398,0,0.05
1757328638.6007385,-0.698,0.084,9.952,0.6997752192668729,4.040816432596302,2.6230576441102755,0,0.05
1757328638.6294456,-0.698,0.084,9.952,0.6997752192668729,4.040816432596302,2.6230576441102755,0,0.05
1757328638.657303,-0.566,0.198,9.888,0.698384197630502,3.4703104833840874,2.6291228070175436,0,0.05
1757328638.686241,-0.928,0.172,9.724,0.6980007342403015,5.5437260579927905,2.638045112781955,0,0.05
1757328638.7141736,-0.928,0.172,9.724,0.6980007342403015,5.5437260579927905,2.638045112781955,0,0.05
1757328638.7417254,-0.525,0.006,9.751,0.6971908382932179,3.082066215293593,2.651278195488722,0,0.05
1757328638.769876,-0.525,0.006,9.751,0.6971908382932179,3.082066215293593,2.651278195488722,0,0.05
1757328638.798085,-0.705,-0.038,9.779,0.6963170739684615,4.129470522777888,2.657543859649123,0,0.05
1757328638.8258734,-0.705,-0.038,9.779,0.6963170739684615,4.129470522777888,2.657543859649123,0,0.05
1757328638.8542252,-0.71,-0.137,9.728,0.6956455958316706,4.251063336462048,2.6496741854636596,0,0.05
1757328638.882149,-0.71,-0.137,9.728,0.6956455958316706,4.251063336462048,2.6496741854636596,0,0.05
1757328638.9090204,-0.768,-0.094,9.613,0.6945342702127808,4.601703159220006,2.6513784461152885,0,0.05
1757328638.937077,-0.768,-0.094,9.613,0.6945342702127808,4.601703159220006,2.6513784461152885,0,0.05
1757328638.9658785,-0.623,-0.147,9.748,0.6931515797428438,3.7569652318223037,2.6553383458646618,0,0.05
1757328638.9945881,-0.623,-0.147,9.748,0.6931515797428438,3.7569652318223037,2.6553383458646618,0,0.05
1757328639.0227203,-0.779,-0.071,9.664,0.692409569907869,4.6275783068699745,2.661654135338346,0,0.05
1757328639.0518305,-0.779,-0.071,9.664,0.692409569907869,4.6275783068699745,2.661654135338346,0,0.05
1757328639.079511,-0.774,-0.036,9.771,0.6915416834869754,4.53404640996085,2.65483709273183,0,0.05
1757328639.107566,-0.774,-0.036,9.771,0.6915416834869754,4.53404640996085,2.65483709273183,0,0.05
1757328639.135415,-0.442,-0.149,9.656,0.6904363113278443,2.7655558508243363,2.664310776942356,0,0.1
1757328639.1628406,-0.442,-0.149,9.656,0.6904363113278443,2.7655558508243363,2.664310776942356,0,0.1
1757328639.190586,-0.482,0.26,9.67,0.6888932482612963,3.2414407528691473,2.663157894736842,0,0.1
1757328639.218709,-0.482,0.26,9.67,0.6888932482612963,3.2414407528691473,2.663157894736842,0,0.1
1757328639.2464457,-0.719,0.08,9.794,0.6880952695666495,4.224499110390608,2.6733333333333333,0,0.1
1757328639.2742498,-0.719,0.08,9.794,0.6880952695666495,4.224499110390608,2.6733333333333333,0,0.1
1757328639.3023887,-0.747,-0.009,9.701,0.6872479628925793,4.40354012746966,2.6722305764411027,0,0.1
1757328639.3299909,-0.747,-0.009,9.701,0.6872479628925793,4.40354012746966,2.6722305764411027,0,0.1
1757328639.3576784,-0.727,-0.04,9.762,0.6865256550195339,4.265512585749265,2.6728320802005014,0,0.1
1757328639.3854513,-0.727,-0.04,9.762,0.6865256550195339,4.265512585749265,2.6728320802005014,0,0.1
1757328639.4136274,-0.841,-0.072,9.675,0.6861001585045728,4.986033450010001,2.6671177944862157,0,0.1
1757328639.4414697,-0.841,-0.072,9.675,0.6861001585045728,4.986033450010001,2.6671177944862157,0,0.1
1757328639.4694357,-0.481,-0.201,9.634,0.6855183586163102,3.097326702130629,2.6762907268170424,0,0.1
1757328639.4973881,-0.554,-0.184,9.706,0.684537294455167,3.441846198570659,2.6681704260651626,0,0.1
1757328639.524721,-0.554,-0.184,9.706,0.684537294455167,3.441846198570659,2.6681704260651626,0,0.1
1757328639.5525098,-0.396,-0.152,9.738,0.6839690837311289,2.4941245901837035,2.6642105263157894,0,0.1
1757328639.5799649,-0.396,-0.152,9.738,0.6839690837311289,2.4941245901837035,2.6642105263157894,0,0.1
1757328639.6079202,-0.547,-0.262,9.705,0.6829649533468024,3.5760189438654875,2.663709273182957,0,0.1
1757328639.6360817,-0.547,-0.262,9.705,0.6829649533468024,3.5760189438654875,2.663709273182957,0,0.1
1757328639.6646547,-0.51,-0.032,9.685,0.6812962406325166,3.02025688100057,2.6613533834586462,0,0.1
1757328639.6924534,-0.51,-0.032,9.685,0.6812962406325166,3.02025688100057,2.6613533834586462,0,0.1
1757328639.7202063,-0.54,-0.258,9.797,0.6800026158037924,3.4956758684740072,2.6606516290726816,0,0.1
1757328639.7485077,-0.54,-0.258,9.797,0.6800026158037924,3.4956758684740072,2.6606516290726816,0,0.1
1757328639.7764904,-0.872,-0.386,9.814,0.6797273184888187,5.5499363498459795,2.6765413533834588,0,0.1
1757328639.8038948,-0.872,-0.386,9.814,0.6797273184888187,5.5499363498459795,2.6765413533834588,0,0.1
1757328639.8309612,-0.552,-0.153,9.576,0.6786653704146101,3.42320595529084,2.6910275689223058,0,0.1
1757328639.8587759,-0.552,-0.153,9.576,0.6786653704146101,3.42320595529084,2.6910275689223058,0,0.1
1757328639.8864484,-0.452,0.008,9.718,0.6775221656890643,2.663417236926046,2.6928822055137847,0,0.1
1757328639.9140224,-0.452,0.008,9.718,0.6775221656890643,2.663417236926046,2.6928822055137847,0,0.1
1757328639.9415941,-0.467,-0.02,9.624,0.6761837065472667,2.780613727268628,2.687067669172932,0,0.1
1757328639.969128,-0.467,-0.02,9.624,0.6761837065472667,2.780613727268628,2.687067669172932,0,0.1
1757328639.9967115,-0.573,0.061,9.51,0.6745437105925752,3.4674738836254075,2.6901253132832084,0,0.1
1757328640.024203,-0.573,0.061,9.51,0.6745437105925752,3.4674738836254075,2.6901253132832084,0,0.1
1757328640.0518281,-0.564,-0.167,9.726,0.6730611673540526,3.460894470997348,2.6818546365914786,0,0.1
1757328640.0795999,-0.564,-0.167,9.726,0.6730611673540526,3.460894470997348,2.6818546365914786,0,0.1
1757328640.107284,-0.684,-0.103,9.843,0.6711129357269162,4.01982214601909,2.6630075187969924,0,0.1
1757328640.1345987,-0.684,-0.103,9.843,0.6711129357269162,4.01982214601909,2.6630075187969924,0,0.1
1757328640.1611528,-0.716,-0.236,9.626,0.6710615843572033,4.4781627407147315,2.6571428571428575,0,0.1
1757328640.188794,-0.716,-0.236,9.626,0.6710615843572033,4.4781627407147315,2.6571428571428575,0,0.1
1757328640.2165372,-1.015,-0.44,9.86,0.6715248115297007,6.401664444714647,2.6639598997493734,0,0.1
1757328640.2442243,-1.015,-0.44,9.86,0.6715248115297007,6.401664444714647,2.6639598997493734,0,0.1
1757328640.2721884,-0.475,-0.281,9.787,0.6709769239698188,3.22751531054838,2.6743358395989976,0,0.1
1757328640.2999027,-0.475,-0.281,9.787,0.6709769239698188,3.22751531054838,2.6743358395989976,0,0.1
1757328640.3277724,-0.461,-0.128,9.958,0.6693011616604292,2.7507068485644774,2.6736340852130325,0,0.1
1757328640.3558238,-0.461,-0.128,9.958,0.6693011616604292,2.7507068485644774,2.6736340852130325,0,0.1
1757328640.3838358,-0.454,-0.211,10.32,0.6677182377320542,2.777315334917182,2.671478696741855,0,0.1
1757328640.4113917,-0.454,-0.211,10.32,0.6677182377320542,2.777315334917182,2.671478696741855,0,0.1
1757328640.4383056,-0.563,0.053,10.189,0.6665272893888141,3.1766549485256426,2.6708771929824557,0,0.1
1757328640.465147,-0.563,0.053,10.189,0.6665272893888141,3.1766549485256426,2.6708771929824557,0,0.1
1757328640.4926887,-0.472,-0.161,9.944,0.6655734557507533,2.871045447956248,2.6697744360902256,0,0.1
1757328640.5202596,-0.472,-0.161,9.944,0.6655734557507533,2.871045447956248,2.6697744360902256,0,0.1
1757328640.5477188,-1.088,-0.319,10.084,0.6660366543967382,6.415145993699423,2.7004010025062657,0,0.1
1757328640.5755296,-1.088,-0.319,10.084,0.6660366543967382,6.415145993699423,2.7004010025062657,0,0.1
1757328640.6038895,-0.888,-0.244,9.932,0.6657397107729116,5.2974193589354925,2.7069172932330825,0,0.1
1757328640.6321068,-0.888,-0.244,9.932,0.6657397107729116,5.2974193589354925,2.7069172932330825,0,0.1
1757328640.6592777,-0.708,-0.242,9.846,0.6651496072313355,4.345664652491872,2.711077694235589,0,0.1
1757328640.6875904,-0.885,-0.172,9.867,0.6647421022471798,5.220685238469522,2.711528822055138,0,0.1
1757328640.7152781,-0.885,-0.172,9.867,0.6647421022471798,5.220685238469522,2.711528822055138,0,0.1
1757328640.742594,-0.764,-0.231,9.733,0.6645379917657079,4.688072870410018,2.700350877192983,0,0.1
1757328640.7695105,-0.764,-0.231,9.733,0.6645379917657079,4.688072870410018,2.700350877192983,0,0.1
1757328640.7970974,-0.678,-0.216,9.704,0.6627989985659302,4.193883568672468,2.6963909774436092,0,0.1
1757328640.8248105,-0.678,-0.216,9.704,0.6627989985659302,4.193883568672468,2.6963909774436092,0,0.1
1757328640.8522637,-0.838,-0.162,9.682,0.6621954545298541,5.037876520160573,2.700601503759399,0,0.1
1757328640.880651,-0.838,-0.162,9.682,0.6621954545298541,5.037876520160573,2.700601503759399,0,0.1
1757328640.9089456,-0.742,0.28,9.746,0.6610032583126955,4.652145210361265,2.694887218045113,0,0.1
1757328640.9367104,-0.742,0.28,9.746,0.6610032583126955,4.652145210361265,2.694887218045113,0,0.1
1757328640.9642363,-0.613,0.196,9.777,0.6602589700261557,3.7660676513818787,2.6949373433583963,0,0.1
1757328640.9924242,-0.613,0.196,9.777,0.6602589700261557,3.7660676513818787,2.6949373433583963,0,0.1
1757328641.0195644,-0.601,0.17,9.612,0.6590294739235871,3.71781072904115,2.6830075187969924,0,0.1
1757328641.047136,-0.601,0.17,9.612,0.6590294739235871,3.71781072904115,2.6830075187969924,0,0.1
1757328641.0748374,-0.598,0.203,9.736,0.6586264457186638,3.7112375387297556,2.673533834586466,0,0.1
1757328641.1025286,-0.598,0.203,9.736,0.6586264457186638,3.7112375387297556,2.673533834586466,0,0.1
1757328641.130183,-0.641,0.11,9.719,0.6588046561766242,3.82837513786737,2.6678696741854635,0,0.1
1757328641.1577702,-0.641,0.11,9.719,0.6588046561766242,3.82837513786737,2.6678696741854635,0,0.1
1757328641.1859398,-0.726,-0.025,9.617,0.6588238478531269,4.319694424240535,2.665864661654135,0,0.1
1757328641.2141652,-0.726,-0.025,9.617,0.6588238478531269,4.319694424240535,2.665864661654135,0,0.1
1757328641.2430348,-1.023,0.008,9.679,0.6594576142558368,6.03353131618111,2.680250626566416,0,0.1
1757328641.2706308,-1.023,0.008,9.679,0.6594576142558368,6.03353131618111,2.680250626566416,0,0.1
1757328641.2982736,-0.859,0.006,9.691,0.6594738489887222,5.065521909607551,2.6734837092731825,0,0.1
1757328641.3258302,-0.859,0.006,9.691,0.6594738489887222,5.065521909607551,2.6734837092731825,0,0.1
1757328641.353082,-0.773,-0.061,9.741,0.6580851445671753,4.551262067394517,2.6737844611528825,0,0.1
1757328641.3793254,-0.773,-0.061,9.741,0.6580851445671753,4.551262067394517,2.6737844611528825,0,0.1
1757328641.4070196,-0.885,0.035,9.644,0.6566836357790561,5.247247012207333,2.6750877192982454,0,0.1
1757328641.4348505,-0.885,0.035,9.644,0.6566836357790561,5.247247012207333,2.6750877192982454,0,0.1
1757328641.4625006,-0.604,-0.117,9.52,0.6548712965155825,3.697583550303558,2.6665162907268174,0,0.1
1757328641.4906416,-0.604,-0.117,9.52,0.6548712965155825,3.697583550303558,2.6665162907268174,0,0.1
1757328641.5183954,-0.518,-0.065,9.67,0.6544613529460697,3.0902743906361536,2.6530325814536337,0,0.1
1757328641.5460577,-0.518,-0.065,9.67,0.6544613529460697,3.0902743906361536,2.6530325814536337,0,0.1
1757328641.5740726,-0.645,0.014,9.577,0.6531488919075037,3.853891501795009,2.654937343358396,0,0.1
1757328641.6023345,-0.645,0.014,9.577,0.6531488919075037,3.853891501795009,2.654937343358396,0,0.1
1757328641.6302407,-0.442,0.099,9.781,0.6517538511585489,2.651434134529124,2.6605513784461152,0,1.75
1757328641.6575463,-0.547,-0.072,9.766,0.6508754527557481,3.2334180393506964,2.658045112781955,0,1.75
1757328641.6853921,-0.547,-0.072,9.766,0.6508754527557481,3.2334180393506964,2.658045112781955,0,1.75
1757328641.7133837,-0.59,0.117,9.822,0.6495248590315847,3.5043571683579473,2.6544360902255644,0,1.75
1757328641.7411075,-0.59,0.117,9.822,0.6495248590315847,3.5043571683579473,2.6544360902255644,0,1.75
1757328641.768937,-0.499,0.158,9.842,0.6484094346938515,3.0442328875048275,2.6477694235588976,0,1.75
1757328641.7966623,-0.499,0.158,9.842,0.6484094346938515,3.0442328875048275,2.6477694235588976,0,1.75
1757328641.8246675,-0.668,0.096,9.732,0.6483624487892555,3.966810319665364,2.6549874686716795,0,1.75
1757328641.8522131,-0.668,0.096,9.732,0.6483624487892555,3.966810319665364,2.6549874686716795,0,1.75
1757328641.8801937,-0.593,-0.062,9.728,0.6480657258334219,3.50728994904742,2.656190476190476,0,1.75
1757328641.9080758,-0.593,-0.062,9.728,0.6480657258334219,3.50728994904742,2.656190476190476,0,1.75
1757328641.9358768,-0.847,-0.158,9.735,0.6483294667836716,5.057869164704973,2.668421052631579,0,1.75
1757328641.9631279,-0.847,-0.158,9.735,0.6483294667836716,5.057869164704973,2.668421052631579,0,1.75
1757328641.990126,-1.002,-0.393,9.684,0.6491743583198585,6.3420300628862885,2.674586466165413,0,1.75
1757328642.0179524,-1.002,-0.393,9.684,0.6491743583198585,6.3420300628862885,2.674586466165413,0,1.75
1757328642.0461922,-0.983,-0.373,9.652,0.6500362066839046,6.216695897570825,2.6743859649122803,0,1.75
1757328642.074267,-0.983,-0.373,9.652,0.6500362066839046,6.216695897570825,2.6743859649122803,0,1.75
1757328642.1021721,-0.964,-0.362,9.7,0.6508884601066453,6.059683855463628,2.6577443609022553,0,1.75
1757328642.129971,-0.964,-0.362,9.7,0.6508884601066453,6.059683855463628,2.6577443609022553,0,1.75
1757328642.1578372,-0.916,-0.387,9.762,0.6503903962236836,5.816317941450941,2.6556390977443605,0,1.75
1757328642.1864395,-0.916,-0.387,9.762,0.6503903962236836,5.816317941450941,2.6556390977443605,0,1.75
1757328642.2140481,-0.874,-0.378,9.822,0.6493687299986041,5.537499643258713,2.6423057644110277,0,1.75
1757328642.2416723,-0.874,-0.378,9.822,0.6493687299986041,5.537499643258713,2.6423057644110277,0,1.75
1757328642.269021,-0.883,-0.37,9.796,0.6495434704467439,5.58192667940189,2.638496240601503,0,1.75
1757328642.2962394,-0.883,-0.37,9.796,0.6495434704467439,5.58192667940189,2.638496240601503,0,1.75
1757328642.3240402,-0.856,-0.332,9.739,0.649342357697386,5.385550280887771,2.6388972431077695,0,1.75
1757328642.3518703,-0.856,-0.332,9.739,0.649342357697386,5.385550280887771,2.6388972431077695,0,1.75
1757328642.3796957,-0.723,-0.171,9.853,0.6486689679644002,4.3121199038148825,2.643308270676692,0,1.75
1757328642.4073706,-0.723,-0.171,9.853,0.6486689679644002,4.3121199038148825,2.643308270676692,0,1.75
1757328642.4353557,-0.485,-0.033,9.911,0.6472738137759012,2.808031486998326,2.6419047619047618,0,1.75
1757328642.4633062,-0.485,-0.033,9.911,0.6472738137759012,2.808031486998326,2.6419047619047618,0,1.75
1757328642.4916196,-0.614,0.079,10.047,0.6470200595808449,3.5259100951368567,2.644110275689223,0,1.75
1757328642.5175724,-0.614,0.079,10.047,0.6470200595808449,3.5259100951368567,2.644110275689223,0,1.75
1757328642.543319,-0.665,-0.061,10.122,0.6466440365456099,3.774578975202493,2.6414035087719294,0,1.75
1757328642.569188,-0.665,-0.061,10.122,0.6466440365456099,3.774578975202493,2.6414035087719294,0,1.75
1757328642.595446,-0.548,-0.142,10.202,0.6462960989360836,3.1760293450283568,2.644761904761905,0,1.75
1757328642.6220124,-0.548,-0.142,10.202,0.6462960989360836,3.1760293450283568,2.644761904761905,0,1.75
1757328642.6482549,-0.599,0.079,9.95,0.6461903957039288,3.474865853146366,2.6456641604010023,0,1.75
1757328642.6748166,-0.599,0.079,9.95,0.6461903957039288,3.474865853146366,2.6456641604010023,0,1.75
1757328642.7007446,-0.639,0.024,9.944,0.6462604583293025,3.6793484896006854,2.6356390977443604,0,1.75
1757328642.7267263,-0.639,0.024,9.944,0.6462604583293025,3.6793484896006854,2.6356390977443604,0,1.75
1757328642.753547,-0.699,0.003,9.833,0.6469403623982662,4.066191237838294,2.629273182957393,0,1.75
1757328642.7795844,-0.699,0.003,9.833,0.6469403623982662,4.066191237838294,2.629273182957393,0,1.75
1757328642.8056166,-0.785,-0.047,9.746,0.6475312907497213,4.613207663760426,2.626015037593985,0,1.75
1757328642.8319032,-0.785,-0.047,9.746,0.6475312907497213,4.613207663760426,2.626015037593985,0,1.75
1757328642.8579364,-0.785,-0.127,9.766,0.6484020704778787,4.655099559803982,2.619649122807018,0,1.75
1757328642.884229,-0.785,-0.127,9.766,0.6484020704778787,4.655099559803982,2.619649122807018,0,1.75
1757328642.91007,-0.61,-0.242,9.777,0.6485717173142844,3.8400365452692284,2.6199498746867165,0,1.75
1757328642.9378436,-0.61,-0.242,9.777,0.6485717173142844,3.8400365452692284,2.6199498746867165,0,1.75
1757328642.9653752,-0.817,0.014,9.795,0.6489083024588297,4.768695279571157,2.620200501253133,0,1.75
1757328642.9930122,-0.817,0.014,9.795,0.6489083024588297,4.768695279571157,2.620200501253133,0,1.75
1757328643.0205216,-0.575,-0.064,9.772,0.6479702983162114,3.3882386322794025,2.6190977443609023,0,1.75
1757328643.0481644,-0.575,-0.064,9.772,0.6479702983162114,3.3882386322794025,2.6190977443609023,0,1.75
1757328643.075578,-0.54,-0.095,9.799,0.6477426244273261,3.2025859872281535,2.6135839598997492,0,1.75
1757328643.1030753,-0.54,-0.095,9.799,0.6477426244273261,3.2025859872281535,2.6135839598997492,0,1.75
1757328643.1306922,-0.678,-0.003,9.831,0.6474404644444152,3.945224727634065,2.620200501253133,0,1.75
1757328643.158291,-0.678,-0.003,9.831,0.6474404644444152,3.945224727634065,2.620200501253133,0,1.75
1757328643.1858957,-0.765,-0.19,9.638,0.6473623521645354,4.675516823506151,2.616992481203007,0,1.75
1757328643.2134607,-0.765,-0.19,9.638,0.6473623521645354,4.675516823506151,2.616992481203007,0,1.75
1757328643.240947,-0.792,-0.35,9.757,0.6477825059385287,5.071452474982027,2.6141353383458648,0,1.75
1757328643.2679696,-0.792,-0.35,9.757,0.6477825059385287,5.071452474982027,2.6141353383458648,0,1.75
1757328643.295208,-0.698,-0.008,10.031,0.6477111586193339,3.9807304863692137,2.6167418546365915,0,1.75
1757328643.3227813,-0.698,-0.008,10.031,0.6477111586193339,3.9807304863692137,2.6167418546365915,0,1.75
1757328643.350828,-0.517,0.251,9.841,0.6470943343130119,3.342243767006146,2.6242105263157893,0,1.75
1757328643.3790085,-0.517,0.251,9.841,0.6470943343130119,3.342243767006146,2.6242105263157893,0,1.75
1757328643.4071553,-0.462,-0.045,9.92,0.6464656197354969,2.6790861795838397,2.6240601503759398,0,1.75
1757328643.4352167,-0.462,-0.045,9.92,0.6464656197354969,2.6790861795838397,2.6240601503759398,0,1.75
1757328643.4630134,-0.561,0.178,9.849,0.645861006718938,3.4198448377049715,2.620200501253133,0,1.75
1757328643.4905536,-0.561,0.178,9.849,0.645861006718938,3.4198448377049715,2.620200501253133,0,1.75
1757328643.5180557,-0.707,-0.103,9.771,0.6460939734280146,4.182071047085712,2.622706766917293,0,1.75
1757328643.5458078,-0.707,-0.103,9.771,0.6460939734280146,4.182071047085712,2.622706766917293,0,1.75
1757328643.5733488,-0.62,-0.097,9.721,0.6463144919464517,3.6936207693452534,2.6222055137844618,0,1.75
1757328643.6005268,-0.848,0.084,9.852,0.6473583706109005,4.943503437023261,2.6244611528822057,0,1.75
1757328643.6277554,-0.848,0.084,9.852,0.6473583706109005,4.943503437023261,2.6244611528822057,0,1.75
