timestamp,ax,ay,az,rms,tilt_now,jerk,tilt_crosses,freq
1757329160.5755262,-1.131,0.078,9.65,0.05655,6.700421679003161,0.056691729323308265,0,0.4
1757329160.603666,-1.132,0.074,9.656,0.08000914010286574,6.700566843146622,0.05674185463659146,0,0.05
1757329160.6299849,-1.127,0.07,9.66,0.09786104945278279,6.667133326954514,0.0569924812030075,0,0.05
1757329160.6564364,-1.097,0.057,9.678,0.11218425691691325,6.475517106463572,0.05849624060150374,0,0.05
1757329160.6840253,-1.087,0.063,9.692,0.12465644788778477,6.409878929661262,0.05899749373433582,0,0.05
1757329160.7099245,-1.092,0.068,9.686,0.1360896395762734,6.444722153418826,0.05924812030075186,0,0.05
1757329160.7352998,-1.098,0.06,9.685,0.14674603912882964,6.477641612498492,0.059548872180451115,0,0.05
1757329160.7613301,-1.105,0.066,9.677,0.15680230387338065,6.525800626835789,0.059899749373433564,0,0.05
1757329160.7866874,-1.134,0.076,9.668,0.16673887519112032,6.704763621278869,0.06135338345864659,0,0.05
1757329160.812421,-1.136,0.072,9.674,0.1761479278901685,6.710781753782224,0.06145363408521301,0,0.05
1757329160.8380682,-1.131,0.067,9.676,0.18500268916964424,6.678469913417487,0.06170426065162904,0,0.05
1757329160.8632033,-1.116,0.049,9.687,0.1932346630395282,6.5781180637626,0.062456140350877154,0,0.05
1757329160.8889792,-1.091,0.036,9.681,0.200786796129626,6.433287976411754,0.06370927318295737,0,0.05
1757329160.9149208,-1.095,0.047,9.668,0.20811751488041558,6.467696485859235,0.06390977443609021,0,0.05
1757329160.9403465,-1.092,0.063,9.689,0.2151605447102233,6.440995424540104,0.06406015037593982,0,0.05
1757329160.9655955,-1.116,0.071,9.686,0.22227842900290617,6.585685636265416,0.0652631578947368,0,0.05
1757329160.990669,-1.143,0.081,9.668,0.22950778309242587,6.759253224191375,0.06661654135338343,0,0.05
1757329161.0159876,-1.143,0.081,9.668,0.22950778309242587,6.759253224191375,0.06661654135338343,0,0.05
1757329161.0411253,-1.156,0.076,9.673,0.2366741694820117,6.829550657954638,0.06726817042606513,0,0.05
1757329161.066323,-1.156,0.076,9.673,0.2366741694820117,6.829550657954638,0.06726817042606513,0,0.05
1757329161.091507,-1.148,0.071,9.687,0.24353525925417863,6.7713563214998596,0.0676691729323308,0,0.05
1757329161.116482,-1.148,0.071,9.687,0.24353525925417863,6.7713563214998596,0.0676691729323308,0,0.05
1757329161.1413834,-1.143,0.065,9.689,0.25015104437119584,6.738791000208304,0.06791979949874684,0,0.05
1757329161.1665819,-1.143,0.065,9.689,0.25015104437119584,6.738791000208304,0.06791979949874684,0,0.05
1757329161.1915767,-1.106,0.063,9.68,0.2561906223888767,6.528607302029419,0.06977443609022553,0,0.05
1757329161.216907,-1.106,0.063,9.68,0.2561906223888767,6.528607302029419,0.06977443609022553,0,0.05
1757329161.2418764,-1.106,0.063,9.68,0.2561906223888767,6.528607302029419,0.06977443609022553,0,0.05
1757329161.2670093,-1.109,0.06,9.685,0.26212275273237917,6.541785663183072,0.06992481203007514,0,0.05
1757329161.2918632,-1.109,0.06,9.685,0.26212275273237917,6.541785663183072,0.06992481203007514,0,0.05
1757329161.3167388,-1.114,0.06,9.679,0.26797542331340757,6.574974893608175,0.0701754385964912,0,0.05
1757329161.3417816,-1.114,0.06,9.679,0.26797542331340757,6.574974893608175,0.0701754385964912,0,0.05
1757329161.3668027,-1.126,0.06,9.677,0.2738257064265516,6.64632950938659,0.07077694235588966,0,0.05
1757329161.391835,-1.126,0.06,9.677,0.2738257064265516,6.64632950938659,0.07077694235588966,0,0.05
1757329161.4167886,-1.136,0.07,9.678,0.27965471120651625,6.707304903622727,0.07127819548872176,0,0.05
1757329161.4417987,-1.136,0.07,9.678,0.27965471120651625,6.707304903622727,0.07127819548872176,0,0.05
1757329161.466878,-1.152,0.075,9.697,0.2855249857718235,6.789173025635171,0.07208020050125308,0,0.05
1757329161.492343,-1.152,0.075,9.697,0.2855249857718235,6.789173025635171,0.07208020050125308,0,0.05
1757329161.517418,-1.156,0.067,9.693,0.2913165932452183,6.812353716178972,0.07228070175438592,0,0.05
1757329161.542975,-1.156,0.067,9.693,0.2913165932452183,6.812353716178972,0.07228070175438592,0,0.05
1757329161.568148,-1.156,0.067,9.693,0.2913165932452183,6.812353716178972,0.07228070175438592,0,0.05
1757329161.5931852,-1.152,0.059,9.708,0.2969564235708667,6.776145719451296,0.07248120300751873,0,0.05
1757329161.6183605,-1.152,0.059,9.708,0.2969564235708667,6.776145719451296,0.07248120300751873,0,0.05
1757329161.6437552,-1.133,0.048,9.712,0.3023116603771677,6.659952179776802,0.0734335839598997,0,0.05
1757329161.6690357,-1.133,0.048,9.712,0.3023116603771677,6.659952179776802,0.0734335839598997,0,0.05
1757329161.6944163,-1.096,0.04,9.7,0.3072383114131439,6.4507474884516425,0.07528822055137838,0,0.05
1757329161.7201884,-1.096,0.04,9.7,0.3072383114131439,6.4507474884516425,0.07528822055137838,0,0.05
1757329161.745457,-1.09,0.038,9.688,0.31203466153618253,6.42323798640551,0.07558897243107764,0,0.05
1757329161.770811,-1.09,0.038,9.688,0.31203466153618253,6.42323798640551,0.07558897243107764,0,0.05
1757329161.796058,-1.101,0.051,9.688,0.3168534874354391,6.490497346700247,0.07614035087719292,0,0.05
1757329161.821659,-1.101,0.051,9.688,0.3168534874354391,6.490497346700247,0.07614035087719292,0,0.05
1757329161.8469162,-1.117,0.04,9.686,0.32173802231007764,6.582531858845966,0.07694235588972424,0,0.05
1757329161.871757,-1.117,0.04,9.686,0.32173802231007764,6.582531858845966,0.07694235588972424,0,0.05
1757329161.8968668,-1.138,0.053,9.685,0.32673072246117285,6.70879668452632,0.07799498746867162,0,0.05
1757329161.9219205,-1.138,0.053,9.685,0.32673072246117285,6.70879668452632,0.07799498746867162,0,0.05
1757329161.9470508,-1.138,0.053,9.685,0.32673072246117285,6.70879668452632,0.07799498746867162,0,0.05
1757329161.9726086,-1.144,0.05,9.704,0.3316998718721489,6.729899218495678,0.07829573934837088,0,0.05
1757329161.9976707,-1.144,0.05,9.704,0.3316998718721489,6.729899218495678,0.07829573934837088,0,0.05
1757329162.0231547,-1.136,0.053,9.699,0.3365279260328925,6.68755933426927,0.07869674185463653,0,0.05
1757329162.0484946,-1.136,0.053,9.699,0.3365279260328925,6.68755933426927,0.07869674185463653,0,0.05
1757329162.0736008,-1.13,0.046,9.692,0.34123788623187784,6.655606441769243,0.07899749373433577,0,0.05
1757329162.0985053,-1.13,0.046,9.692,0.34123788623187784,6.655606441769243,0.07899749373433577,0,0.05
1757329162.1235478,-1.113,0.043,9.685,0.34574588573112475,6.560519445781779,0.07984962406015031,0,0.05
1757329162.1488352,-1.113,0.043,9.685,0.34574588573112475,6.560519445781779,0.07984962406015031,0,0.05
1757329162.1738636,-1.109,0.043,9.683,0.35016413294339555,6.538519553742734,0.08005012531328314,0,0.05
1757329162.1988382,-1.109,0.043,9.683,0.35016413294339555,6.538519553742734,0.08005012531328314,0,0.05
1757329162.2236168,-1.107,0.041,9.694,0.35451169585783765,6.519062464156049,0.08015037593984954,0,0.05
1757329162.248604,-1.107,0.041,9.694,0.35451169585783765,6.519062464156049,0.08015037593984954,0,0.05
1757329162.2737024,-1.109,0.047,9.696,0.3588220241289545,6.530774667488085,0.08025062656641596,0,0.05
1757329162.2987945,-1.109,0.047,9.696,0.3588220241289545,6.530774667488085,0.08025062656641596,0,0.05
1757329162.3239763,-1.109,0.047,9.696,0.3588220241289545,6.530774667488085,0.08025062656641596,0,0.05
1757329162.3490078,-1.139,0.057,9.685,0.3633132911138815,6.7157512284728105,0.0817543859649122,0,0.05
1757329162.3741674,-1.139,0.057,9.685,0.3633132911138815,6.7157512284728105,0.0817543859649122,0,0.05
1757329162.3996968,-1.148,0.053,9.697,0.367819667092449,6.7587822532955295,0.08220551378446107,0,0.05
1757329162.4256124,-1.148,0.053,9.697,0.367819667092449,6.7587822532955295,0.08220551378446107,0,0.05
1757329162.4514492,-1.151,0.063,9.689,0.3722946548098696,6.784720829458445,0.08235588972431071,0,0.05
1757329162.4765823,-1.151,0.063,9.689,0.3722946548098696,6.784720829458445,0.08235588972431071,0,0.05
1757329162.5027363,-1.147,0.056,9.69,0.37668598659891767,6.758625064895567,0.08255639097744354,0,0.05
1757329162.528952,-1.147,0.056,9.69,0.37668598659891767,6.758625064895567,0.08255639097744354,0,0.05
1757329162.5548556,-1.13,0.057,9.709,0.3808997013650707,6.646972872948464,0.08340852130325807,0,0.05
1757329162.5806868,-1.13,0.057,9.709,0.3808997013650707,6.646972872948464,0.08340852130325807,0,0.05
1757329162.6062686,-1.106,0.053,9.708,0.3848930663184256,6.506888188938086,0.08461152882205508,0,0.05
1757329162.632839,-1.106,0.053,9.708,0.3848930663184256,6.506888188938086,0.08461152882205508,0,0.05
1757329162.6585646,-1.1,0.058,9.69,0.38880287100277433,6.485360031137518,0.0849122807017543,0,0.05
1757329162.684261,-1.1,0.058,9.69,0.38880287100277433,6.485360031137518,0.0849122807017543,0,0.05
1757329162.7102964,-1.102,0.057,9.684,0.3926877671891499,6.500705105272419,0.08501253132832072,0,0.05
1757329162.7360814,-1.102,0.057,9.684,0.3926877671891499,6.500705105272419,0.08501253132832072,0,0.05
1757329162.7613733,-1.104,0.056,9.69,0.39654851216465303,6.5080745285551895,0.08511278195488713,0,0.05
1757329162.787121,-1.104,0.056,9.69,0.39654851216465303,6.5080745285551895,0.08511278195488713,0,0.05
1757329162.8128803,-1.136,0.068,9.693,0.4005957594633273,6.696312645085907,0.08671679197994978,0,0.05
1757329162.8395758,-1.136,0.068,9.693,0.4005957594633273,6.696312645085907,0.08671679197994978,0,0.05
1757329162.8658187,-1.136,0.068,9.693,0.4005957594633273,6.696312645085907,0.08671679197994978,0,0.05
1757329162.8915758,-1.134,0.061,9.693,0.4045884977356623,6.682354056468401,0.08681704260651618,0,0.05
1757329162.9168565,-1.134,0.061,9.693,0.4045884977356623,6.682354056468401,0.08681704260651618,0,0.05
1757329162.9422057,-1.139,0.066,9.702,0.40857698784929136,6.706917542224035,0.08706766917293222,0,0.05
1757329162.9674993,-1.139,0.066,9.702,0.40857698784929136,6.706917542224035,0.08706766917293222,0,0.05
1757329162.9924636,-1.12,0.065,9.697,0.4123968416464898,6.599436736254282,0.08802005012531317,0,0.05
1757329163.0174797,-1.12,0.065,9.697,0.4123968416464898,6.599436736254282,0.08802005012531317,0,0.05
1757329163.0425358,-1.096,0.054,9.666,0.41602186841559186,6.476755773999668,0.08922305764411015,0,0.05
1757329163.067736,-1.096,0.054,9.666,0.41602186841559186,6.476755773999668,0.08922305764411015,0,0.05
1757329163.0928638,-1.088,0.047,9.683,0.41956352915857686,6.41690049360703,0.08962406015037581,0,0.05
1757329163.11789,-1.088,0.047,9.683,0.41956352915857686,6.41690049360703,0.08962406015037581,0,0.05
1757329163.1428962,-1.088,0.052,9.691,0.42307554289984667,6.412974200908526,0.08962406015037581,0,0.05
1757329163.1683848,-1.088,0.052,9.691,0.42307554289984667,6.412974200908526,0.08962406015037581,0,0.05
1757329163.1936269,-1.089,0.061,9.696,0.42656502142111935,6.418244683189885,0.08967418546365905,0,0.05
1757329163.2190385,-1.089,0.061,9.696,0.42656502142111935,6.418244683189885,0.08967418546365905,0,0.05
1757329163.2443428,-1.118,0.075,9.675,0.43021218892541857,6.606294494804171,0.09112781954887209,0,0.05
1757329163.2692816,-1.118,0.075,9.675,0.43021218892541857,6.606294494804171,0.09112781954887209,0,0.05
1757329163.2942057,-1.118,0.075,9.675,0.43021218892541857,6.606294494804171,0.09112781954887209,0,0.05
1757329163.3192494,-1.142,0.076,9.67,0.4339849507759457,6.750036112911607,0.09233082706766907,0,0.05
1757329163.3441987,-1.142,0.076,9.67,0.4339849507759457,6.750036112911607,0.09233082706766907,0,0.05
1757329163.3696454,-1.146,0.066,9.677,0.4377513306661671,6.764892107516178,0.09253132832080191,0,0.05
1757329163.3950837,-1.146,0.066,9.677,0.4377513306661671,6.764892107516178,0.09253132832080191,0,0.05
1757329163.4207056,-1.137,0.069,9.692,0.4414274005994644,6.703168727709381,0.09298245614035078,0,0.05
1757329163.4458206,-1.137,0.069,9.692,0.4414274005994644,6.703168727709381,0.09298245614035078,0,0.05
1757329163.4710197,-1.113,0.06,9.704,0.444921422837786,6.552364863129199,0.09418546365914776,0,0.05
1757329163.4962363,-1.113,0.06,9.704,0.444921422837786,6.552364863129199,0.09418546365914776,0,0.05
1757329163.5215771,-1.097,0.056,9.707,0.4482896329383494,6.456035102668368,0.09498746867167909,0,0.05
1757329163.5469303,-1.097,0.056,9.707,0.4482896329383494,6.456035102668368,0.09498746867167909,0,0.05
1757329163.5721464,-1.098,0.048,9.684,0.45163879926330514,6.474861737486157,0.09503759398496231,0,0.05
1757329163.598964,-1.098,0.048,9.684,0.45163879926330514,6.474861737486157,0.09503759398496231,0,0.05
1757329163.6239564,-1.1,0.056,9.682,0.4549753894443083,6.490068367997367,0.09513784461152872,0,0.05
1757329163.6490157,-1.1,0.056,9.682,0.4549753894443083,6.490068367997367,0.09513784461152872,0,0.05
1757329163.67456,-1.1,0.056,9.682,0.4549753894443083,6.490068367997367,0.09513784461152872,0,0.05
1757329163.7005563,-1.073,0.058,9.681,0.4581276323253161,6.333759429474651,0.09649122807017534,0,0.05
1757329163.7270696,-1.073,0.058,9.681,0.4581276323253161,6.333759429474651,0.09649122807017534,0,0.05
1757329163.7528358,-1.023,-0.029,9.786,0.46097424006119914,5.97023845901989,0.09899749373433574,0,0.05
1757329163.7807486,-1.023,-0.029,9.786,0.46097424006119914,5.97023845901989,0.09899749373433574,0,0.05
1757329163.8070486,-0.857,-0.12,9.811,0.46296152377924454,5.040620752302506,0.10731829573934827,0,0.05
1757329163.8340542,-0.857,-0.12,9.811,0.46296152377924454,5.040620752302506,0.10731829573934827,0,0.05
1757329163.860018,-1.142,0.001,9.699,0.4664694872121863,6.715323290864981,0.12160401002506253,0,0.05
1757329163.885445,-1.142,0.001,9.699,0.4664694872121863,6.715323290864981,0.12160401002506253,0,0.05
1757329163.9112842,-0.591,0.128,9.6,0.46740451966150265,3.6042897356520496,0.14922305764411017,0,0.05
1757329163.9378307,-0.591,0.128,9.6,0.46740451966150265,3.6042897356520496,0.14922305764411017,0,0.05
1757329163.9645247,-0.841,-0.008,9.708,0.4692922197309476,4.951371511534591,0.16175438596491218,0,0.05
1757329163.990829,-0.841,-0.008,9.708,0.4692922197309476,4.951371511534591,0.16175438596491218,0,0.05
1757329164.0171795,-0.998,-0.01,9.547,0.4719377051052395,5.968062941209461,0.16962406015037584,0,0.05
1757329164.043108,-0.998,-0.01,9.547,0.4719377051052395,5.968062941209461,0.16962406015037584,0,0.05
1757329164.0690289,-1.274,0.083,9.678,0.47621726921647856,7.514943302320018,0.18345864661654127,0,0.05
1757329164.095677,-1.274,0.083,9.678,0.47621726921647856,7.514943302320018,0.18345864661654127,0,0.05
1757329164.1229866,-1.179,0.102,9.756,0.4798520501154496,6.916196123094399,0.18822055137844604,0,0.05
1757329164.1501539,-1.179,0.102,9.756,0.4798520501154496,6.916196123094399,0.18822055137844604,0,0.05
1757329164.1767123,-1.036,0.146,9.603,0.48263985537872856,6.217792712299897,0.19538847117794478,0,0.05
1757329164.2034776,-1.036,0.146,9.603,0.48263985537872856,6.217792712299897,0.19538847117794478,0,0.05
1757329164.2303257,-1.366,0.048,9.779,0.4874485819037737,7.956870604131856,0.21192982456140344,0,0.05
1757329164.2572236,-1.366,0.048,9.779,0.4874485819037737,7.956870604131856,0.21192982456140344,0,0.05
1757329164.283445,-1.366,0.048,9.779,0.4874485819037737,7.956870604131856,0.21192982456140344,0,0.05
1757329164.3086977,-0.773,0.385,9.665,0.48897846833986464,5.105835545353061,0.2416541353383458,0,0.05
1757329164.334854,-1.136,-0.002,9.598,0.4922663735214909,6.7500211912065025,0.2598496240601503,0,0.05
1757329164.36082,-1.136,-0.002,9.598,0.4922663735214909,6.7500211912065025,0.2598496240601503,0,0.05
1757329164.3872993,-1.375,0.144,9.851,0.4970440071060107,7.988889333535874,0.27182957393483703,0,0.05
1757329164.414036,-1.375,0.144,9.851,0.4970440071060107,7.988889333535874,0.27182957393483703,0,0.05
1757329164.44097,-1.12,-0.081,9.774,0.5001887093887666,6.553920148159843,0.28461152882205504,0,0.05
1757329164.4665523,-1.12,-0.081,9.774,0.5001887093887666,6.553920148159843,0.28461152882205504,0,0.05
1757329164.4923325,-1.124,0.052,9.597,0.503336055732152,6.687125382976737,0.28481203007518785,0,0.05
1757329164.5180547,-1.124,0.052,9.597,0.503336055732152,6.687125382976737,0.28481203007518785,0,0.05
1757329164.5446858,-0.948,-0.07,9.54,0.505562998052666,5.690260990086853,0.2936340852130324,0,0.05
1757329164.570585,-0.948,-0.07,9.54,0.505562998052666,5.690260990086853,0.2936340852130324,0,0.05
1757329164.5972435,-1.187,-0.046,9.649,0.5090347409558605,7.018383823985735,0.3056140350877192,0,0.05
1757329164.6231706,-1.187,-0.046,9.649,0.5090347409558605,7.018383823985735,0.3056140350877192,0,0.05
1757329164.6487925,-1.149,-0.313,9.54,0.5122664053009918,7.115373854901048,0.3075187969924811,0,0.05
1757329164.6746619,-1.149,-0.313,9.54,0.5122664053009918,7.115373854901048,0.3075187969924811,0,0.05
1757329164.7005463,-1.149,-0.313,9.54,0.5122664053009918,7.115373854901048,0.3075187969924811,0,0.05
1757329164.7263267,-1.292,0.009,9.416,0.5163235710288656,7.813138622248135,0.3146867167919799,0,0.05
1757329164.752158,-1.292,0.009,9.416,0.5163235710288656,7.813138622248135,0.3146867167919799,0,0.05
1757329164.778618,-1.203,-0.021,9.492,0.5198154023304812,7.224149413314805,0.31914786967418535,0,0.05
1757329164.8049517,-1.203,-0.021,9.492,0.5198154023304812,7.224149413314805,0.31914786967418535,0,0.05
1757329164.8313892,-1.142,0.119,9.538,0.5229421215583996,6.8642293035123725,0.3222055137844611,0,0.05
1757329164.8571255,-1.142,0.119,9.538,0.5229421215583996,6.8642293035123725,0.3222055137844611,0,0.05
1757329164.8833733,-0.929,-0.343,9.524,0.5250010142847346,5.936237300158545,0.3328822055137844,0,0.05
1757329164.9091253,-0.929,-0.343,9.524,0.5250010142847346,5.936237300158545,0.3328822055137844,0,0.05
1757329164.9355395,-1.208,0.165,9.57,0.5284640243195369,7.260361917504513,0.34686716791979944,0,0.05
1757329164.962853,-1.208,0.165,9.57,0.5284640243195369,7.260361917504513,0.34686716791979944,0,0.05
1757329164.9883566,-0.798,-0.305,9.5,0.5299681452691284,5.138578443621685,0.3674185463659147,0,0.05
1757329165.0148113,-0.798,-0.305,9.5,0.5299681452691284,5.138578443621685,0.3674185463659147,0,0.05
1757329165.041576,-1.374,-0.074,9.653,0.5344023998823358,8.112600371423875,0.3962907268170425,0,0.05
1757329165.068108,-1.374,-0.074,9.653,0.5344023998823358,8.112600371423875,0.3962907268170425,0,0.05
1757329165.0954642,-1.193,-0.06,9.631,0.5377211614768382,7.070141002930755,0.4053634085213032,0,0.05
1757329165.1229765,-1.193,-0.06,9.631,0.5377211614768382,7.070141002930755,0.4053634085213032,0,0.05
1757329165.14904,-1.109,0.132,9.698,0.5405726130687718,6.569281325495486,0.4095739348370927,0,0.05
1757329165.1758325,-1.109,0.132,9.698,0.5405726130687718,6.569281325495486,0.4095739348370927,0,0.05
1757329165.2025564,-1.025,0.159,9.615,0.5429966045013541,6.157213060361967,0.4137844611528822,0,0.05
1757329165.2290764,-1.025,0.159,9.615,0.5429966045013541,6.157213060361967,0.4137844611528822,0,0.05
1757329165.254657,-1.025,0.159,9.615,0.5429966045013541,6.157213060361967,0.4137844611528822,0,0.05
1757329165.2808373,-0.974,-0.094,9.422,0.5451761206252527,5.929218711308584,0.41634085213032584,0,0.05
1757329165.3086402,-1.03,-0.048,9.615,0.5476031889059815,6.121037086773109,0.4191478696741855,0,0.05
1757329165.335817,-1.03,-0.048,9.615,0.5476031889059815,6.121037086773109,0.4191478696741855,0,0.05
1757329165.3620794,-1.085,0.366,9.683,0.5502838494813381,6.744220231709139,0.4219047619047619,0,0.05
1757329165.3878198,-1.085,0.366,9.683,0.5502838494813381,6.744220231709139,0.4219047619047619,0,0.05
1757329165.4137163,-1.153,0.23,9.719,0.553295434194066,6.897607055424868,0.42531328320802003,0,0.05
1757329165.4412348,-1.153,0.23,9.719,0.553295434194066,6.897607055424868,0.42531328320802003,0,0.05
1757329165.4675817,-1.216,0.215,9.81,0.5566259763072506,7.174528606803459,0.4284711779448621,0,0.05
1757329165.494109,-1.216,0.215,9.81,0.5566259763072506,7.174528606803459,0.4284711779448621,0,0.05
1757329165.5198238,-1.111,0.134,9.788,0.5593909902742447,6.522247419284508,0.4337343358395989,0,0.05
1757329165.545596,-1.111,0.134,9.788,0.5593909902742447,6.522247419284508,0.4337343358395989,0,0.05
1757329165.571763,-1.293,-0.244,9.597,0.5631144666051477,7.80700613776771,0.4428571428571428,0,0.05
1757329165.5991971,-1.293,-0.244,9.597,0.5631144666051477,7.80700613776771,0.4428571428571428,0,0.05
1757329165.6243865,-1.223,0.146,9.758,0.5664249508981751,7.193999315086621,0.44636591478696724,0,0.05
1757329165.6506915,-1.223,0.146,9.758,0.5664249508981751,7.193999315086621,0.44636591478696724,0,0.05
1757329165.677569,-0.866,-0.143,9.65,0.568077560725646,5.197105032527768,0.46426065162907254,0,0.05
1757329165.7047684,-0.866,-0.143,9.65,0.568077560725646,5.197105032527768,0.46426065162907254,0,0.05
1757329165.7310176,-1.172,-0.074,9.649,0.5710920022203078,6.939069958607324,0.4795989974937343,0,0.05
1757329165.757265,-1.172,-0.074,9.649,0.5710920022203078,6.939069958607324,0.4795989974937343,0,0.05
1757329165.783114,-1.202,0.126,9.841,0.5742456660698451,7.001508976261162,0.48110275689223037,0,0.05
1757329165.8095157,-1.202,0.126,9.841,0.5742456660698451,7.001508976261162,0.48110275689223037,0,0.05
1757329165.8354669,-1.202,0.126,9.841,0.5742456660698451,7.001508976261162,0.48110275689223037,0,0.05
1757329165.860868,-1.016,0.055,9.698,0.5764882696117937,5.9894039785564255,0.4904260651629072,0,0.05
1757329165.888061,-1.016,0.055,9.698,0.5764882696117937,5.9894039785564255,0.4904260651629072,0,0.05
1757329165.9144754,-0.991,0.091,9.609,0.5786137982281446,5.912836175002433,0.4916791979949873,0,0.05
1757329165.9408588,-0.991,0.091,9.609,0.5786137982281446,5.912836175002433,0.4916791979949873,0,0.05
1757329165.9668896,-1.029,-0.149,9.655,0.580896746418845,6.146405471149702,0.4935839598997493,0,0.05
1757329165.9930897,-1.029,-0.149,9.655,0.580896746418845,6.146405471149702,0.4935839598997493,0,0.05
1757329166.0190542,-1.052,-0.192,9.805,0.5832733407245697,6.224333532687193,0.4947368421052631,0,0.05
1757329166.0461886,-1.052,-0.192,9.805,0.5832733407245697,6.224333532687193,0.4947368421052631,0,0.05
1757329166.0730488,-1.241,0.058,9.621,0.5865645680570896,7.357857842613932,0.5042105263157893,0,0.05
1757329166.10029,-1.241,0.058,9.621,0.5865645680570896,7.357857842613932,0.5042105263157893,0,0.05
1757329166.1259375,-1.088,-0.039,9.53,0.5890817876152683,6.517166210388142,0.5118796992481202,0,0.05
1757329166.1521835,-1.088,-0.039,9.53,0.5890817876152683,6.517166210388142,0.5118796992481202,0,0.05
1757329166.1779795,-1.054,0.245,9.725,0.5914343940793434,6.349181453337463,0.5135839598997493,0,0.05
1757329166.2049754,-1.054,0.245,9.725,0.5914343940793434,6.349181453337463,0.5135839598997493,0,0.05
1757329166.2305307,-1.123,-0.178,9.444,0.5940938183485838,6.865136566412239,0.5170426065162906,0,0.05
1757329166.2569945,-1.123,-0.178,9.444,0.5940938183485838,6.865136566412239,0.5170426065162906,0,0.05
1757329166.2829485,-0.999,-0.329,9.413,0.5961899592411801,6.375612859341636,0.5232581453634084,0,0.05
1757329166.3098443,-0.999,-0.329,9.413,0.5961899592411801,6.375612859341636,0.5232581453634084,0,0.05
1757329166.3366845,-1.137,-0.134,9.757,0.5988943062010191,6.692382452451812,0.5301754385964911,0,0.05
1757329166.36406,-1.137,-0.134,9.757,0.5988943062010191,6.692382452451812,0.5301754385964911,0,0.05
1757329166.390895,-0.814,-0.06,9.583,0.6002756700050402,4.8682768219609365,0.5463659147869673,0,0.05
1757329166.4177892,-0.814,-0.06,9.583,0.6002756700050402,4.8682768219609365,0.5463659147869673,0,0.05
1757329166.4442737,-1.239,-0.086,9.65,0.6034639032286853,7.333805665071006,0.5676691729323307,0,0.05
1757329166.470776,-1.239,-0.086,9.65,0.6034639032286853,7.333805665071006,0.5676691729323307,0,0.05
1757329166.4967647,-1.006,-0.079,9.759,0.6055565807585613,5.903500355189791,0.5793483709273182,0,0.05
1757329166.522658,-1.006,-0.079,9.759,0.6055565807585613,5.903500355189791,0.5793483709273182,0,0.05
1757329166.5496109,-1.048,0.064,9.694,0.6078194900626337,6.181580960929211,0.5814536340852129,0,0.05
1757329166.575355,-1.048,0.064,9.694,0.6078194900626337,6.181580960929211,0.5814536340852129,0,0.05
1757329166.6015146,-1.153,0.009,9.62,0.6105473405068603,6.834759614211081,0.5867167919799497,0,0.05
1757329166.6271963,-1.153,0.009,9.62,0.6105473405068603,6.834759614211081,0.5867167919799497,0,0.05
1757329166.6547327,-0.908,0.151,9.714,0.6122329744468196,5.413016706997787,0.5989974937343358,0,0.05
1757329166.6824534,-0.908,0.151,9.714,0.6122329744468196,5.413016706997787,0.5989974937343358,0,0.05
1757329166.709187,-0.984,0.244,9.676,0.6142066875246476,5.981329201105554,0.6028070175438596,0,0.05
1757329166.7361357,-0.984,0.244,9.676,0.6142066875246476,5.981329201105554,0.6028070175438596,0,0.05
1757329166.7613463,-1.051,0.31,9.594,0.6164506123770176,6.515721678462104,0.6061654135338346,0,0.05
1757329166.7877226,-1.051,0.31,9.594,0.6164506123770176,6.515721678462104,0.6061654135338346,0,0.05
1757329166.8151097,-0.96,0.318,9.791,0.6183165512098152,5.89708614656294,0.6107268170426065,0,0.05
1757329166.8414323,-0.96,0.318,9.791,0.6183165512098152,5.89708614656294,0.6107268170426065,0,0.05
1757329166.8674417,-1.067,0.396,9.744,0.6206138735155701,6.662051518357067,0.6160902255639098,0,0.05
1757329166.8943782,-1.067,0.396,9.744,0.6206138735155701,6.662051518357067,0.6160902255639098,0,0.05
1757329166.9215922,-0.872,-0.103,9.738,0.6221435043460632,5.152348287599789,0.6258646616541352,0,0.05
1757329166.9488978,-0.872,-0.103,9.738,0.6221435043460632,5.152348287599789,0.6258646616541352,0,0.05
1757329166.9753206,-1.14,-0.111,9.863,0.6247491816721331,6.62409313081271,0.6392982456140349,0,0.05
1757329167.000902,-1.14,-0.111,9.863,0.6247491816721331,6.62409313081271,0.6392982456140349,0,0.05
1757329167.0263994,-1.0,-0.245,9.9,0.6267467909770261,5.937273849346111,0.6463157894736842,0,0.05
1757329167.0538714,-1.0,-0.245,9.9,0.6267467909770261,5.937273849346111,0.6463157894736842,0,0.05
1757329167.0811388,-0.793,0.057,9.619,0.6279997312897514,4.724967776755068,0.6566917293233081,0,0.05
1757329167.1079044,-0.793,0.057,9.619,0.6279997312897514,4.724967776755068,0.6566917293233081,0,0.05
1757329167.1343248,-1.007,-0.119,9.714,0.630014908553758,5.959302332688253,0.6674185463659147,0,0.05
1757329167.160727,-1.007,-0.119,9.714,0.630014908553758,5.959302332688253,0.6674185463659147,0,0.05
1757329167.1864047,-1.15,-0.015,9.536,0.6326334128071327,6.876993421945211,0.6745864661654134,0,0.05
1757329167.2126453,-1.15,-0.015,9.536,0.6326334128071327,6.876993421945211,0.6745864661654134,0,0.05
1757329167.2381268,-1.15,-0.015,9.536,0.6326334128071327,6.876993421945211,0.6745864661654134,0,0.05
1757329167.263998,-0.986,-0.14,9.558,0.6345514360554233,5.948431893713358,0.6828070175438596,0,0.05
1757329167.2915566,-0.986,-0.14,9.558,0.6345514360554233,5.948431893713358,0.6828070175438596,0,0.05
1757329167.3184927,-1.163,-0.302,9.713,0.637210285149259,7.052089920838833,0.6916791979949876,0,0.05
1757329167.3447583,-1.163,-0.302,9.713,0.637210285149259,7.052089920838833,0.6916791979949876,0,0.05
1757329167.3712914,-1.003,-0.206,9.743,0.6391807021492436,5.9994501636099855,0.6996992481203006,0,0.05
1757329167.3983905,-1.003,-0.206,9.743,0.6391807021492436,5.9994501636099855,0.6996992481203006,0,0.05
1757329167.4243894,-1.066,0.097,9.798,0.6413991425002064,6.234678776478504,0.7028571428571428,0,0.05
1757329167.4512432,-1.066,0.097,9.798,0.6413991425002064,6.234678776478504,0.7028571428571428,0,0.05
1757329167.478412,-1.132,-0.11,9.919,0.6438916213152646,6.5410801154326315,0.7061654135338346,0,0.05
1757329167.5051768,-1.132,-0.11,9.919,0.6438916213152646,6.5410801154326315,0.7061654135338346,0,0.05
1757329167.5315022,-1.083,0.111,9.995,0.646164563017812,6.216254251105607,0.7086215538847118,0,0.05
1757329167.55732,-1.083,0.111,9.995,0.646164563017812,6.216254251105607,0.7086215538847118,0,0.05
1757329167.5830324,-1.287,-0.056,9.915,0.6493608896445796,7.40275102453674,0.7188471177944861,0,0.05
1757329167.6092224,-1.287,-0.056,9.915,0.6493608896445796,7.40275102453674,0.7188471177944861,0,0.05
1757329167.6354117,-1.082,-0.307,9.841,0.6516106007424987,6.51994238630067,0.7291228070175437,0,0.05
1757329167.6610012,-1.082,-0.307,9.841,0.6516106007424987,6.51994238630067,0.7291228070175437,0,0.05
1757329167.686763,-1.112,-0.133,9.777,0.6539783903157658,6.534575545142552,0.7306265664160401,0,0.05
1757329167.7123756,-1.112,-0.133,9.777,0.6539783903157658,6.534575545142552,0.7306265664160401,0,0.05
1757329167.738054,-1.123,-0.153,9.764,0.6563844586063872,6.621083988800578,0.7311779448621553,0,0.05
1757329167.7641325,-1.123,-0.153,9.764,0.6563844586063872,6.621083988800578,0.7311779448621553,0,0.05
1757329167.7903023,-0.878,0.575,9.667,0.657850870258602,6.196225912851852,0.7434586466165414,0,0.05
1757329167.816216,-0.878,0.575,9.667,0.657850870258602,6.196225912851852,0.7434586466165414,0,0.05
1757329167.84203,-1.231,0.083,9.853,0.6607239741374609,7.137440320429575,0.7611528822055138,0,0.05
1757329167.86823,-1.231,0.083,9.853,0.6607239741374609,7.137440320429575,0.7611528822055138,0,0.05
1757329167.8945074,-1.133,0.252,9.94,0.6631480924348648,6.6602241541186755,0.7660651629072679,0,0.05
1757329167.9198785,-1.133,0.252,9.94,0.6631480924348648,6.6602241541186755,0.7660651629072679,0,0.05
1757329167.9456668,-1.261,0.087,9.911,0.6661386454785521,7.267971709793749,0.7724812030075185,0,0.05
1757329167.9727373,-1.261,0.087,9.911,0.6661386454785521,7.267971709793749,0.7724812030075185,0,0.05
1757329167.9990528,-1.192,0.011,9.82,0.6687995626493786,6.921276522237431,0.7759398496240599,0,0.05
1757329168.0265055,-1.192,0.011,9.82,0.6687995626493786,6.921276522237431,0.7759398496240599,0,0.05
1757329168.053356,-1.118,0.242,9.849,0.6711316301590918,6.624817663336524,0.7796491228070174,0,0.05
1757329168.0789006,-1.118,0.242,9.849,0.6711316301590918,6.624817663336524,0.7796491228070174,0,0.05
1757329168.1049774,-1.068,0.068,9.755,0.6732527200093588,6.260541647662013,0.7821553884711777,0,0.05
1757329168.130819,-1.068,0.068,9.755,0.6732527200093588,6.260541647662013,0.7821553884711777,0,0.05
1757329168.157188,-1.068,0.068,9.755,0.6732527200093588,6.260541647662013,0.7821553884711777,0,0.05
1757329168.1841106,-1.009,0.21,9.768,0.6751403020854257,6.022993483611154,0.7851127819548872,0,0.05
1757329168.2111876,-1.009,0.21,9.768,0.6751403020854257,6.022993483611154,0.7851127819548872,0,0.05
1757329168.2372224,-1.013,0.366,9.735,0.6770375543498307,6.313588441897089,0.7853132832080199,0,0.05
1757329168.2632027,-1.013,0.366,9.735,0.6770375543498307,6.313588441897089,0.7853132832080199,0,0.05
1757329168.2899997,-1.297,0.261,9.805,0.6801362896508317,7.684576122618721,0.7995488721804511,0,0.05
1757329168.3170073,-1.297,0.261,9.805,0.6801362896508317,7.684576122618721,0.7995488721804511,0,0.05
1757329168.343949,-0.864,0.418,9.802,0.6815068690042676,5.592517123386711,0.8212531328320801,0,0.05
1757329168.3715684,-0.864,0.418,9.802,0.6815068690042676,5.592517123386711,0.8212531328320801,0,0.05
1757329168.3985758,-1.094,0.339,9.721,0.6836985465100829,6.719560061643827,0.832781954887218,0,0.05
1757329168.424208,-1.094,0.339,9.721,0.6836985465100829,6.719560061643827,0.832781954887218,0,0.05
1757329168.4516783,-1.066,0.204,9.743,0.6857729890422923,6.356390374836681,0.8341854636591478,0,0.05
1757329168.4779131,-1.066,0.204,9.743,0.6857729890422923,6.356390374836681,0.8341854636591478,0,0.05
1757329168.5040424,-0.988,0.403,9.725,0.6875499636390071,6.261464394232198,0.838095238095238,0,0.05
1757329168.530998,-0.988,0.403,9.725,0.6875499636390071,6.261464394232198,0.838095238095238,0,0.05
1757329168.5573525,-0.983,0.307,9.575,0.689304486420914,6.138760637048985,0.8383458646616542,0,0.05
1757329168.5834668,-0.983,0.307,9.575,0.689304486420914,6.138760637048985,0.8383458646616542,0,0.05
1757329168.611066,-1.064,0.537,9.587,0.6913544062201383,7.086514770309547,0.8424060150375942,0,0.05
1757329168.638003,-1.064,0.537,9.587,0.6913544062201383,7.086514770309547,0.8424060150375942,0,0.05
1757329168.6642022,-0.969,0.175,9.611,0.69305001082173,5.849712881554226,0.8471679197994987,0,0.05
1757329168.6913962,-0.969,0.175,9.611,0.69305001082173,5.849712881554226,0.8471679197994987,0,0.05
1757329168.7179394,-1.06,0.282,9.396,0.6950736058145209,6.658456293909862,0.8517293233082707,0,0.05
1757329168.7440293,-1.06,0.282,9.396,0.6950736058145209,6.658456293909862,0.8517293233082707,0,0.05
1757329168.770153,-1.324,0.293,9.484,0.6982189896443666,8.137062790785787,0.8649624060150375,0,0.05
1757329168.7970064,-1.324,0.293,9.484,0.6982189896443666,8.137062790785787,0.8649624060150375,0,0.05
1757329168.8235602,-1.177,0.094,9.75,0.7006947124104763,6.9050271271139545,0.8723308270676691,0,0.05
1757329168.8502848,-1.177,0.094,9.75,0.7006947124104763,6.9050271271139545,0.8723308270676691,0,0.05
1757329168.8754096,-0.89,0.226,9.455,0.7021063523427202,5.547028166785689,0.8867167919799498,0,0.05
1757329168.901854,-0.89,0.226,9.455,0.7021063523427202,5.547028166785689,0.8867167919799498,0,0.05
1757329168.9278286,-0.81,0.302,9.541,0.7032734745459976,5.17717886263202,0.8907268170426064,0,0.05
1757329168.9548404,-0.81,0.302,9.541,0.7032734745459976,5.17717886263202,0.8907268170426064,0,0.05
1757329168.981525,-0.782,-0.046,9.489,0.7043595601679585,4.719275486442118,0.8921303258145361,0,0.05
1757329169.0091984,-0.782,-0.046,9.489,0.7043595601679585,4.719275486442118,0.8921303258145361,0,0.05
1757329169.035146,-0.806,0.216,9.35,0.7055115023867435,5.099853249045426,0.8933333333333333,0,0.05
1757329169.0612566,-0.806,0.216,9.35,0.7055115023867435,5.099853249045426,0.8933333333333333,0,0.05
1757329169.0880756,-0.806,0.216,9.35,0.7055115023867435,5.099853249045426,0.8933333333333333,0,0.05
1757329169.1145685,-1.35,-0.038,9.508,0.7087331867494283,8.084323275419022,0.9206015037593983,0,0.05
1757329169.140643,-1.305,0.003,9.443,0.7117304914783404,7.868321601676974,0.9228571428571429,0,0.05
1757329169.1677663,-1.305,0.003,9.443,0.7117304914783404,7.868321601676974,0.9228571428571429,0,0.05
1757329169.1942537,-1.422,-0.081,9.499,0.7152730265430118,8.527551158321437,0.9287218045112781,0,0.05
1757329169.2206187,-1.422,-0.081,9.499,0.7152730265430118,8.527551158321437,0.9287218045112781,0,0.05
1757329169.2474263,-1.246,-0.112,9.649,0.717981053022989,7.387370459798392,0.9375438596491227,0,0.05
1757329169.2734652,-1.246,-0.112,9.649,0.717981053022989,7.387370459798392,0.9375438596491227,0,0.05
1757329169.299177,-1.298,-0.007,9.791,0.720908317679856,7.551816794558561,0.9401503759398495,0,0.05
1757329169.3268306,-1.298,-0.007,9.791,0.720908317679856,7.551816794558561,0.9401503759398495,0,0.05
1757329169.3541188,-1.076,-0.212,9.648,0.7229130255431838,6.484963186153498,0.9512781954887215,0,0.05
1757329169.3811452,-1.076,-0.212,9.648,0.7229130255431838,6.484963186153498,0.9512781954887215,0,0.05
1757329169.4090526,-0.989,-0.178,9.676,0.7246023357676954,5.929135833037892,0.9556390977443608,0,0.05
1757329169.4355304,-0.989,-0.178,9.676,0.7246023357676954,5.929135833037892,0.9556390977443608,0,0.05
1757329169.4616315,-0.989,-0.178,9.676,0.7246023357676954,5.929135833037892,0.9556390977443608,0,0.05
1757329169.4882839,-0.879,-0.11,9.667,0.7259339828799861,5.235797528609678,0.9611528822055135,0,0.05
1757329169.5154178,-0.879,-0.11,9.667,0.7259339828799861,5.235797528609678,0.9611528822055135,0,0.05
1757329169.5408971,-0.57,-0.194,9.692,0.7264932191700072,3.554896961801914,0.9766416040100251,0,0.05
1757329169.5672812,-1.026,0.096,9.705,0.7283021951772493,6.060982992685168,0.9994987468671678,0,0.05
1757329169.5940647,-1.026,0.096,9.705,0.7283021951772493,6.060982992685168,0.9994987468671678,0,0.05
1757329169.620135,-0.855,0.152,9.85,0.7295557895048193,5.038343555835478,1.0080701754385966,0,0.05
1757329169.6472592,-0.855,0.152,9.85,0.7295557895048193,5.038343555835478,1.0080701754385966,0,0.05
1757329169.6736028,-0.67,-0.037,9.757,0.7303245169101199,3.9342236720892583,1.0173433583959899,0,0.05
1757329169.7004166,-0.67,-0.037,9.757,0.7303245169101199,3.9342236720892583,1.0173433583959899,0,0.05
1757329169.7261732,-1.126,0.193,9.669,0.7324913583107995,6.738423693989803,1.040200501253133,0,0.05
1757329169.7516344,-1.126,0.193,9.669,0.7324913583107995,6.738423693989803,1.040200501253133,0,0.05
1757329169.778039,-1.126,0.193,9.669,0.7324913583107995,6.738423693989803,1.040200501253133,0,0.05
1757329169.805483,-1.188,-0.055,9.775,0.734895876978501,6.936781260498252,1.0433082706766916,0,0.05
1757329169.831363,-1.188,-0.055,9.775,0.734895876978501,6.936781260498252,1.0433082706766916,0,0.05
1757329169.857379,-1.198,0.101,9.76,0.7373330048221088,7.022395599517404,1.043809523809524,0,0.05
1757329169.8832333,-1.198,0.101,9.76,0.7373330048221088,7.022395599517404,1.043809523809524,0,0.05
1757329169.9084992,-1.126,-0.13,9.722,0.739479310055393,6.650042583907341,1.0474185463659147,0,0.05
1757329169.9353337,-1.126,-0.13,9.722,0.739479310055393,6.650042583907341,1.0474185463659147,0,0.05
1757329169.9622653,-1.106,-0.089,9.753,0.7415441591705783,6.490495511498338,1.048421052631579,0,0.05
1757329169.9883747,-1.106,-0.089,9.753,0.7415441591705783,6.490495511498338,1.048421052631579,0,0.05
1757329170.015701,-1.213,-0.08,9.837,0.7440202702211816,7.0447722599249225,1.053784461152882,0,0.05
1757329170.042027,-1.213,-0.08,9.837,0.7440202702211816,7.0447722599249225,1.053784461152882,0,0.05
1757329170.0690606,-1.174,-0.148,9.684,0.7463322668222244,6.9664613665233945,1.0557393483709274,0,0.05
1757329170.095173,-1.174,-0.148,9.684,0.7463322668222244,6.9664613665233945,1.0557393483709274,0,0.05
1757329170.1214056,-1.083,-0.22,9.618,0.7482941099594463,6.554607690957147,1.0603007518796992,0,0.05
1757329170.1481452,-1.083,-0.22,9.618,0.7482941099594463,6.554607690957147,1.0603007518796992,0,0.05
1757329170.1754336,-1.04,-0.08,9.74,0.7500987101708682,6.112601231420654,1.062456140350877,0,0.05
1757329170.2026925,-1.04,-0.08,9.74,0.7500987101708682,6.112601231420654,1.062456140350877,0,0.05
1757329170.229405,-1.098,-0.301,9.644,0.7521051023626951,6.732817107700019,1.0653634085213033,0,0.05
1757329170.2558537,-1.098,-0.301,9.644,0.7521051023626951,6.732817107700019,1.0653634085213033,0,0.05
1757329170.2820826,-0.913,-0.088,9.575,0.7534892218870818,5.471916469956036,1.0746365914786966,0,0.05
1757329170.309422,-0.913,-0.088,9.575,0.7534892218870818,5.471916469956036,1.0746365914786966,0,0.05
1757329170.335438,-0.794,0.089,9.753,0.7545343580646278,4.683251898094767,1.0806015037593983,0,0.05
1757329170.3623836,-0.794,0.089,9.753,0.7545343580646278,4.683251898094767,1.0806015037593983,0,0.05
1757329170.389626,-0.578,-0.194,9.778,0.7550876157771362,3.5679493249238425,1.0914285714285714,0,0.05
1757329170.4175549,-0.578,-0.194,9.778,0.7550876157771362,3.5679493249238425,1.0914285714285714,0,0.05
1757329170.4429493,-0.727,-0.112,9.628,0.7559620559260894,4.368895241390118,1.0988972431077695,0,0.05
1757329170.4689503,-0.727,-0.112,9.628,0.7559620559260894,4.368895241390118,1.0988972431077695,0,0.05
1757329170.494785,-0.646,0.009,9.608,0.7566517825261498,3.8469011182306003,1.1029573934837091,0,0.05
1757329170.5210743,-0.646,0.009,9.608,0.7566517825261498,3.8469011182306003,1.1029573934837091,0,0.05
1757329170.5466592,-0.671,0.158,9.762,0.7573952221264668,4.039280403658477,1.1042105263157895,0,0.05
1757329170.5727236,-0.671,0.158,9.762,0.7573952221264668,4.039280403658477,1.1042105263157895,0,0.05
1757329170.6000853,-1.008,0.328,9.324,0.7590702750733953,6.485968595680369,1.1211027568922305,0,0.05
1757329170.6269174,-1.008,0.328,9.324,0.7590702750733953,6.485968595680369,1.1211027568922305,0,0.05
1757329170.6540742,-1.179,0.312,9.389,0.7613558859035635,7.400994716378568,1.1296741854636592,0,0.05
1757329170.6808329,-1.179,0.312,9.389,0.7613558859035635,7.400994716378568,1.1296741854636592,0,0.05
1757329170.7075734,-0.813,0.396,9.458,0.7624402976627088,5.4616600973362255,1.1480200501253133,0,0.05
1757329170.733814,-0.813,0.396,9.458,0.7624402976627088,5.4616600973362255,1.1480200501253133,0,0.05
1757329170.7602015,-0.84,0.288,9.563,0.763596233293486,5.305152036088189,1.14937343358396,0,0.05
1757329170.786238,-0.84,0.288,9.563,0.763596233293486,5.305152036088189,1.14937343358396,0,0.05
1757329170.8128247,-0.893,0.163,9.589,0.7649005360175923,5.407858702172863,1.1520300751879697,0,0.05
1757329170.8394735,-0.893,0.163,9.589,0.7649005360175923,5.407858702172863,1.1520300751879697,0,0.05
1757329170.865738,-0.763,0.08,9.631,0.7658513253236559,4.554428370203972,1.158546365914787,0,0.05
1757329170.8933876,-0.763,0.08,9.631,0.7658513253236559,4.554428370203972,1.158546365914787,0,0.05
1757329170.9200659,-0.774,0.043,9.685,0.7668284961449985,4.576234509248244,1.1590977443609025,0,0.05
1757329170.9471204,-0.774,0.043,9.685,0.7668284961449985,4.576234509248244,1.1590977443609025,0,0.05
1757329170.974488,-0.786,0.016,9.691,0.7678348992459251,4.637848569739229,1.159699248120301,0,0.05
1757329171.0002716,-0.786,0.016,9.691,0.7678348992459251,4.637848569739229,1.159699248120301,0,0.05
1757329171.0265892,-0.6,0.081,9.758,0.7684207392438077,3.5504105564790622,1.1690225563909775,0,0.05
1757329171.0536902,-0.6,0.081,9.758,0.7684207392438077,3.5504105564790622,1.1690225563909775,0,0.05
1757329171.0797186,-0.475,-0.148,9.72,0.7687876787514222,2.9301547948107625,1.1752882205513788,0,0.05
1757329171.1062212,-0.475,-0.148,9.72,0.7687876787514222,2.9301547948107625,1.1752882205513788,0,0.05
1757329171.1322732,-0.579,0.234,9.766,0.7693325662546725,3.658858665870879,1.1805012531328323,0,0.05
1757329171.1591065,-0.579,0.234,9.766,0.7693325662546725,3.658858665870879,1.1805012531328323,0,0.05
1757329171.185848,-0.506,-0.015,9.848,0.7697484572897824,2.9426172202023295,1.1841604010025064,0,0.05
1757329171.2130373,-0.506,-0.015,9.848,0.7697484572897824,2.9426172202023295,1.1841604010025064,0,0.05
1757329171.2397764,-0.978,-0.015,9.701,0.7713001345131479,5.757458713009106,1.2078195488721803,0,0.05
1757329171.2663913,-0.978,-0.015,9.701,0.7713001345131479,5.757458713009106,1.2078195488721803,0,0.05
1757329171.2935174,-0.968,-0.051,9.688,0.7728172212755097,5.713770107099471,1.2083208020050125,0,0.05
1757329171.31991,-0.968,-0.051,9.688,0.7728172212755097,5.713770107099471,1.2083208020050125,0,0.05
1757329171.345839,-0.918,-0.06,9.831,0.7741790926523398,5.346017607348405,1.2108270676691726,0,0.05
1757329171.371935,-0.918,-0.06,9.831,0.7741790926523398,5.346017607348405,1.2108270676691726,0,0.05
1757329171.3991163,-0.918,-0.06,9.831,0.7741790926523398,5.346017607348405,1.2108270676691726,0,0.05
1757329171.4252226,-0.913,0.108,9.667,0.7755238165266106,5.432689558521082,1.211077694235589,0,0.05
1757329171.4522533,-0.913,0.108,9.667,0.7755238165266106,5.432689558521082,1.211077694235589,0,0.05
1757329171.4797409,-0.808,0.055,9.664,0.776575398786235,4.790350561605208,1.2163408521303256,0,0.05
1757329171.5071282,-0.764,-0.036,9.692,0.7775143664267562,4.512166030918281,1.2185463659147868,0,0.05
1757329171.5339804,-0.764,-0.036,9.692,0.7775143664267562,4.512166030918281,1.2185463659147868,0,0.05
1757329171.5605795,-0.764,-0.036,9.692,0.7775143664267562,4.512166030918281,1.2185463659147868,0,0.05
1757329171.5871499,-0.697,-0.092,9.755,0.7782950035173039,4.122195292164889,1.2219047619047618,0,0.05
1757329171.614423,-0.697,-0.092,9.755,0.7782950035173039,4.122195292164889,1.2219047619047618,0,0.05
1757329171.6404247,-0.727,-0.213,9.735,0.7791433982265396,4.449689171976781,1.2234085213032582,0,0.05
1757329171.6654418,-0.727,-0.213,9.735,0.7791433982265396,4.449689171976781,1.2234085213032582,0,0.05
1757329171.6910198,-0.74,-0.001,9.835,0.780021432397854,4.302915644816721,1.2240601503759398,0,0.05
1757329171.717216,-0.74,-0.001,9.835,0.780021432397854,4.302915644816721,1.2240601503759398,0,0.05
1757329171.744347,-0.683,0.026,9.795,0.7807686325026127,3.9916267914178154,1.2269172932330825,0,0.05
1757329171.7702975,-0.683,0.026,9.795,0.7807686325026127,3.9916267914178154,1.2269172932330825,0,0.05
1757329171.7961855,-0.695,0.216,9.778,0.7815415663929847,4.2567653439198265,1.2275187969924812,0,0.05
1757329171.8225536,-0.695,0.216,9.778,0.7815415663929847,4.2567653439198265,1.2275187969924812,0,0.05
1757329171.8495398,-0.442,0.319,9.924,0.7818539697411532,3.1439041594788395,1.2402005012531327,0,0.05
1757329171.8762474,-0.442,0.319,9.924,0.7818539697411532,3.1439041594788395,1.2402005012531327,0,0.05
1757329171.9027412,-0.489,0.184,9.964,0.782236174374466,3.0016108040321003,1.2425563909774435,0,0.05
1757329171.9302695,-0.489,0.184,9.964,0.782236174374466,3.0016108040321003,1.2425563909774435,0,0.05
1757329171.9569952,-0.481,0.298,9.884,0.7826057979596114,3.2764463853607264,1.2429573934837093,0,0.05
1757329171.9836473,-0.481,0.298,9.884,0.7826057979596114,3.2764463853607264,1.2429573934837093,0,0.05
1757329172.0094838,-0.552,0.437,9.778,0.78309232852838,4.118332419157151,1.246516290726817,0,0.05
1757329172.0357363,-0.552,0.437,9.778,0.78309232852838,4.118332419157151,1.246516290726817,0,0.05
1757329172.0626295,-0.407,0.157,9.928,0.7833566987650007,2.51593093242081,1.2537844611528823,0,0.05
1757329172.0902858,-0.407,0.157,9.928,0.7833566987650007,2.51593093242081,1.2537844611528823,0,0.05
1757329172.1163743,-0.546,0.134,9.953,0.7838322572464086,3.2329604019085303,1.2607518796992483,0,0.05
1757329172.1437123,-0.546,0.134,9.953,0.7838322572464086,3.2329604019085303,1.2607518796992483,0,0.05
1757329172.1699917,-0.624,-0.033,9.819,0.784452960667496,3.6413394548453026,1.2646616541353382,0,0.05
1757329172.197472,-0.624,-0.033,9.819,0.784452960667496,3.6413394548453026,1.2646616541353382,0,0.05
1757329172.2234726,-0.766,-0.084,9.821,0.7853873805326897,4.486446805858064,1.2717794486215537,0,0.05
1757329172.2497964,-0.766,-0.084,9.821,0.7853873805326897,4.486446805858064,1.2717794486215537,0,0.05
1757329172.2762997,-0.625,-0.047,9.8,0.7860088421894502,3.6594010154225,1.278847117794486,0,0.05
1757329172.3041255,-0.625,-0.047,9.8,0.7860088421894502,3.6594010154225,1.278847117794486,0,0.05
1757329172.330779,-0.717,-0.057,9.662,0.7868259798074795,4.257380541421491,1.2834586466165412,0,0.05
1757329172.358219,-0.717,-0.057,9.662,0.7868259798074795,4.257380541421491,1.2834586466165412,0,0.05
1757329172.3851123,-0.603,-0.091,9.61,0.7874034194744141,3.630985883025322,1.2891729323308267,0,0.05
1757329172.4121788,-0.603,-0.091,9.61,0.7874034194744141,3.630985883025322,1.2891729323308267,0,0.05
1757329172.438275,-0.477,-0.023,9.661,0.787764538107676,2.829891966078626,1.295488721804511,0,0.05
1757329172.465819,-0.477,-0.023,9.661,0.787764538107676,2.829891966078626,1.295488721804511,0,0.05
1757329172.4925916,-0.46,0.033,9.743,0.7881002268112858,2.7100568569515913,1.2963408521303255,0,0.05
1757329172.5195084,-0.46,0.033,9.743,0.7881002268112858,2.7100568569515913,1.2963408521303255,0,0.05
1757329172.545142,-0.618,0.119,9.79,0.7887057610414673,3.6782136561398326,1.3042606516290722,0,0.05
1757329172.5709436,-0.618,0.119,9.79,0.7887057610414673,3.6782136561398326,1.3042606516290722,0,0.05
1757329172.5971758,-0.347,0.454,9.822,0.7888965711676024,3.3295968913702354,1.3178446115288218,0,0.05
1757329172.6236901,-0.347,0.454,9.822,0.7888965711676024,3.3295968913702354,1.3178446115288218,0,0.05
1757329172.6503654,-0.291,0.426,9.806,0.7890307360933413,3.0116151392933768,1.3206516290726815,0,0.05
1757329172.676917,-0.291,0.426,9.806,0.7890307360933413,3.0116151392933768,1.3206516290726815,0,0.05
1757329172.7025003,-0.39,0.382,9.856,0.7892716595064085,3.1703266671667625,1.3256140350877195,0,0.05
1757329172.7286854,-0.39,0.382,9.856,0.7892716595064085,3.1703266671667625,1.3256140350877195,0,0.05
1757329172.7551155,-0.298,0.453,9.804,0.7894122893013511,3.165631558134062,1.3302255639097744,0,0.05
1757329172.781053,-0.298,0.453,9.804,0.7894122893013511,3.165631558134062,1.3302255639097744,0,0.05
1757329172.8070142,-0.39,0.163,9.789,0.7896530963024206,2.472516535675189,1.3348370927318296,0,0.05
1757329172.833609,-0.39,0.163,9.789,0.7896530963024206,2.472516535675189,1.3348370927318296,0,0.05
1757329172.859654,-0.536,0.164,9.761,0.7901077473990493,3.2866175952916223,1.3421553884711779,0,0.05
1757329172.8855257,-0.536,0.164,9.761,0.7901077473990493,3.2866175952916223,1.3421553884711779,0,0.05
1757329172.9112444,-0.536,0.164,9.761,0.7901077473990493,3.2866175952916223,1.3421553884711779,0,0.05
1757329172.9374652,-0.536,0.164,9.761,0.7901077473990493,3.2866175952916223,1.3421553884711779,0,0.05
1757329172.964899,-0.465,0.178,9.687,0.7904497548864191,2.942371225056927,1.3457142857142859,0,0.05
1757329172.9919508,-0.592,0.044,9.766,0.7910037768557113,3.4784825220305433,1.352080200501253,0,0.05
1757329173.0190654,-0.592,0.044,9.766,0.7910037768557113,3.4784825220305433,1.352080200501253,0,0.05
1757329173.0455549,-0.552,-0.001,9.743,0.7914851451543484,3.2426918635592754,1.3540852130325813,0,0.05
1757329173.0736163,-0.576,0.064,9.734,0.7920089488130799,3.4072642426587834,1.3552882205513783,0,0.05
1757329173.1007717,-0.576,0.064,9.734,0.7920089488130799,3.4072642426587834,1.3552882205513783,0,0.05
1757329173.1265154,-0.478,0.076,9.888,0.7923694750556712,2.802313710835981,1.3602005012531329,0,0.05
1757329173.1532135,-0.478,0.076,9.888,0.7923694750556712,2.802313710835981,1.3602005012531329,0,0.05
1757329173.1797895,-0.478,0.076,9.888,0.7923694750556712,2.802313710835981,1.3602005012531329,0,0.05
1757329173.2058618,-0.418,-0.154,9.799,0.7926450624333693,2.602894550340284,1.3632080200501255,0,0.05
1757329173.232728,-0.418,-0.154,9.799,0.7926450624333693,2.602894550340284,1.3632080200501255,0,0.05
1757329173.2594976,-0.549,-0.026,9.807,0.7931202289060594,3.207681370805861,1.3697744360902255,0,0.05
1757329173.2850983,-0.549,-0.026,9.807,0.7931202289060594,3.207681370805861,1.3697744360902255,0,0.05
1757329173.3122954,-0.349,-0.097,9.723,0.7933121705860815,2.1335607450055716,1.3797994987468674,0,0.05
1757329173.3392377,-0.349,-0.097,9.723,0.7933121705860815,2.1335607450055716,1.3797994987468674,0,0.05
1757329173.365495,-0.492,-0.139,9.62,0.7936934924767872,3.042142215079489,1.3869674185463658,0,0.05
1757329173.392708,-0.492,-0.139,9.62,0.7936934924767872,3.042142215079489,1.3869674185463658,0,0.05
1757329173.418842,-0.602,-0.216,9.58,0.7942640429982967,3.8195010740250868,1.3924812030075189,0,0.05
1757329173.4444375,-0.602,-0.216,9.58,0.7942640429982967,3.8195010740250868,1.3924812030075189,0,0.05
1757329173.4698832,-0.389,-0.009,9.54,0.794502153867439,2.335605096451675,1.403157894736842,0,0.05
1757329173.4957616,-0.389,-0.009,9.54,0.794502153867439,2.335605096451675,1.403157894736842,0,0.05
1757329173.5218287,-0.487,-0.281,9.606,0.7948752071866376,3.349790788605934,1.4080701754385962,0,0.05
1757329173.5498776,-0.487,-0.281,9.606,0.7948752071866376,3.349790788605934,1.4080701754385962,0,0.05
1757329173.575998,-0.678,-0.152,9.603,0.7955977658339671,4.138450469431896,1.417644110275689,0,0.05
1757329173.602519,-0.678,-0.152,9.603,0.7955977658339671,4.138450469431896,1.417644110275689,0,0.05
1757329173.629203,-0.476,-0.101,9.743,0.7959536701341354,2.859163460355179,1.4277694235588971,0,0.05
1757329173.6547492,-0.476,-0.101,9.743,0.7959536701341354,2.859163460355179,1.4277694235588971,0,0.05
1757329173.6814892,-0.619,-0.083,9.727,0.7965551754272895,3.6737375360146447,1.4349373433583956,0,0.05
1757329173.7089412,-0.619,-0.083,9.727,0.7965551754272895,3.6737375360146447,1.4349373433583956,0,0.05
1757329173.7352633,-0.598,0.034,9.619,0.7971161505702917,3.5631519282016275,1.4359899749373435,0,0.05
1757329173.7621584,-0.598,0.034,9.619,0.7971161505702917,3.5631519282016275,1.4359899749373435,0,0.05
1757329173.7886794,-0.596,0.084,9.776,0.7976729890750971,3.5231486867976156,1.4360902255639099,0,0.05
1757329173.8147435,-0.596,0.084,9.776,0.7976729890750971,3.5231486867976156,1.4360902255639099,0,0.05
1757329173.8403666,-0.655,-0.047,9.854,0.7983450131365512,3.8126320528355566,1.4390476190476191,0,0.05
1757329173.8664203,-0.655,-0.047,9.854,0.7983450131365512,3.8126320528355566,1.4390476190476191,0,0.05
1757329173.8925383,-0.401,-0.022,9.589,0.7985967458611386,2.3982395897811877,1.4517794486215538,0,0.05
1757329173.9188194,-0.401,-0.022,9.589,0.7985967458611386,2.3982395897811877,1.4517794486215538,0,0.05
1757329173.9451315,-0.638,0.099,9.638,0.7992336157219615,3.8324336246942226,1.463659147869674,0,0.05
1757329173.9716878,-0.638,0.099,9.638,0.7992336157219615,3.8324336246942226,1.463659147869674,0,0.05
1757329173.9971046,-0.528,0.052,9.626,0.7996695145496044,3.1547686750491213,1.4691729323308271,0,0.05
1757329174.024028,-0.528,0.052,9.626,0.7996695145496044,3.1547686750491213,1.4691729323308271,0,0.05
1757329174.0497832,-0.61,0.091,9.492,0.8002509497026543,3.7176136138439,1.4732832080200502,0,0.05
1757329174.075591,-0.61,0.091,9.492,0.8002509497026543,3.7176136138439,1.4732832080200502,0,0.05
1757329174.1013267,-0.59,0.105,9.512,0.8007945007928063,3.6049562379493074,1.4742857142857142,0,0.05
1757329174.1274097,-0.59,0.105,9.512,0.8007945007928063,3.6049562379493074,1.4742857142857142,0,0.05
1757329174.1534994,-0.59,0.105,9.512,0.8007945007928063,3.6049562379493074,1.4742857142857142,0,0.05
1757329174.1804798,-0.719,0.095,9.467,0.8016010447847483,4.380764474220614,1.480751879699248,0,0.05
1757329174.2070274,-0.719,0.095,9.467,0.8016010447847483,4.380764474220614,1.480751879699248,0,0.05
1757329174.2335303,-0.664,-0.138,9.569,0.8022882742505962,4.05397516904476,1.483508771929824,0,0.05
1757329174.2610755,-1.052,-0.005,9.566,0.8040107182121393,6.275830144227458,1.502957393483709,0,0.05
1757329174.2879663,-1.052,-0.005,9.566,0.8040107182121393,6.275830144227458,1.502957393483709,0,0.05
1757329174.3160696,-0.814,-0.289,9.708,0.8050402008595596,5.084569370753709,1.5148872180451127,0,0.05
1757329174.3427498,-0.814,-0.289,9.708,0.8050402008595596,5.084569370753709,1.5148872180451127,0,0.05
1757329174.370413,-0.814,-0.289,9.708,0.8050402008595596,5.084569370753709,1.5148872180451127,0,0.05
1757329174.3979814,-0.695,-0.203,9.885,0.8057898531875417,4.189224970828461,1.5208521303258145,0,0.05
1757329174.424917,-0.538,-0.092,9.695,0.8062387348050203,3.2222386545555435,1.5287218045112783,0,0.05
1757329174.4517734,-0.538,-0.092,9.695,0.8062387348050203,3.2222386545555435,1.5287218045112783,0,0.05
1757329174.4774148,-0.538,-0.092,9.695,0.8062387348050203,3.2222386545555435,1.5287218045112783,0,0.05
1757329174.5037284,-0.579,0.067,9.858,0.8067583281255918,3.3837280611648755,1.5307769423558897,0,0.05
1757329174.530693,-0.579,0.067,9.858,0.8067583281255918,3.3837280611648755,1.5307769423558897,0,0.05
1757329174.5582056,-0.477,-0.061,9.817,0.807110787005105,2.8043854606978753,1.5358897243107767,0,0.05
1757329174.585518,-0.479,-0.057,9.607,0.8074660519179738,2.87447888555725,1.5359899749373431,0,0.05
1757329174.6126943,-0.479,-0.057,9.607,0.8074660519179738,2.87447888555725,1.5359899749373431,0,0.05
1757329174.6396968,-0.479,-0.057,9.607,0.8074660519179738,2.87447888555725,1.5359899749373431,0,0.05
1757329174.666882,-0.752,-0.007,9.752,0.8083410078673481,4.409678354682216,1.549674185463659,0,0.05
1757329174.6930208,-0.752,-0.007,9.752,0.8083410078673481,4.409678354682216,1.549674185463659,0,0.05
1757329174.7191317,-0.918,-0.298,9.81,0.8096431281743828,5.618962808829464,1.5579949874686716,0,0.05
1757329174.7459037,-0.918,-0.298,9.81,0.8096431281743828,5.618962808829464,1.5579949874686716,0,0.05
1757329174.7723515,-1.042,-0.445,9.694,0.8113176967131926,6.666538579774429,1.5642105263157895,0,0.05
1757329174.7985387,-1.042,-0.445,9.694,0.8113176967131926,6.666538579774429,1.5642105263157895,0,0.05
1757329174.8252852,-0.761,-0.387,9.841,0.8122094603610575,4.958249596419199,1.5782957393483708,0,0.05
1757329174.8515813,-0.761,-0.387,9.841,0.8122094603610575,4.958249596419199,1.5782957393483708,0,0.05
1757329174.8785882,-0.867,-0.459,9.816,0.8133654959487769,5.7071521149130024,1.5836090225563912,0,0.05
1757329174.9050813,-0.867,-0.459,9.816,0.8133654959487769,5.7071521149130024,1.5836090225563912,0,0.05
1757329174.932559,-0.761,-0.211,9.748,0.8142550168712502,4.63156096700754,1.588922305764411,0,0.05
1757329174.9586864,-0.761,-0.211,9.748,0.8142550168712502,4.63156096700754,1.588922305764411,0,0.05
1757329174.98557,-0.855,-0.116,9.832,0.8153764743969499,5.015293837636288,1.5936340852130324,0,0.05
1757329175.0128329,-0.855,-0.116,9.832,0.8153764743969499,5.015293837636288,1.5936340852130324,0,0.05
1757329175.0408757,-0.508,0.081,9.723,0.8157719993968903,3.0285381623189944,1.611027568922306,0,0.05
1757329175.0684338,-0.508,0.081,9.723,0.8157719993968903,3.0285381623189944,1.611027568922306,0,0.05
1757329175.0952864,-0.352,0.234,9.579,0.8159618342790305,2.5265883584742026,1.6188471177944863,0,0.05
1757329175.122078,-0.352,0.234,9.579,0.8159618342790305,2.5265883584742026,1.6188471177944863,0,0.05
1757329175.1484575,-0.368,0.428,9.599,0.8161692685956755,3.3653106045041477,1.6196491228070176,0,0.05
1757329175.1748376,-0.368,0.428,9.599,0.8161692685956755,3.3653106045041477,1.6196491228070176,0,0.05
1757329175.2011127,-0.409,0.11,9.594,0.816425426784345,2.527721675632096,1.6217042606516288,0,0.05
1757329175.227947,-0.409,0.11,9.594,0.816425426784345,2.527721675632096,1.6217042606516288,0,0.05
1757329175.2554622,-0.573,0.018,9.617,0.8169279650005867,3.411443500651338,1.6299248120300747,0,0.05
1757329175.2826753,-0.573,0.018,9.617,0.8169279650005867,3.411443500651338,1.6299248120300747,0,0.05
1757329175.3082397,-0.517,0.106,9.651,0.817336847633826,3.1300413371062694,1.6327318295739344,0,0.05
1757329175.3345408,-0.517,0.106,9.651,0.817336847633826,3.1300413371062694,1.6327318295739344,0,0.05
1757329175.3607144,-0.617,-0.069,9.72,0.8179188498867109,3.6546923741848425,1.6377443609022555,0,0.05
1757329175.3881037,-0.617,-0.069,9.72,0.8179188498867109,3.6546923741848425,1.6377443609022555,0,0.05
1757329175.414489,-0.459,0.179,9.584,0.8182407637731085,2.942715617704597,1.6456641604010023,0,0.05
1757329175.441052,-0.459,0.179,9.584,0.8182407637731085,2.942715617704597,1.6456641604010023,0,0.05
1757329175.466941,-0.855,0.017,9.682,0.8193567660061153,5.04758831437332,1.6655137844611525,0,0.05
1757329175.4938254,-0.855,0.017,9.682,0.8193567660061153,5.04758831437332,1.6655137844611525,0,0.05
1757329175.5204172,-0.607,0.024,9.607,0.8199186743208133,3.6181362471285166,1.6779448621553883,0,0.05
1757329175.547876,-0.607,0.024,9.607,0.8199186743208133,3.6181362471285166,1.6779448621553883,0,0.05
1757329175.5742445,-0.693,-0.015,9.651,0.8206505072197299,4.10809193503159,1.6822556390977441,0,0.05
1757329175.5997493,-0.693,-0.015,9.651,0.8206505072197299,4.10809193503159,1.6822556390977441,0,0.05
1757329175.6262589,-0.594,-0.013,9.75,0.8211877647651601,3.4871589096755375,1.687218045112782,0,0.05
1757329175.6531208,-0.594,-0.013,9.75,0.8211877647651601,3.4871589096755375,1.687218045112782,0,0.05
1757329175.679554,-0.506,-0.099,9.701,0.8215774065783454,3.0423236564143794,1.691629072681704,0,0.05
1757329175.7068515,-0.506,-0.099,9.701,0.8215774065783454,3.0423236564143794,1.691629072681704,0,0.05
1757329175.7342203,-0.555,0.127,9.728,0.8220459217707974,3.3494972695495506,1.6940852130325814,0,0.05
1757329175.760253,-0.555,0.127,9.728,0.8220459217707974,3.3494972695495506,1.6940852130325814,0,0.05
1757329175.7864985,-0.57,-0.061,9.737,0.8225398151457471,3.3693342528418606,1.6948370927318297,0,0.05
1757329175.812376,-0.57,-0.061,9.737,0.8225398151457471,3.3693342528418606,1.6948370927318297,0,0.05
1757329175.8386967,-0.526,-0.09,9.869,0.8229601676265991,3.0951267517476784,1.6970426065162907,0,0.05
1757329175.8663263,-0.526,-0.09,9.869,0.8229601676265991,3.0951267517476784,1.6970426065162907,0,0.05
1757329175.8925097,-0.695,0.095,9.768,0.8236935109614497,4.107491837056904,1.705513784461153,0,0.05
1757329175.9197571,-0.695,0.095,9.768,0.8236935109614497,4.107491837056904,1.705513784461153,0,0.05
1757329175.946556,-0.578,0.081,9.616,0.8242003457897843,3.4733354661815903,1.711378446115288,0,0.05
1757329175.9734986,-0.578,0.081,9.616,0.8242003457897843,3.4733354661815903,1.711378446115288,0,0.05
1757329176.000761,-0.542,-0.239,9.703,0.8246457542484531,3.4934967342672416,1.7131829573934836,0,0.05
1757329176.0281274,-0.542,-0.239,9.703,0.8246457542484531,3.4934967342672416,1.7131829573934836,0,0.05
1757329176.0540552,-0.656,0.254,9.675,0.8252978007967791,4.158586724785452,1.718897243107769,0,0.05
1757329176.0800867,-0.656,0.254,9.675,0.8252978007967791,4.158586724785452,1.718897243107769,0,0.05
1757329176.1058872,-0.796,0.047,9.774,0.8262569213023271,4.663998003248072,1.7259147869674183,0,0.05
1757329176.1334054,-0.796,0.047,9.774,0.8262569213023271,4.663998003248072,1.7259147869674183,0,0.05
1757329176.160276,-0.535,-0.137,9.73,0.826689822424348,3.248551243799282,1.7389974937343355,0,0.05
1757329176.1872008,-0.535,-0.137,9.73,0.826689822424348,3.248551243799282,1.7389974937343355,0,0.05
1757329176.2130463,-0.472,0.246,9.607,0.8270266153516463,3.1711322899331527,1.7421553884711776,0,0.05
1757329176.239025,-0.472,0.246,9.607,0.8270266153516463,3.1711322899331527,1.7421553884711776,0,0.05
1757329176.265873,-0.582,0.076,9.793,0.8275384175372162,3.429906473185399,1.7476691729323306,0,0.05
1757329176.2917883,-0.582,0.076,9.793,0.8275384175372162,3.429906473185399,1.7476691729323306,0,0.05
1757329176.317813,-0.582,0.076,9.793,0.8275384175372162,3.429906473185399,1.7476691729323306,0,0.05
1757329176.3458521,-0.404,0.158,9.639,0.8277849192272109,2.5768220935816566,1.7565914786967418,0,0.05
1757329176.3734848,-0.464,0.072,9.714,0.8281099640144417,2.76739547659147,1.759598997493734,0,0.05
1757329176.4000812,-0.464,0.072,9.714,0.8281099640144417,2.76739547659147,1.759598997493734,0,0.05
1757329176.427428,-0.722,0.31,9.773,0.8288964485989792,4.596627103375124,1.772531328320802,0,0.05
1757329176.4548488,-0.722,0.31,9.773,0.8288964485989792,4.596627103375124,1.772531328320802,0,0.05
1757329176.4811552,-0.316,0.154,9.716,0.8290470206809745,2.072076436700626,1.7928822055137843,0,0.05
1757329176.507843,-0.316,0.154,9.716,0.8290470206809745,2.072076436700626,1.7928822055137843,0,0.05
1757329176.5337846,-0.459,0.225,9.748,0.8293646152326491,3.001816817071523,1.800050125313283,0,0.05
1757329176.560076,-0.459,0.225,9.748,0.8293646152326491,3.001816817071523,1.800050125313283,0,0.05
1757329176.5863492,-0.451,0.134,9.757,0.8296711200831328,2.7606839400480054,1.8004511278195492,0,0.05
1757329176.61214,-0.451,0.134,9.757,0.8296711200831328,2.7606839400480054,1.8004511278195492,0,0.05
1757329176.639363,-0.451,0.134,9.757,0.8296711200831328,2.7606839400480054,1.8004511278195492,0,0.05
1757329176.665794,-0.682,-0.081,9.93,0.8303715900125679,3.9564743358458876,1.8120300751879697,0,0.05
1757329176.6924887,-0.682,-0.081,9.93,0.8303715900125679,3.9564743358458876,1.8120300751879697,0,0.05
1757329176.7188632,-0.724,-0.221,9.759,0.8311602838803115,4.435395246722525,1.8141353383458645,0,0.05
1757329176.7472208,-0.947,0.322,9.959,0.8325079218842304,5.735350443363156,1.8253132832080197,0,0.05
1757329176.7744436,-0.947,0.322,9.959,0.8325079218842304,5.735350443363156,1.8253132832080197,0,0.05
1757329176.8010888,-0.249,0.163,9.955,0.8326010103885293,1.712361128087594,1.8603007518796992,0,0.05
1757329176.82815,-0.249,0.163,9.955,0.8326010103885293,1.712361128087594,1.8603007518796992,0,0.05
1757329176.854098,-0.654,0.304,9.86,0.8332429012598906,4.183403847930859,1.8806015037593982,0,0.05
1757329176.8804412,-0.654,0.304,9.86,0.8332429012598906,4.183403847930859,1.8806015037593982,0,0.05
1757329176.9070127,-0.654,0.304,9.86,0.8332429012598906,4.183403847930859,1.8806015037593982,0,0.05
1757329176.9346538,-0.388,0.284,9.772,0.8334687111703716,2.8169747839799144,1.8939348370927314,0,0.05
1757329176.9622521,-0.496,0.313,9.889,0.833837593599617,3.3941542198686414,1.899348370927318,0,0.05
1757329176.9886649,-0.496,0.313,9.889,0.833837593599617,3.3941542198686414,1.899348370927318,0,0.05
1757329177.0155697,-0.4,0.069,9.746,0.8340774139730676,2.3849128475388635,1.9041604010025062,0,0.05
1757329177.0432684,-0.4,0.069,9.746,0.8340774139730676,2.3849128475388635,1.9041604010025062,0,0.05
1757329177.0712452,-0.4,0.069,9.746,0.8340774139730676,2.3849128475388635,1.9041604010025062,0,0.05
1757329177.097533,-0.544,0.241,9.794,0.8345208041145529,3.476491456077847,1.9113784461152883,0,0.05
1757329177.1251695,-0.471,0.13,9.83,0.8348530259872093,2.845609688479665,1.9150375939849624,0,0.05
1757329177.150915,-0.471,0.13,9.83,0.8348530259872093,2.845609688479665,1.9150375939849624,0,0.05
1757329177.1772332,-0.471,0.13,9.83,0.8348530259872093,2.845609688479665,1.9150375939849624,0,0.05
1757329177.2037218,-0.37,0.146,9.703,0.8350579770291402,2.347462704350362,1.9201002506265665,0,0.05
1757329177.2306616,-0.37,0.146,9.703,0.8350579770291402,2.347462704350362,1.9201002506265665,0,0.05
1757329177.257347,-0.53,0.166,9.545,0.8354783510061765,3.330074167479874,1.9281203007518795,0,0.05
1757329177.286088,-0.633,0.114,9.695,0.8360776264797426,3.7955417630480253,1.93328320802005,0,0.05
1757329177.3135016,-0.633,0.114,9.695,0.8360776264797426,3.7955417630480253,1.93328320802005,0,0.05
1757329177.3401396,-0.633,0.114,9.695,0.8360776264797426,3.7955417630480253,1.93328320802005,0,0.05
1757329177.3660002,-0.544,-0.229,9.749,0.8365199564266235,3.464635170609519,1.9377443609022553,0,0.05
1757329177.3918467,-0.544,-0.229,9.749,0.8365199564266235,3.464635170609519,1.9377443609022553,0,0.05
1757329177.4178348,-0.613,-0.245,9.66,0.8370812744291919,3.9094118592662395,1.9412030075187967,0,0.05
1757329177.4438393,-0.613,-0.245,9.66,0.8370812744291919,3.9094118592662395,1.9412030075187967,0,0.05
1757329177.4696236,-0.765,0.372,9.831,0.8379547258056369,4.945344613003526,1.9488220551378443,0,0.05
1757329177.4960868,-0.765,0.372,9.831,0.8379547258056369,4.945344613003526,1.9488220551378443,0,0.05
1757329177.5224855,-0.432,0.231,10.009,0.8382330717050003,2.8020608482026708,1.965513784461153,0,0.05
1757329177.549102,-0.432,0.231,10.009,0.8382330717050003,2.8020608482026708,1.965513784461153,0,0.05
1757329177.5751884,-0.478,0.181,9.621,0.8385737251428762,3.041013417156804,1.9678195488721804,0,0.05
1757329177.601535,-0.478,0.181,9.621,0.8385737251428762,3.041013417156804,1.9678195488721804,0,0.05
1757329177.6281528,-0.452,0.267,10.059,0.8388782107672127,2.9875011747903253,1.969122807017544,0,0.05
1757329177.6540012,-0.452,0.267,10.059,0.8388782107672127,2.9875011747903253,1.969122807017544,0,0.05
1757329177.6804378,-0.684,0.018,9.99,0.8395750666259688,3.9181930675656145,1.9807518796992483,0,0.05
1757329177.7069304,-0.684,0.018,9.99,0.8395750666259688,3.9181930675656145,1.9807518796992483,0,0.05
1757329177.7327719,-0.682,0.086,9.647,0.8402672803935662,4.075745375651608,1.9808521303258146,0,0.05
1757329177.7583652,-0.682,0.086,9.647,0.8402672803935662,4.075745375651608,1.9808521303258146,0,0.05
1757329177.785382,-0.639,-0.0,9.982,0.840874488256125,3.662804481920241,1.9830075187969924,0,0.05
1757329177.8114414,-0.639,-0.0,9.982,0.840874488256125,3.662804481920241,1.9830075187969924,0,0.05
1757329177.837809,-0.696,0.095,10.06,0.8415942876469635,3.9942746222293697,1.9858646616541353,0,0.05
1757329177.8642967,-0.696,0.095,10.06,0.8415942876469635,3.9942746222293697,1.9858646616541353,0,0.05
1757329177.890521,-0.635,0.275,9.739,0.8421929752141133,4.0642343967167704,1.9889223057644112,0,0.05
1757329177.9162529,-0.635,0.275,9.739,0.8421929752141133,4.0642343967167704,1.9889223057644112,0,0.05
1757329177.942697,-0.54,0.161,9.781,0.8426256627352385,3.2972039918243956,1.9936842105263155,0,0.05
1757329177.9693832,-0.54,0.161,9.781,0.8426256627352385,3.2972039918243956,1.9936842105263155,0,0.05
1757329177.9958627,-0.502,0.322,9.834,0.842999417259585,3.470527103419876,1.9955889724310774,0,0.05
1757329178.0239046,-0.502,0.322,9.834,0.842999417259585,3.470527103419876,1.9955889724310774,0,0.05
1757329178.050617,-0.502,0.322,9.834,0.842999417259585,3.470527103419876,1.9955889724310774,0,0.05
1757329178.0771444,-0.433,0.144,9.714,0.8432773802255104,2.6895017179458502,1.9990476190476187,0,0.05
1757329178.1038432,-0.579,0.206,9.737,0.8437741655798665,3.6114536586853405,2.0063659147869672,0,0.05
1757329178.1313848,-0.579,0.206,9.737,0.8437741655798665,3.6114536586853405,2.0063659147869672,0,0.05
1757329178.1580412,-0.745,0.166,9.978,0.8445960010561263,4.37433798477309,2.0146867167919797,0,0.05
1757329178.1837828,-0.745,0.166,9.978,0.8445960010561263,4.37433798477309,2.0146867167919797,0,0.05
1757329178.2097945,-0.621,0.549,9.741,0.8451665560704589,4.863689243101397,2.0209022556390974,0,0.05
1757329178.2359517,-0.621,0.549,9.741,0.8451665560704589,4.863689243101397,2.0209022556390974,0,0.05
1757329178.2642813,-0.631,0.123,9.756,0.8457552305484134,3.770082631309744,2.0214035087719298,0,0.05
1757329178.2901409,-0.631,0.123,9.756,0.8457552305484134,3.770082631309744,2.0214035087719298,0,0.05
1757329178.3170805,-0.696,0.305,9.973,0.846470879593622,4.357247856110023,2.0246616541353384,0,0.05
1757329178.3432412,-0.696,0.305,9.973,0.846470879593622,4.357247856110023,2.0246616541353384,0,0.05
1757329178.3700154,-0.664,0.003,9.794,0.8471217090831753,3.8785639679398853,2.026265664160401,0,0.05
1757329178.396531,-0.664,0.003,9.794,0.8471217090831753,3.8785639679398853,2.026265664160401,0,0.05
1757329178.4252012,-0.814,-0.184,9.539,0.8480988621617176,4.99989649582536,2.033784461152882,0,0.05
1757329178.4518745,-0.814,-0.184,9.539,0.8480988621617176,4.99989649582536,2.033784461152882,0,0.05
1757329178.478238,-0.756,-0.09,9.792,0.8489408224369942,4.445862746436048,2.0366917293233078,0,0.05
1757329178.5057552,-0.756,-0.09,9.792,0.8489408224369942,4.445862746436048,2.0366917293233078,0,0.05
1757329178.5329225,-0.972,-0.025,9.841,0.850330806216028,5.6426876045310115,2.047518796992481,0,0.05
1757329178.5604768,-0.972,-0.025,9.841,0.850330806216028,5.6426876045310115,2.047518796992481,0,0.05
1757329178.587207,-0.905,-0.088,9.675,0.8515339350254927,5.368957759608122,2.050877192982456,0,0.05
1757329178.6138363,-0.905,-0.088,9.675,0.8515339350254927,5.368957759608122,2.050877192982456,0,0.05
1757329178.6396263,-0.78,-0.023,9.773,0.8524265613529414,4.565177429219494,2.057142857142857,0,0.05
1757329178.6662972,-0.78,-0.023,9.773,0.8524265613529414,4.565177429219494,2.057142857142857,0,0.05
1757329178.6920197,-0.792,0.016,9.802,0.8533458867891729,4.620392669908198,2.0577443609022557,0,0.05
1757329178.7180798,-0.792,0.016,9.802,0.8533458867891729,4.620392669908198,2.0577443609022557,0,0.05
1757329178.7445405,-0.84,-0.019,9.619,0.8543788401523063,4.99208706600164,2.060150375939849,0,0.05
1757329178.7721255,-0.84,-0.019,9.619,0.8543788401523063,4.99208706600164,2.060150375939849,0,0.05
1757329178.7991579,-0.552,0.034,9.757,0.8548245214662481,3.244167046421951,2.0745864661654134,0,0.05
1757329178.826286,-0.552,0.034,9.757,0.8548245214662481,3.244167046421951,2.0745864661654134,0,0.05
1757329178.8527946,-0.524,0.251,9.984,0.8552259365220397,3.3305422121314736,2.075989974937343,0,0.05
1757329178.8806348,-0.524,0.251,9.984,0.8552259365220397,3.3305422121314736,2.075989974937343,0,0.05
1757329178.9077108,-0.801,0.145,9.61,0.8561631882999876,4.841701482008232,2.089874686716792,0,0.05
1757329178.9344146,-0.801,0.145,9.61,0.8561631882999876,4.841701482008232,2.089874686716792,0,0.05
1757329178.9607806,-0.552,0.111,9.761,0.8566079412426667,3.3013690691663524,2.102355889724311,0,0.05
1757329178.988108,-0.552,0.111,9.761,0.8566079412426667,3.3013690691663524,2.102355889724311,0,0.05
1757329179.015007,-0.683,0.179,9.848,0.8572883922578213,4.100886482194421,2.108922305764411,0,0.05
1757329179.0416706,-0.683,0.179,9.848,0.8572883922578213,4.100886482194421,2.108922305764411,0,0.05
1757329179.0675852,-0.642,0.119,9.647,0.857889152221894,3.8720317117603473,2.1109774436090225,0,0.05
1757329179.0934787,-0.642,0.119,9.647,0.857889152221894,3.8720317117603473,2.1109774436090225,0,0.05
1757329179.1194806,-0.642,0.119,9.647,0.857889152221894,3.8720317117603473,2.1109774436090225,0,0.05
1757329179.1460817,-0.869,0.121,9.611,0.8589887659335249,5.216046682538688,2.1223558897243104,0,0.05
1757329179.1741643,-0.869,0.121,9.611,0.8589887659335249,5.216046682538688,2.1223558897243104,0,0.05
1757329179.200195,-0.596,0.003,9.764,0.8595055206338119,3.4930764594477632,2.1360401002506264,0,0.05
1757329179.2264512,-0.596,0.003,9.764,0.8595055206338119,3.4930764594477632,2.1360401002506264,0,0.05
1757329179.2527392,-0.692,0.08,9.563,0.8602016624024857,4.166305500754797,2.140852130325815,0,0.05
1757329179.2791626,-0.692,0.08,9.563,0.8602016624024857,4.166305500754797,2.140852130325815,0,0.05
1757329179.3054368,-0.685,0.066,9.59,0.8608832455681781,4.104472647093533,2.1412030075187967,0,0.05
1757329179.3317394,-0.685,0.066,9.59,0.8608832455681781,4.104472647093533,2.1412030075187967,0,0.05
1757329179.358218,-0.596,0.066,9.741,0.8613988637675348,3.52260817229023,2.1456641604010023,0,0.05
1757329179.3850777,-0.596,0.066,9.741,0.8613988637675348,3.52260817229023,2.1456641604010023,0,0.05
1757329179.4121182,-0.679,0.205,9.561,0.8620676336575919,4.242648140112269,2.1498245614035087,0,0.05
1757329179.438183,-0.679,0.205,9.561,0.8620676336575919,4.242648140112269,2.1498245614035087,0,0.05
1757329179.464087,-0.884,-0.15,9.558,0.8632000028962001,5.359232552113091,2.1601002506265665,0,0.05
1757329179.491531,-0.884,-0.15,9.558,0.8632000028962001,5.359232552113091,2.1601002506265665,0,0.05
1757329179.5174334,-0.825,0.193,9.653,0.8641850539670308,5.016177053331218,2.163057644110276,0,0.05
1757329179.5448265,-0.825,0.193,9.653,0.8641850539670308,5.016177053331218,2.163057644110276,0,0.05
1757329179.5703552,-0.944,0.386,9.761,0.8654730772820147,5.964850870668985,2.1690225563909777,0,0.05
1757329179.5968986,-0.944,0.386,9.761,0.8654730772820147,5.964850870668985,2.1690225563909777,0,0.05
1757329179.6240633,-0.778,0.229,9.364,0.8663468459572068,4.9499524695509445,2.17734335839599,0,0.05
1757329179.6518676,-0.778,0.229,9.364,0.8663468459572068,4.9499524695509445,2.17734335839599,0,0.05
1757329179.678601,-0.655,0.262,9.646,0.8669656394575278,4.182858357030204,2.1835087719298247,0,0.05
1757329179.7048676,-0.655,0.262,9.646,0.8669656394575278,4.182858357030204,2.1835087719298247,0,0.05
1757329179.7303696,-0.622,0.203,9.591,0.8675232734630236,3.902612657775144,2.18516290726817,0,0.05
1757329179.7570853,-0.622,0.203,9.591,0.8675232734630236,3.902612657775144,2.18516290726817,0,0.05
1757329179.7842872,-0.777,0.112,9.494,0.8683927409300471,4.726864117371045,2.192932330827068,0,0.05
1757329179.8101108,-0.777,0.112,9.494,0.8683927409300471,4.726864117371045,2.192932330827068,0,0.05
1757329179.8372734,-0.942,0.079,9.534,0.8696691109266789,5.662433716694936,2.2012030075187967,0,0.05
1757329179.8637383,-0.942,0.079,9.534,0.8696691109266789,5.662433716694936,2.2012030075187967,0,0.05
1757329179.8900435,-0.755,0.226,9.775,0.8704880384014476,4.609444774066635,2.2105764411027566,0,0.05
1757329179.9157107,-0.755,0.226,9.775,0.8704880384014476,4.609444774066635,2.2105764411027566,0,0.05
1757329179.9412348,-0.701,0.164,9.598,0.8711933927091046,4.2896191313524765,2.2132832080200497,0,0.05
1757329179.9677122,-0.701,0.164,9.598,0.8711933927091046,4.2896191313524765,2.2132832080200497,0,0.05
1757329179.994663,-0.727,0.109,9.61,0.8719514034623719,4.374374525901641,2.214586466165413,0,0.05
1757329180.021115,-0.727,0.109,9.61,0.8719514034623719,4.374374525901641,2.214586466165413,0,0.05
1757329180.047811,-0.729,0.055,9.815,0.8727129267405176,4.259818873662584,2.21468671679198,0,0.05
1757329180.0740154,-0.729,0.055,9.815,0.8727129267405176,4.259818873662584,2.21468671679198,0,0.05
1757329180.1004195,-0.754,0.072,9.638,0.8735268413162816,4.493517567795806,2.21593984962406,0,0.05
1757329180.1271806,-0.754,0.072,9.638,0.8735268413162816,4.493517567795806,2.21593984962406,0,0.05
1757329180.153344,-0.692,-0.176,9.633,0.8742118178679581,4.239206122093112,2.219047619047619,0,0.05
1757329180.179541,-0.692,-0.176,9.633,0.8742118178679581,4.239206122093112,2.219047619047619,0,0.05
1757329180.2053742,-0.848,-0.196,9.943,0.8752394315271679,5.002610368014607,2.2268671679197993,0,0.05
1757329180.2326412,-0.848,-0.196,9.943,0.8752394315271679,5.002610368014607,2.2268671679197993,0,0.05
1757329180.2599986,-1.085,0.117,9.79,0.8769191097244945,6.360495842649038,2.2387468671679196,0,0.05
1757329180.2872005,-1.085,0.117,9.79,0.8769191097244945,6.360495842649038,2.2387468671679196,0,0.05
1757329180.3149214,-0.477,0.138,9.778,0.8772433798553284,2.907183413769846,2.2692230576441106,0,0.05
1757329180.3419423,-0.477,0.138,9.778,0.8772433798553284,2.907183413769846,2.2692230576441106,0,0.05
1757329180.3691058,-0.657,-0.008,10.031,0.877858228872977,3.7476239464214838,2.2782456140350877,0,0.05
1757329180.3959363,-0.657,-0.008,10.031,0.877858228872977,3.7476239464214838,2.2782456140350877,0,0.05
1757329180.423858,-0.582,0.012,9.666,0.8783404123686898,3.446409632643503,2.282005012531328,0,0.05
1757329180.4506662,-0.582,0.012,9.666,0.8783404123686898,3.446409632643503,2.282005012531328,0,0.05
1757329180.4776502,-0.718,-0.199,9.791,0.8790737682356357,4.3516581406171575,2.2888220551378446,0,0.05
1757329180.5050821,-0.718,-0.199,9.791,0.8790737682356357,4.3516581406171575,2.2888220551378446,0,0.05
1757329180.5325854,-0.733,-0.102,9.957,0.8798374352685842,4.2507434933606145,2.2895739348370925,0,0.05
1757329180.5582428,-0.733,-0.102,9.957,0.8798374352685842,4.2507434933606145,2.2895739348370925,0,0.05
1757329180.5844436,-0.532,-0.127,9.607,0.8802394404365212,3.2584642160662796,2.2996491228070175,0,0.05
1757329180.611339,-0.532,-0.127,9.607,0.8802394404365212,3.2584642160662796,2.2996491228070175,0,0.05
1757329180.6377735,-0.842,0.061,9.656,0.8812456425424184,4.996562163380793,2.315187969924812,0,0.05
1757329180.6653018,-0.842,0.061,9.656,0.8812456425424184,4.996562163380793,2.315187969924812,0,0.05
1757329180.6922107,-0.576,0.156,9.893,0.8817161235340999,3.451930311221382,2.328521303258145,0,0.05
1757329180.719526,-0.576,0.156,9.893,0.8817161235340999,3.451930311221382,2.328521303258145,0,0.05
1757329180.747598,-0.582,-0.008,9.661,0.8821961984162026,3.4477829347902,2.3288220551378442,0,0.05
1757329180.7747667,-0.582,-0.008,9.661,0.8821961984162026,3.4477829347902,2.3288220551378442,0,0.05
1757329180.8007872,-0.768,0.113,9.644,0.8830315353938386,4.601952798160609,2.3381453634085214,0,0.05
1757329180.8274314,-0.768,0.113,9.644,0.8830315353938386,4.601952798160609,2.3381453634085214,0,0.05
1757329180.8532472,-0.807,0.065,9.888,0.8839529484084546,4.6808443916586775,2.3401002506265662,0,0.05
1757329180.8802347,-0.807,0.065,9.888,0.8839529484084546,4.6808443916586775,2.3401002506265662,0,0.05
1757329180.9070704,-0.807,0.065,9.888,0.8839529484084546,4.6808443916586775,2.3401002506265662,0,0.05
1757329180.933257,-0.741,0.028,9.779,0.8847290644598492,4.336365644373127,2.3434085213032576,0,0.05
1757329180.959918,-0.583,0.319,9.353,0.8852091504271745,4.064260540029154,2.351328320802005,0,0.05
1757329180.9867435,-0.583,0.319,9.353,0.8852091504271745,4.064260540029154,2.351328320802005,0,0.05
1757329181.0132256,-0.583,0.319,9.353,0.8852091504271745,4.064260540029154,2.351328320802005,0,0.05
1757329181.0395236,-0.906,0.166,9.828,0.8863674915067677,5.35413161478353,2.367518796992481,0,0.05
1757329181.0663843,-0.463,0.052,9.661,0.8866697539106654,2.7610044562254026,2.389724310776942,0,0.05
1757329181.092889,-0.463,0.052,9.661,0.8866697539106654,2.7610044562254026,2.389724310776942,0,0.05
1757329181.1194808,-0.463,0.052,9.661,0.8866697539106654,2.7610044562254026,2.389724310776942,0,0.05
1757329181.146916,-0.588,0.128,9.415,0.8871570393678899,3.65715191626284,2.3959899749373434,0,0.05
1757329181.1739566,-0.785,0.075,9.529,0.8880248729624638,4.730746132180593,2.405864661654135,0,0.05
1757329181.2015798,-0.785,0.075,9.529,0.8880248729624638,4.730746132180593,2.405864661654135,0,0.05
1757329181.229146,-0.785,0.075,9.529,0.8880248729624638,4.730746132180593,2.405864661654135,0,0.05
1757329181.2560582,-0.768,0.189,9.488,0.8888547322256882,4.7651251433105495,2.406716791979949,0,0.05
1757329181.2818756,-0.768,0.189,9.488,0.8888547322256882,4.7651251433105495,2.406716791979949,0,0.05
1757329181.30925,-0.711,0.105,9.433,0.8895653643774583,4.35701477139548,2.409573934837092,0,0.05
1757329181.3359733,-0.711,0.105,9.433,0.8895653643774583,4.35701477139548,2.409573934837092,0,0.05
1757329181.363025,-1.036,0.043,9.65,0.8910722627823178,6.132898273703329,2.4258646616541357,0,0.05
1757329181.3899379,-1.036,0.043,9.65,0.8910722627823178,6.132898273703329,2.4258646616541357,0,0.05
1757329181.41634,-0.845,-0.211,9.635,0.892073337792359,5.165152635146368,2.435438596491228,0,0.05
1757329181.4445934,-0.845,-0.211,9.635,0.892073337792359,5.165152635146368,2.435438596491228,0,0.05
1757329181.4708889,-0.73,-0.075,9.605,0.8928197410451899,4.369032685872353,2.441203007518797,0,0.05
1757329181.4975295,-0.572,0.079,9.776,0.8932777003821377,3.3803076336600664,2.4491228070175435,0,0.05
1757329181.5237014,-0.572,0.079,9.776,0.8932777003821377,3.3803076336600664,2.4491228070175435,0,0.05
1757329181.5498703,-0.572,0.079,9.776,0.8932777003821377,3.3803076336600664,2.4491228070175435,0,0.05
1757329181.575928,-0.535,-0.023,9.764,0.8936781369710238,3.1391693244583014,2.450977443609023,0,0.05
1757329181.6025274,-0.535,-0.023,9.764,0.8936781369710238,3.1391693244583014,2.450977443609023,0,0.05
1757329181.628099,-0.586,-0.097,9.635,0.8941583207128366,3.5276786467346084,2.4535338345864663,0,0.05
1757329181.6555078,-0.586,-0.097,9.635,0.8941583207128366,3.5276786467346084,2.4535338345864663,0,0.05
1757329181.682159,-0.647,-0.175,9.729,0.8947433291173509,3.9409877031336533,2.3998997493734335,0,0.05
1757329181.7088082,-0.647,-0.175,9.729,0.8947433291173509,3.9409877031336533,2.3998997493734335,0,0.05
1757329181.735297,-0.72,0.036,9.881,0.8936798769693766,4.172800525359058,2.4035087719298245,0,0.05
1757329181.7621286,-0.72,0.036,9.881,0.8936798769693766,4.172800525359058,2.4035087719298245,0,0.05
1757329181.7883348,-0.991,-0.257,9.721,0.8932610844540357,6.012031679663741,2.4168421052631577,0,0.05
1757329181.8146412,-0.991,-0.257,9.721,0.8932610844540357,6.012031679663741,2.4168421052631577,0,0.05
1757329181.841501,-1.053,-0.017,9.714,0.8930353100521837,6.187519488105288,2.41844611528822,0,0.05
1757329181.8683374,-1.053,-0.017,9.714,0.8930353100521837,6.187519488105288,2.41844611528822,0,0.05
1757329181.8943262,-1.053,-0.017,9.714,0.8930353100521837,6.187519488105288,2.41844611528822,0,0.05
1757329181.9217505,-0.766,-0.061,9.904,0.892171750561516,4.436539003398104,2.4323308270676693,0,0.05
1757329181.9483702,-0.766,-0.061,9.904,0.892171750561516,4.436539003398104,2.4323308270676693,0,0.05
1757329181.97424,-0.83,0.103,9.64,0.8914812168520434,4.958566038139765,2.4352882205513784,0,0.05
1757329182.0011203,-0.824,-0.026,9.592,0.8907609331352605,4.912366844250624,2.4352882205513784,0,0.05
1757329182.027437,-0.824,-0.026,9.592,0.8907609331352605,4.912366844250624,2.4352882205513784,0,0.05
1757329182.0540266,-0.833,0.159,9.779,0.8900425565668195,4.9563139178904185,2.4353884711779443,0,0.05
1757329182.0800633,-0.833,0.159,9.779,0.8900425565668195,4.9563139178904185,2.4353884711779443,0,0.05
1757329182.107595,-0.606,0.223,9.767,0.8888426632424886,3.7825064658613576,2.44531328320802,0,0.05
1757329182.1339388,-0.606,0.223,9.767,0.8888426632424886,3.7825064658613576,2.44531328320802,0,0.05
1757329182.1602955,-0.534,0.214,9.669,0.8874340989617201,3.404959069574199,2.4488220551378443,0,0.05
1757329182.1871178,-0.534,0.214,9.669,0.8874340989617201,3.404959069574199,2.4488220551378443,0,0.05
1757329182.2143855,-0.571,0.339,9.802,0.8860745693788983,3.875657823239628,2.4504260651629073,0,0.05
1757329182.241256,-0.571,0.339,9.802,0.8860745693788983,3.875657823239628,2.4504260651629073,0,0.05
1757329182.2690387,-0.342,0.101,9.89,0.8844335192652978,2.065009417320256,2.4611528822055133,0,0.05
1757329182.2952046,-0.342,0.101,9.89,0.8844335192652978,2.065009417320256,2.4611528822055133,0,0.05
1757329182.322072,-0.914,-0.08,9.822,0.8838537774994233,5.3366373139200824,2.4885714285714284,0,0.05
1757329182.349285,-0.914,-0.08,9.822,0.8838537774994233,5.3366373139200824,2.4885714285714284,0,0.05
1757329182.3759367,-0.869,0.007,9.759,0.8832381898446194,5.088703693075025,2.49062656641604,0,0.05
1757329182.4031472,-0.869,0.007,9.759,0.8832381898446194,5.088703693075025,2.49062656641604,0,0.05
1757329182.4291546,-0.789,-0.069,9.869,0.8824219172255413,4.588292929963807,2.494486215538847,0,0.05
1757329182.4553707,-0.789,-0.069,9.869,0.8824219172255413,4.588292929963807,2.494486215538847,0,0.05
1757329182.4825628,-0.814,-0.074,9.77,0.881671010071217,4.782220082131714,2.49453634085213,0,0.05
1757329182.508748,-0.814,-0.074,9.77,0.881671010071217,4.782220082131714,2.49453634085213,0,0.05
1757329182.5346115,-0.77,0.059,9.858,0.8807453547989906,4.479295050811327,2.4953884711779444,0,0.05
1757329182.5614345,-0.77,0.059,9.858,0.8807453547989906,4.479295050811327,2.4953884711779444,0,0.05
1757329182.5877516,-0.814,0.066,9.898,0.8798310903235916,4.716717371823116,2.496942355889724,0,0.05
1757329182.6143734,-0.814,0.066,9.898,0.8798310903235916,4.716717371823116,2.496942355889724,0,0.05
1757329182.640755,-0.785,-0.051,9.772,0.8788074134871645,4.60243793538233,2.497994987468671,0,0.05
1757329182.666182,-0.785,-0.051,9.772,0.8788074134871645,4.60243793538233,2.497994987468671,0,0.05
1757329182.6923382,-0.809,-0.104,9.85,0.8778632652640159,4.7337405254518385,2.4989473684210526,0,0.05
1757329182.718851,-0.809,-0.104,9.85,0.8778632652640159,4.7337405254518385,2.4989473684210526,0,0.05
1757329182.7454634,-0.79,-0.204,9.777,0.8768911220898522,4.770417153906554,2.4980451127819547,0,0.05
1757329182.7719936,-0.79,-0.204,9.777,0.8768911220898522,4.770417153906554,2.4980451127819547,0,0.05
1757329182.7980661,-0.563,-0.072,9.69,0.875598294025291,3.3522314875290316,2.5092731829573935,0,0.05
1757329182.8238807,-0.563,-0.072,9.69,0.875598294025291,3.3522314875290316,2.5092731829573935,0,0.05
1757329182.8496208,-0.563,-0.072,9.69,0.875598294025291,3.3522314875290316,2.5092731829573935,0,0.05
1757329182.876265,-0.466,0.136,9.782,0.8741513370120759,2.8410207320265064,2.5138847117794487,0,0.05
1757329182.9027052,-0.407,0.062,9.737,0.8726122807409944,2.4211112509840893,2.516240601503759,0,0.05
1757329182.9291563,-0.407,0.062,9.737,0.8726122807409944,2.4211112509840893,2.516240601503759,0,0.05
1757329182.954939,-0.407,0.062,9.737,0.8726122807409944,2.4211112509840893,2.516240601503759,0,0.05
1757329182.9811919,-0.605,0.239,9.738,0.8713194391266615,3.8216706383838797,2.525664160401002,0,0.05
1757329183.0083377,-0.605,0.239,9.738,0.8713194391266615,3.8216706383838797,2.525664160401002,0,0.05
1757329183.034802,-0.734,0.111,9.845,0.8702403202564221,4.312131457168444,2.5313283208020043,0,0.05
1757329183.0620918,-0.734,0.111,9.845,0.8702403202564221,4.312131457168444,2.5313283208020043,0,0.05
1757329183.089812,-0.734,0.098,9.82,0.8691072114532246,4.312437848563844,2.5311278195488724,0,0.05
1757329183.116647,-0.734,0.098,9.82,0.8691072114532246,4.312437848563844,2.5311278195488724,0,0.05
1757329183.1434712,-0.797,0.116,9.843,0.8680982245690865,4.677770887568413,2.534085213032581,0,0.05
1757329183.1700218,-0.797,0.116,9.843,0.8680982245690865,4.677770887568413,2.534085213032581,0,0.05
1757329183.1958592,-0.719,0.212,9.808,0.8669308911326208,4.370490254309418,2.5370426065162905,0,0.05
1757329183.2227592,-0.719,0.212,9.808,0.8669308911326208,4.370490254309418,2.5370426065162905,0,0.05
1757329183.2501392,-0.746,0.187,9.713,0.8658817687767771,4.5272654157211,2.5365413533834587,0,0.05
1757329183.276772,-0.746,0.187,9.713,0.8658817687767771,4.5272654157211,2.5365413533834587,0,0.05
1757329183.3027916,-0.651,0.037,9.681,0.8647587524853391,3.8532596855974783,2.541002506265664,0,0.05
1757329183.3294356,-0.651,0.037,9.681,0.8647587524853391,3.8532596855974783,2.541002506265664,0,0.05
1757329183.3559859,-0.745,0.09,9.701,0.8638431642954639,4.423281068527967,2.5451629072681703,0,0.05
1757329183.3820965,-0.745,0.09,9.701,0.8638431642954639,4.423281068527967,2.5451629072681703,0,0.05
1757329183.410502,-0.735,0.124,9.717,0.8628702524134205,4.386541638858414,2.544862155388471,0,0.05
1757329183.4359536,-0.735,0.124,9.717,0.8628702524134205,4.386541638858414,2.544862155388471,0,0.05
1757329183.4617567,-0.843,-0.062,9.782,0.8620919165031069,4.938743765737033,2.5492230576441104,0,0.05
1757329183.4874816,-0.843,-0.062,9.782,0.8620919165031069,4.938743765737033,2.5492230576441104,0,0.05
1757329183.5135577,-0.776,0.126,9.804,0.8610866985966047,4.584622354164039,2.552280701754386,0,0.05
1757329183.5392125,-0.776,0.126,9.804,0.8610866985966047,4.584622354164039,2.552280701754386,0,0.05
1757329183.5656567,-0.776,0.165,9.745,0.8600604063087661,4.654229428394021,2.5518796992481203,0,0.05
1757329183.5916116,-0.776,0.165,9.745,0.8600604063087661,4.654229428394021,2.5518796992481203,0,0.05
1757329183.6185498,-0.54,-0.116,9.62,0.8586073971845339,3.2859491240886123,2.563408521303258,0,0.05
1757329183.6452923,-0.54,-0.116,9.62,0.8586073971845339,3.2859491240886123,2.563408521303258,0,0.05
1757329183.6717453,-0.529,-0.007,9.598,0.8571546039076031,3.154977902070511,2.5631077694235587,0,0.05
1757329183.6990087,-0.529,-0.007,9.598,0.8571546039076031,3.154977902070511,2.5631077694235587,0,0.05
1757329183.72595,-0.466,0.261,9.613,0.8556634750297574,3.180173135586811,2.566065162907268,0,0.05
1757329183.7538338,-0.466,0.261,9.613,0.8556634750297574,3.180173135586811,2.566065162907268,0,0.05
1757329183.7812073,-0.571,0.433,9.635,0.8543420758103863,4.25358321843794,2.571228070175439,0,0.05
1757329183.8078187,-0.571,0.433,9.635,0.8543420758103863,4.25358321843794,2.571228070175439,0,0.05
1757329183.8337498,-0.37,0.556,9.6,0.8527479170305842,3.9795795254167614,2.581203007518797,0,0.05
1757329183.8612268,-0.37,0.556,9.6,0.8527479170305842,3.9795795254167614,2.581203007518797,0,0.05
1757329183.8883376,-0.54,0.466,9.609,0.8513714274627732,4.245251774209675,2.5882205513784458,0,0.05
1757329183.9143896,-0.54,0.466,9.609,0.8513714274627732,4.245251774209675,2.5882205513784458,0,0.05
1757329183.9416175,-0.454,0.573,9.714,0.8497677888694064,4.303859951559389,2.592080200501253,0,0.05
1757329183.9691641,-0.454,0.573,9.714,0.8497677888694064,4.303859951559389,2.592080200501253,0,0.05
1757329183.995581,-0.445,0.34,9.596,0.8481188581207235,3.3399918251530103,2.5923809523809527,0,0.05
1757329184.023588,-0.445,0.34,9.596,0.8481188581207235,3.3399918251530103,2.5923809523809527,0,0.05
1757329184.0503948,-0.679,0.213,9.722,0.8468448485407466,4.186434666557447,2.60390977443609,0,0.05
1757329184.0772717,-0.679,0.213,9.722,0.8468448485407466,4.186434666557447,2.60390977443609,0,0.05
1757329184.1049757,-0.717,0.192,9.707,0.8456609234793813,4.372708772602236,2.604962406015038,0,0.05
1757329184.1325405,-0.717,0.192,9.707,0.8456609234793813,4.372708772602236,2.604962406015038,0,0.05
1757329184.1590142,-0.658,-0.006,9.79,0.844412551718649,3.8453081978221815,2.6067167919799497,0,0.05
1757329184.1861866,-0.658,-0.006,9.79,0.844412551718649,3.8453081978221815,2.6067167919799497,0,0.05
1757329184.2130437,-0.905,-0.055,9.739,0.8438139783151261,5.318723234679952,2.618796992481203,0,0.05
1757329184.2407277,-0.905,-0.055,9.739,0.8438139783151261,5.318723234679952,2.618796992481203,0,0.05
1757329184.267639,-0.853,0.036,9.844,0.8430990763249595,4.956796827093391,2.6213032581453635,0,0.05
1757329184.2935867,-0.853,0.036,9.844,0.8430990763249595,4.956796827093391,2.6213032581453635,0,0.05
1757329184.3199112,-0.879,0.048,9.768,0.8424438527284771,5.149686234225093,2.622506265664161,0,0.05
1757329184.3470252,-0.879,0.048,9.768,0.8424438527284771,5.149686234225093,2.622506265664161,0,0.05
1757329184.3731675,-0.845,-0.275,9.897,0.8416945214862693,5.130661776352898,2.6226065162907264,0,0.05
1757329184.3998516,-0.845,-0.275,9.897,0.8416945214862693,5.130661776352898,2.6226065162907264,0,0.05
1757329184.426448,-0.722,-0.127,9.972,0.8405513889703592,4.2044956988768964,2.628671679197995,0,0.05
1757329184.4536457,-0.722,-0.127,9.972,0.8405513889703592,4.2044956988768964,2.628671679197995,0,0.05
1757329184.4810035,-0.868,-0.142,10.08,0.8397590770572236,4.986759273231381,2.635739348370927,0,0.05
1757329184.5070283,-0.868,-0.142,10.08,0.8397590770572236,4.986759273231381,2.635739348370927,0,0.05
1757329184.5338116,-0.368,-0.177,9.986,0.8380277829523315,2.3416716433310545,2.65984962406015,0,0.05
1757329184.5601654,-0.368,-0.177,9.986,0.8380277829523315,2.3416716433310545,2.65984962406015,0,0.05
1757329184.5863543,-0.877,-0.087,10.11,0.8373036411601229,4.9819701889228405,2.684160401002506,0,0.05
1757329184.61249,-0.877,-0.087,10.11,0.8373036411601229,4.9819701889228405,2.684160401002506,0,0.05
1757329184.639886,-0.705,-0.099,9.987,0.836251702539373,4.077397226182969,2.692380952380952,0,0.05
1757329184.666119,-0.705,-0.099,9.987,0.836251702539373,4.077397226182969,2.692380952380952,0,0.05
1757329184.6922789,-0.593,-0.06,9.777,0.8350069894917047,3.4885609148402845,2.6979949874686717,0,0.05
1757329184.7190557,-0.593,-0.06,9.777,0.8350069894917047,3.4885609148402845,2.6979949874686717,0,0.05
1757329184.7450416,-0.776,-0.096,9.924,0.8341359316682143,4.505048515760414,2.7071177944862153,0,0.05
1757329184.7711947,-0.776,-0.096,9.924,0.8341359316682143,4.505048515760414,2.7071177944862153,0,0.05
1757329184.797151,-0.776,-0.096,9.924,0.8341359316682143,4.505048515760414,2.7071177944862153,0,0.05
1757329184.8234832,-0.789,-0.191,9.906,0.8332912171024006,4.684878134108323,2.7063157894736847,0,0.05
1757329184.8491971,-0.909,0.057,9.761,0.8326554779739337,5.330754761891976,2.711127819548872,0,0.05
1757329184.876273,-0.909,0.057,9.761,0.8326554779739337,5.330754761891976,2.711127819548872,0,0.05
1757329184.9030924,-0.82,0.197,9.872,0.8317065197532121,4.882733049488087,2.715388471177945,0,0.05
1757329184.9295504,-0.82,0.197,9.872,0.8317065197532121,4.882733049488087,2.715388471177945,0,0.05
1757329184.9567506,-0.747,0.121,10.051,0.8305705674414426,4.305656668663749,2.7185964912280696,0,0.05
1757329184.9836905,-0.747,0.121,10.051,0.8305705674414426,4.305656668663749,2.7185964912280696,0,0.05
1757329185.0096002,-0.747,0.121,10.051,0.8305705674414426,4.305656668663749,2.7185964912280696,0,0.05
1757329185.0369687,-0.698,0.015,9.641,0.829357314430879,4.141892249917831,2.7198496240601506,0,0.05
1757329185.0634415,-0.813,-0.167,9.888,0.8284860016922434,4.7980214541261414,2.7248120300751877,0,0.05
1757329185.0914938,-0.813,-0.167,9.888,0.8284860016922434,4.7980214541261414,2.7248120300751877,0,0.05
1757329185.118347,-0.874,-0.096,10.045,0.8278225791194632,5.002450338121091,2.72781954887218,0,0.05
1757329185.1460323,-0.874,-0.096,10.045,0.8278225791194632,5.002450338121091,2.72781954887218,0,0.05
1757329185.1726081,-1.027,-0.004,9.563,0.8275947287169004,6.129723188610158,2.735388471177945,0,0.05
1757329185.1996562,-1.027,-0.004,9.563,0.8275947287169004,6.129723188610158,2.735388471177945,0,0.05
1757329185.2263355,-1.027,-0.004,9.563,0.8275947287169004,6.129723188610158,2.735388471177945,0,0.05
1757329185.2528584,-0.625,0.085,9.535,0.8263562170759048,3.7846813704940705,2.754185463659148,0,0.05
1757329185.2808282,-0.855,-0.121,9.859,0.8257201932252839,5.005587435369622,2.7632080200501252,0,0.05
1757329185.306644,-0.855,-0.121,9.859,0.8257201932252839,5.005587435369622,2.7632080200501252,0,0.05
1757329185.3336701,-0.87,0.149,9.542,0.825281627688391,5.285011498241384,2.755639097744361,0,0.05
1757329185.3606026,-0.87,0.149,9.542,0.825281627688391,5.285011498241384,2.755639097744361,0,0.05
1757329185.3870063,-0.66,-0.086,9.527,0.8248288564908481,3.9963295755320956,2.7518796992481205,0,0.05
1757329185.4139216,-0.66,-0.086,9.527,0.8248288564908481,3.9963295755320956,2.7518796992481205,0,0.05
1757329185.4404485,-0.777,-0.107,9.768,0.8237666872361373,4.590781360336068,2.7301253132832084,0,0.05
1757329185.4667978,-0.777,-0.107,9.768,0.8237666872361373,4.590781360336068,2.7301253132832084,0,0.05
1757329185.4935389,-0.777,-0.107,9.768,0.8237666872361373,4.590781360336068,2.7301253132832084,0,0.05
1757329185.520983,-0.742,0.052,9.604,0.8240720614727817,4.428658136954412,2.7193483709273183,0,0.05
1757329185.54694,-0.742,0.052,9.604,0.8240720614727817,4.428658136954412,2.7193483709273183,0,0.05
1757329185.5748556,-0.807,0.024,9.271,0.8239870645222532,4.976996145521635,2.7147368421052627,0,0.05
1757329185.6011572,-0.807,0.024,9.271,0.8239870645222532,4.976996145521635,2.7147368421052627,0,0.05
1757329185.627477,-0.838,0.006,9.663,0.823541305885746,4.956561876933556,2.7024561403508773,0,0.05
1757329185.654012,-0.838,0.006,9.663,0.823541305885746,4.956561876933556,2.7024561403508773,0,0.05
1757329185.6809459,-0.762,0.106,9.543,0.8219575430032867,4.609101969958298,2.701503759398496,0,0.05
1757329185.7071924,-0.762,0.106,9.543,0.8219575430032867,4.609101969958298,2.701503759398496,0,0.05
1757329185.7351344,-0.816,0.011,9.39,0.8208554927634948,4.9670300515601316,2.6970426065162902,0,0.05
1757329185.7628093,-0.816,0.011,9.39,0.8208554927634948,4.9670300515601316,2.6970426065162902,0,0.05
1757329185.7908864,-0.916,-0.082,9.793,0.8204987141976519,5.364926001238186,2.6855137844611527,0,0.05
1757329185.8177383,-0.916,-0.082,9.793,0.8204987141976519,5.364926001238186,2.6855137844611527,0,0.05
1757329185.8440738,-0.983,-0.187,9.829,0.8191269574980425,5.812897300599962,2.6591478696741855,0,0.05
1757329185.870828,-0.983,-0.187,9.829,0.8191269574980425,5.812897300599962,2.6591478696741855,0,0.05
1757329185.8965597,-0.688,-0.191,9.669,0.8189374274021184,4.223417857948711,2.655739348370927,0,0.05
1757329185.9236014,-0.688,-0.191,9.669,0.8189374274021184,4.223417857948711,2.655739348370927,0,0.05
1757329185.9503632,-0.427,0.142,9.836,0.8172442061587222,2.6194275970505267,2.656842105263158,0,0.05
1757329185.9782076,-0.427,0.142,9.836,0.8172442061587222,2.6194275970505267,2.656842105263158,0,0.05
1757329186.0054598,-0.815,-0.078,9.772,0.8153662321313043,4.789206859727956,2.6635087719298247,0,0.05
1757329186.0325377,-0.815,-0.078,9.772,0.8153662321313043,4.789206859727956,2.6635087719298247,0,0.05
1757329186.059881,-0.443,-0.086,9.564,0.8137424131750783,2.701456341124373,2.681954887218045,0,0.05
1757329186.0863774,-0.443,-0.086,9.564,0.8137424131750783,2.701456341124373,2.681954887218045,0,0.05
1757329186.113868,-0.877,0.016,9.804,0.8129828396097915,5.112536355389117,2.694887218045112,0,0.05
1757329186.1399958,-0.877,0.016,9.804,0.8129828396097915,5.112536355389117,2.694887218045112,0,0.05
1757329186.166796,-0.71,-0.034,9.691,0.8123758905211307,4.195007753379204,2.6912781954887217,0,0.05
1757329186.193518,-0.71,-0.034,9.691,0.8123758905211307,4.195007753379204,2.6912781954887217,0,0.05
1757329186.221416,-0.853,-0.047,9.579,0.8113268068417313,5.096385417759556,2.6965413533834584,0,0.05
1757329186.247857,-0.853,-0.047,9.579,0.8113268068417313,5.096385417759556,2.6965413533834584,0,0.05
1757329186.275138,-0.638,0.06,9.738,0.8099186965368809,3.764955866138423,2.7001503759398497,0,0.05
1757329186.3022037,-0.638,0.06,9.738,0.8099186965368809,3.764955866138423,2.7001503759398497,0,0.05
1757329186.3288252,-0.687,-0.047,9.766,0.8080687207781279,4.0332804965711295,2.6981453634085213,0,0.05
1757329186.3559585,-0.687,-0.047,9.766,0.8080687207781279,4.0332804965711295,2.6981453634085213,0,0.05
1757329186.3826225,-0.646,-0.04,9.686,0.8064740076406679,3.822931263354093,2.6971428571428566,0,0.05
1757329186.4084756,-0.646,-0.04,9.686,0.8064740076406679,3.822931263354093,2.6971428571428566,0,0.05
1757329186.4347913,-0.588,0.047,9.843,0.8049871272262682,3.4295436651237363,2.6893734335839596,0,0.05
1757329186.4619198,-0.588,0.047,9.843,0.8049871272262682,3.4295436651237363,2.6893734335839596,0,0.05
1757329186.4897087,-0.636,0.106,9.753,0.8042747742531777,3.782331828257931,2.6777944862155385,0,0.05
1757329186.517588,-0.636,0.106,9.753,0.8042747742531777,3.782331828257931,2.6777944862155385,0,0.05
1757329186.5436008,-0.376,-0.144,9.634,0.8022239042187661,2.3931554651027565,2.670275689223058,0,0.05
1757329186.5704775,-0.376,-0.144,9.634,0.8022239042187661,2.3931554651027565,2.670275689223058,0,0.05
1757329186.5979855,-0.98,0.177,9.88,0.8027279629488436,5.7556962710562924,2.6716791979949877,0,0.05
1757329186.6241195,-0.98,0.177,9.88,0.8027279629488436,5.7556962710562924,2.6716791979949877,0,0.05
1757329186.6510527,-0.181,0.41,9.869,0.7998339796482767,2.6001536562475676,2.7026566416040096,0,0.05
1757329186.6780767,-0.181,0.41,9.869,0.7998339796482767,2.6001536562475676,2.7026566416040096,0,0.05
1757329186.7052455,-0.508,0.068,9.882,0.7980109225442971,2.9689913835287305,2.7148370927318295,0,0.05
1757329186.7328346,-0.508,0.068,9.882,0.7980109225442971,2.9689913835287305,2.7148370927318295,0,0.05
1757329186.7603252,-0.539,-0.259,9.78,0.7965381550810985,3.498995530552991,2.712180451127819,0,0.05
1757329186.7869866,-0.539,-0.259,9.78,0.7965381550810985,3.498995530552991,2.712180451127819,0,0.05
1757329186.8131022,-0.827,-0.147,9.663,0.7959624944053583,4.967988346426802,2.7240601503759403,0,0.05
1757329186.8390167,-0.827,-0.147,9.663,0.7959624944053583,4.967988346426802,2.7240601503759403,0,0.05
1757329186.8657343,-0.542,-0.241,9.52,0.7949333384001454,3.565334762571286,2.735538847117794,0,0.05
1757329186.8929331,-0.542,-0.241,9.52,0.7949333384001454,3.565334762571286,2.735538847117794,0,0.05
1757329186.9195313,-0.707,-0.05,9.587,0.7940506186635711,4.22817849557578,2.7410526315789467,0,0.05
1757329186.9452302,-0.707,-0.05,9.587,0.7940506186635711,4.22817849557578,2.7410526315789467,0,0.05
1757329186.972397,-0.686,-0.098,9.824,0.7929374581264276,4.034842743419556,2.738696741854636,0,0.05
1757329186.9995098,-0.686,-0.098,9.824,0.7929374581264276,4.034842743419556,2.738696741854636,0,0.05
1757329187.025735,-0.686,-0.098,9.824,0.7929374581264276,4.034842743419556,2.738696741854636,0,0.05
1757329187.0517406,-0.497,-0.026,9.707,0.7912293046266676,2.9349949294797297,2.74501253132832,0,0.05
1757329187.0786967,-0.649,0.115,9.701,0.7895569485477283,3.886843951183739,2.7473684210526317,0,0.05
1757329187.1057096,-0.649,0.115,9.701,0.7895569485477283,3.886843951183739,2.7473684210526317,0,0.05
1757329187.1333048,-0.574,0.113,9.761,0.7881231264846883,3.4298701099169806,2.7420050125313282,0,0.05
1757329187.1600907,-0.574,0.113,9.761,0.7881231264846883,3.4298701099169806,2.7420050125313282,0,0.05
1757329187.1860313,-0.457,0.249,9.703,0.7857993143926761,3.0701887287942893,2.744360902255639,0,0.05
1757329187.213701,-0.457,0.249,9.703,0.7857993143926761,3.0701887287942893,2.744360902255639,0,0.05
1757329187.241143,-0.435,-0.385,9.706,0.7837182545404949,3.4250689073558878,2.7275689223057644,0,0.05
1757329187.2680793,-0.435,-0.385,9.706,0.7837182545404949,3.4250689073558878,2.7275689223057644,0,0.05
1757329187.295284,-0.705,-0.211,10.041,0.783314735594831,4.191674653732429,2.7257644110275687,0,0.05
1757329187.3215017,-0.705,-0.211,10.041,0.783314735594831,4.191674653732429,2.7257644110275687,0,0.05
1757329187.3488948,-0.705,-0.211,10.041,0.783314735594831,4.191674653732429,2.7257644110275687,0,0.05
1757329187.3760133,-0.705,-0.211,10.041,0.783314735594831,4.191674653732429,2.7257644110275687,0,0.05
1757329187.402861,-0.094,0.339,9.792,0.7811338585671472,2.0575451305944936,2.7548872180451123,0,0.05
1757329187.4292328,-0.31,0.121,9.883,0.7789726214701002,1.9285193725334637,2.7563909774436084,0,0.05
1757329187.4557052,-0.51,0.441,9.832,0.7777325729323673,3.922898134273832,2.7651629072681696,0,0.05
1757329187.483141,-0.51,0.441,9.832,0.7777325729323673,3.922898134273832,2.7651629072681696,0,0.05
1757329187.5102818,-0.568,0.332,9.766,0.7766719465128118,3.854055008986241,2.7661654135338347,0,0.05
1757329187.5370562,-0.568,0.332,9.766,0.7766719465128118,3.854055008986241,2.7661654135338347,0,0.05
1757329187.5634272,-0.555,0.136,9.69,0.7754626183769273,3.3748288709517302,2.7656641604010024,0,0.05
1757329187.5900016,-0.555,0.136,9.69,0.7754626183769273,3.3748288709517302,2.7656641604010024,0,0.05
1757329187.6171575,-0.737,0.068,9.764,0.774553700526955,4.334842822322628,2.7653132832080196,0,0.05
1757329187.6428552,-0.737,0.068,9.764,0.774553700526955,4.334842822322628,2.7653132832080196,0,0.05
1757329187.6696866,-0.783,-0.092,9.732,0.7730562431026606,4.631399848868726,2.759949874686717,0,0.05
1757329187.6959307,-0.783,-0.092,9.732,0.7730562431026606,4.631399848868726,2.759949874686717,0,0.05
1757329187.7217948,-0.549,-0.025,9.669,0.7716282119648037,3.2530910284441967,2.7699749373433584,0,0.05
1757329187.7477353,-0.549,-0.025,9.669,0.7716282119648037,3.2530910284441967,2.7699749373433584,0,0.05
1757329187.7742574,-0.694,-0.187,9.623,0.7706081348519492,4.271552876802772,2.7737844611528817,0,0.05
1757329187.7999644,-0.694,-0.187,9.623,0.7706081348519492,4.271552876802772,2.7737844611528817,0,0.05
1757329187.8256214,-0.862,0.063,9.74,0.7697672927580127,5.070977798606202,2.775989974937343,0,0.05
1757329187.8521512,-0.862,0.063,9.74,0.7697672927580127,5.070977798606202,2.775989974937343,0,0.05
1757329187.878624,-0.646,-0.049,9.456,0.7688237590631548,3.9193613290324025,2.779899749373433,0,0.05
1757329187.9052649,-0.646,-0.049,9.456,0.7688237590631548,3.9193613290324025,2.779899749373433,0,0.05
1757329187.9311182,-0.984,-0.496,9.539,0.7682959651071974,6.589568927093063,2.7806516290726813,0,0.05
1757329187.9571362,-0.984,-0.496,9.539,0.7682959651071974,6.589568927093063,2.7806516290726813,0,0.05
1757329187.9836156,-0.858,-0.055,9.847,0.7684156492419971,4.989953212463044,2.7656641604010024,0,0.05
1757329188.010791,-0.858,-0.055,9.847,0.7684156492419971,4.989953212463044,2.7656641604010024,0,0.05
1757329188.0362058,-0.573,0.171,9.716,0.7664500179398523,3.5218286530828573,2.768270676691729,0,0.1
1757329188.0625293,-0.573,0.171,9.716,0.7664500179398523,3.5218286530828573,2.768270676691729,0,0.1
1757329188.0888665,-0.6,0.145,9.853,0.7653858765354898,3.5847896568183018,2.767518796992481,0,0.1
1757329188.1147318,-0.6,0.145,9.853,0.7653858765354898,3.5847896568183018,2.767518796992481,0,0.1
1757329188.1408463,-0.6,0.145,9.853,0.7653858765354898,3.5847896568183018,2.767518796992481,0,0.1
1757329188.167255,-0.472,0.274,9.726,0.7639546714301838,3.2117316134104787,2.7686716791979946,0,0.1
1757329188.1941686,-0.472,0.274,9.726,0.7639546714301838,3.2117316134104787,2.7686716791979946,0,0.1
1757329188.2203019,-0.503,0.196,9.698,0.7621914064065535,3.1860742398528274,2.757944862155388,0,0.1
1757329188.24706,-0.503,0.196,9.698,0.7621914064065535,3.1860742398528274,2.757944862155388,0,0.1
1757329188.2736523,-0.532,0.193,9.618,0.7613029226267294,3.367422200415518,2.755588972431078,0,0.1
1757329188.2999055,-0.532,0.193,9.618,0.7613029226267294,3.367422200415518,2.755588972431078,0,0.1
1757329188.3272576,-0.563,0.132,9.747,0.7602328080923633,3.395247910455652,2.753784461152882,0,0.1
1757329188.3547342,-0.563,0.132,9.747,0.7602328080923633,3.395247910455652,2.753784461152882,0,0.1
1757329188.3813431,-0.543,0.118,9.878,0.7589002190670391,3.219702849678147,2.750225563909775,0,0.1
1757329188.408487,-0.543,0.118,9.878,0.7589002190670391,3.219702849678147,2.750225563909775,0,0.1
1757329188.435609,-0.477,0.265,9.665,0.7577561382133436,3.231385490561877,2.7481704260651627,0,0.1
1757329188.4633884,-0.477,0.265,9.665,0.7577561382133436,3.231385490561877,2.7481704260651627,0,0.1
1757329188.490098,-0.486,0.094,9.677,0.7562662444536316,2.9282956845599255,2.7388471177944855,0,0.1
1757329188.5165288,-0.486,0.094,9.677,0.7562662444536316,2.9282956845599255,2.7388471177944855,0,0.1
1757329188.5424216,-0.57,0.17,9.708,0.7555461087848974,3.506139639995755,2.7296240601503756,0,0.1
1757329188.568878,-0.57,0.17,9.708,0.7555461087848974,3.506139639995755,2.7296240601503756,0,0.1
1757329188.594864,-0.718,-0.023,9.59,0.7542477925058846,4.283914952028401,2.7300250626566416,0,0.1
1757329188.6216893,-0.718,-0.023,9.59,0.7542477925058846,4.283914952028401,2.7300250626566416,0,0.1
1757329188.6492667,-0.903,-0.427,9.709,0.753941811415178,5.873961790285769,2.72892230576441,0,0.1
1757329188.6761382,-0.903,-0.427,9.709,0.753941811415178,5.873961790285769,2.72892230576441,0,0.1
1757329188.702102,-0.664,0.08,9.714,0.7536301297718928,3.938557845686011,2.730175438596491,0,0.1
1757329188.728465,-0.664,0.08,9.714,0.7536301297718928,3.938557845686011,2.730175438596491,0,0.1
1757329188.7553968,-0.865,-0.003,9.621,0.7531890947829768,5.137537631852208,2.7330827067669174,0,0.1
1757329188.7821867,-0.865,-0.003,9.621,0.7531890947829768,5.137537631852208,2.7330827067669174,0,0.1
1757329188.8082798,-0.767,0.067,9.759,0.7519696037739824,4.510915928645864,2.729774436090225,0,0.1
1757329188.8349185,-0.767,0.067,9.759,0.7519696037739824,4.510915928645864,2.729774436090225,0,0.1
1757329188.8625624,-0.56,0.058,9.725,0.7508740207251813,3.3132448013435454,2.7312781954887213,0,0.1
1757329188.8902369,-0.56,0.058,9.725,0.7508740207251813,3.3132448013435454,2.7312781954887213,0,0.1
1757329188.9162586,-0.744,0.021,9.669,0.7495426688988426,4.401810304663343,2.7324812030075183,0,0.1
1757329188.9425483,-0.744,0.021,9.669,0.7495426688988426,4.401810304663343,2.7324812030075183,0,0.1
1757329188.9686077,-0.57,-0.056,9.801,0.7484059326328193,3.3444088692577782,2.7380451127819545,0,0.1
1757329188.9945388,-0.57,-0.056,9.801,0.7484059326328193,3.3444088692577782,2.7380451127819545,0,0.1
1757329189.0207963,-0.955,-0.03,9.835,0.7480311574393141,5.54887655935636,2.754035087719298,0,0.1
1757329189.04697,-0.955,-0.03,9.835,0.7480311574393141,5.54887655935636,2.754035087719298,0,0.1
1757329189.0733855,-0.707,0.025,9.681,0.7467239617154388,4.179476730874226,2.7640100250626563,0,0.1
1757329189.099809,-0.707,0.025,9.681,0.7467239617154388,4.179476730874226,2.7640100250626563,0,0.1
1757329189.126245,-0.779,0.127,9.699,0.7457758074649512,4.652359794298217,2.7573934837092726,0,0.1
1757329189.1521451,-0.779,0.127,9.699,0.7457758074649512,4.652359794298217,2.7573934837092726,0,0.1
1757329189.1784863,-0.726,-0.048,9.743,0.7438805834944208,4.270791011067131,2.749774436090225,0,0.1
1757329189.2043388,-0.726,-0.048,9.743,0.7438805834944208,4.270791011067131,2.749774436090225,0,0.1
1757329189.2319992,-0.819,0.107,9.675,0.7430399821005597,4.879540776886625,2.752932330827068,0,0.1
1757329189.2594223,-0.819,0.107,9.675,0.7430399821005597,4.879540776886625,2.752932330827068,0,0.1
1757329189.2861915,-0.831,-0.003,9.647,0.7421209183819035,4.923380979719724,2.752982456140351,0,0.1
1757329189.3122137,-0.831,-0.003,9.647,0.7421209183819035,4.923380979719724,2.752982456140351,0,0.1
1757329189.3380382,-0.729,-0.338,9.817,0.7408908404751675,4.679366873080353,2.745814536340852,0,0.1
1757329189.3644433,-0.729,-0.338,9.817,0.7408908404751675,4.679366873080353,2.745814536340852,0,0.1
1757329189.3910437,-0.96,0.29,9.621,0.741145078577737,5.9507421928629105,2.7396992481203006,0,0.1
1757329189.4177518,-0.96,0.29,9.621,0.741145078577737,5.9507421928629105,2.7396992481203006,0,0.1
1757329189.4438112,-0.533,0.202,9.508,0.7390655231439226,3.4307113507653133,2.756190476190476,0,0.1
1757329189.4710007,-0.533,0.202,9.508,0.7390655231439226,3.4307113507653133,2.756190476190476,0,0.1
1757329189.4980283,-0.288,0.02,9.751,0.7370318751587341,1.6958358060897392,2.7620551378446114,0,0.1
1757329189.5241346,-0.288,0.02,9.751,0.7370318751587341,1.6958358060897392,2.7620551378446114,0,0.1
1757329189.549974,-0.637,0.466,9.741,0.7350204793065293,4.632221248885698,2.77609022556391,0,0.1
1757329189.5759954,-0.637,0.466,9.741,0.7350204793065293,4.632221248885698,2.77609022556391,0,0.1
1757329189.6023886,-0.629,0.24,9.608,0.7332748785414648,4.008159310039384,2.7727819548872183,0,0.1
1757329189.6294487,-0.629,0.24,9.608,0.7332748785414648,4.008159310039384,2.7727819548872183,0,0.1
1757329189.6558747,-0.772,-0.085,9.687,0.7321592705825694,4.583943374064195,2.7774436090225567,0,0.1
1757329189.6830976,-0.772,-0.085,9.687,0.7321592705825694,4.583943374064195,2.7774436090225567,0,0.1
1757329189.7092478,-0.75,0.028,9.667,0.7311715855392632,4.439400316577906,2.775588972431078,0,0.1
1757329189.7367637,-0.75,0.028,9.667,0.7311715855392632,4.439400316577906,2.775588972431078,0,0.1
1757329189.7634735,-0.713,-0.169,9.526,0.7302996696562308,4.398620713745369,2.777243107769424,0,0.1
1757329189.789665,-0.713,-0.169,9.526,0.7302996696562308,4.398620713745369,2.777243107769424,0,0.1
1757329189.8154721,-0.531,-0.028,9.711,0.7290247509515709,3.1341708546718143,2.772130325814536,0,0.1
1757329189.842346,-0.531,-0.028,9.711,0.7290247509515709,3.1341708546718143,2.772130325814536,0,0.1
1757329189.8688529,-0.793,0.075,9.69,0.7272163966110774,4.699270222762839,2.763558897243108,0,0.1
1757329189.8964667,-0.793,0.075,9.69,0.7272163966110774,4.699270222762839,2.763558897243108,0,0.1
1757329189.922515,-0.562,0.074,9.575,0.7264757790181309,3.3880212812819335,2.763609022556391,0,0.1
1757329189.9484339,-0.562,0.074,9.575,0.7264757790181309,3.3880212812819335,2.763609022556391,0,0.1
1757329189.9751055,-0.562,0.074,9.575,0.7264757790181309,3.3880212812819335,2.763609022556391,0,0.1
1757329190.0010347,-0.705,0.025,9.79,0.7252706598229381,4.121468360842113,2.76937343358396,0,0.1
1757329190.0274563,-0.705,0.025,9.79,0.7252706598229381,4.121468360842113,2.76937343358396,0,0.1
1757329190.053873,-0.923,-0.33,9.776,0.7247802856728376,5.725789501131166,2.776390977443609,0,0.1
1757329190.0810509,-0.923,-0.33,9.776,0.7247802856728376,5.725789501131166,2.776390977443609,0,0.1
1757329190.1086028,-0.651,-0.126,9.464,0.7238270546200936,4.007796351541609,2.7897744360902252,0,0.1
1757329190.136297,-0.651,-0.126,9.464,0.7238270546200936,4.007796351541609,2.7897744360902252,0,0.1
1757329190.1650832,-0.864,0.005,9.604,0.7234473875134253,5.140719727925785,2.796390977443609,0,0.1
1757329190.1912847,-0.864,0.005,9.604,0.7234473875134253,5.140719727925785,2.796390977443609,0,0.1
1757329190.2178745,-0.687,-0.219,9.683,0.7223058943411718,4.258771089289721,2.800501253132832,0,0.1
1757329190.2444575,-0.687,-0.219,9.683,0.7223058943411718,4.258771089289721,2.800501253132832,0,0.1
1757329190.2718468,-0.559,0.029,9.501,0.7212209127583586,3.371685339197864,2.8023558897243106,0,0.1
1757329190.2981973,-0.559,0.029,9.501,0.7212209127583586,3.371685339197864,2.8023558897243106,0,0.1
1757329190.3246565,-0.75,-0.159,9.65,0.7202477733391475,4.5424675922869815,2.798696741854636,0,0.1
1757329190.3517036,-0.75,-0.159,9.65,0.7202477733391475,4.5424675922869815,2.798696741854636,0,0.1
1757329190.3790708,-0.71,-0.17,9.863,0.7180770606278967,4.233366803650187,2.7933333333333334,0,0.1
1757329190.4050012,-0.71,-0.17,9.863,0.7180770606278967,4.233366803650187,2.7933333333333334,0,0.1
1757329190.4307125,-0.928,0.044,9.706,0.7171640694429692,5.467601268517361,2.7898746867167916,0,0.1
1757329190.4572916,-0.928,0.044,9.706,0.7171640694429692,5.467601268517361,2.7898746867167916,0,0.1
1757329190.4838786,-0.874,-0.123,9.756,0.7171148739916081,5.169401977019173,2.7885714285714283,0,0.1
1757329190.510819,-0.874,-0.123,9.756,0.7171148739916081,5.169401977019173,2.7885714285714283,0,0.1
1757329190.5369473,-0.903,-0.145,9.973,0.717392511112292,5.2396181604774545,2.7886215538847114,0,0.1
1757329190.5625732,-0.903,-0.145,9.973,0.717392511112292,5.2396181604774545,2.7886215538847114,0,0.1
1757329190.5894668,-0.869,-0.108,9.749,0.7176427436405944,5.132710470683236,2.789122807017544,0,0.1
1757329190.6167574,-0.869,-0.108,9.749,0.7176427436405944,5.132710470683236,2.789122807017544,0,0.1
1757329190.6435971,-0.821,-0.074,9.698,0.7176852513462987,4.858452427394336,2.764260651629072,0,0.1
1757329190.6697812,-0.821,-0.074,9.698,0.7176852513462987,4.858452427394336,2.764260651629072,0,0.1
1757329190.6964784,-0.907,-0.279,9.749,0.7159416823317385,5.559503728251207,2.7663157894736843,0,0.1
1757329190.722917,-0.907,-0.279,9.749,0.7159416823317385,5.559503728251207,2.7663157894736843,0,0.1
1757329190.7505286,-0.862,-0.372,9.892,0.7142636348016046,5.421668949914634,2.762706766917293,0,0.1
1757329190.7777877,-0.862,-0.372,9.892,0.7142636348016046,5.421668949914634,2.762706766917293,0,0.1
1757329190.804793,-0.677,-0.164,9.611,0.711521716112727,4.145404530891027,2.763157894736842,0,0.1
1757329190.831726,-0.677,-0.164,9.611,0.711521716112727,4.145404530891027,2.763157894736842,0,0.1
1757329190.8579879,-0.677,-0.164,9.611,0.711521716112727,4.145404530891027,2.763157894736842,0,0.1
1757329190.885149,-1.0,-0.16,9.85,0.7105503940608294,5.870189221444472,2.776741854636591,0,0.1
1757329190.9110277,-0.909,0.266,9.827,0.7090384721578935,5.505129226982935,2.7701754385964907,0,0.1
1757329190.9377682,-0.909,0.266,9.827,0.7090384721578935,5.505129226982935,2.7701754385964907,0,0.1
1757329190.9637198,-0.793,0.01,9.834,0.7081053858713405,4.610640827102584,2.771629072681704,0,0.1
1757329190.9906232,-0.793,0.01,9.834,0.7081053858713405,4.610640827102584,2.771629072681704,0,0.1
1757329191.0175862,-0.735,-0.019,9.906,0.7073319570753183,4.244837822621079,2.7690225563909774,0,0.1
1757329191.0443354,-0.735,-0.019,9.906,0.7073319570753183,4.244837822621079,2.7690225563909774,0,0.1
1757329191.0718324,-0.735,-0.019,9.906,0.7073319570753183,4.244837822621079,2.7690225563909774,0,0.1
1757329191.0984924,-0.793,0.006,9.838,0.7070778015890472,4.608540795788934,2.756441102756892,0,0.1
1757329191.1250753,-0.764,-0.349,9.897,0.7075351634371255,4.850954573727403,2.7350375939849623,0,0.1
1757329191.1510768,-0.764,-0.349,9.897,0.7075351634371255,4.850954573727403,2.7350375939849623,0,0.1
1757329191.1769557,-0.764,-0.349,9.897,0.7075351634371255,4.850954573727403,2.7350375939849623,0,0.1
1757329191.203961,-0.964,-0.228,9.962,0.7073171548181197,5.678678198613199,2.736491228070175,0,0.1
1757329191.2316873,-0.863,-0.132,9.803,0.7073414433638114,5.0892273769853205,2.7322807017543855,0,0.1
1757329191.2586634,-0.863,-0.132,9.803,0.7073414433638114,5.0892273769853205,2.7322807017543855,0,0.1
1757329191.2848067,-0.751,-0.135,9.831,0.7075448183684196,4.4381391672950095,2.7150375939849627,0,0.1
1757329191.3122559,-0.751,-0.135,9.831,0.7075448183684196,4.4381391672950095,2.7150375939849627,0,0.1
1757329191.3389094,-0.711,-0.169,9.862,0.7061967024137114,4.238074023975237,2.7139348370927316,0,0.1
1757329191.3647163,-0.711,-0.169,9.862,0.7061967024137114,4.238074023975237,2.7139348370927316,0,0.1
1757329191.3922262,-0.873,-0.22,9.822,0.7050466261177342,5.237151197362603,2.721553884711779,0,0.1
1757329191.418658,-0.873,-0.22,9.822,0.7050466261177342,5.237151197362603,2.721553884711779,0,0.1
1757329191.445739,-1.0,-0.374,10.026,0.7042746161832045,6.078412310850117,2.724310776942356,0,0.1
1757329191.472589,-1.0,-0.374,10.026,0.7042746161832045,6.078412310850117,2.724310776942356,0,0.1
1757329191.4994059,-1.0,-0.374,10.026,0.7042746161832045,6.078412310850117,2.724310776942356,0,0.1
1757329191.5255637,-0.793,-0.032,9.899,0.703139507850327,4.583844217403986,2.7336842105263153,0,0.1
1757329191.5520287,-0.873,-0.082,10.033,0.7023193006033651,4.994722915604821,2.7323308270676687,0,0.1
1757329191.578496,-0.873,-0.082,10.033,0.7023193006033651,4.994722915604821,2.7323308270676687,0,0.1
1757329191.6056056,-0.629,0.001,9.926,0.7004020845200277,3.6259285565660178,2.7426065162907265,0,0.1
1757329191.6323955,-0.629,0.001,9.926,0.7004020845200277,3.6259285565660178,2.7426065162907265,0,0.1
1757329191.6591766,-0.614,-0.086,9.757,0.6986128255335712,3.6358837628081084,2.738796992481203,0,0.1
1757329191.6856973,-0.614,-0.086,9.757,0.6986128255335712,3.6358837628081084,2.738796992481203,0,0.1
1757329191.712726,-0.908,-0.202,9.935,0.6979891241989377,5.348916638092137,2.751378446115288,0,0.1
1757329191.7401419,-0.908,-0.202,9.935,0.6979891241989377,5.348916638092137,2.751378446115288,0,0.1
1757329191.7663567,-0.808,0.005,9.905,0.6972208957712039,4.663663687102261,2.7534837092731825,0,0.1
