timestamp,ax,ay,az,rms,tilt_now,jerk,tilt_crosses,freq
1757331983.8228488,0.016,-0.221,9.802,0.0008,1.2949752049050869,0.0008020050125313284,0,2.5
1757331983.851919,0.016,-0.215,9.784,0.001131370849898476,1.262332148278735,0.0008020050125313284,0,0.05
1757331983.8794298,0.013,-0.211,9.784,0.0013047988350699889,1.2377809542209233,0.0009523809523809524,0,0.05
1757331983.9061153,-0.008,-0.208,9.769,0.001364734406395618,1.2206499338725068,0.0020050125313283208,0,2.0
1757331983.931668,-0.011,-0.206,9.775,0.0014713938969562162,1.209001682074571,0.0021553884711779446,0,2.8000000000000003
1757331983.957336,0.001,-0.207,9.769,0.0014722431864335457,1.213900103733918,0.0027568922305764407,0,2.85
1757331983.9828935,0.017,-0.212,9.779,0.0017,1.245912152651044,0.0035588972431077693,0,3.6
1757331984.0079622,0.026,-0.219,9.775,0.0021400934559032696,1.2924554561062125,0.0040100250626566416,0,3.3000000000000003
1757331984.0332537,0.026,-0.205,9.769,0.0025039968051097827,1.2117883814857089,0.0040100250626566416,0,2.95
1757331984.058799,0.03,-0.202,9.746,0.0029189039038652843,1.2003876892844754,0.004210526315789474,0,0.05
1757331984.0840385,0.013,-0.211,9.764,0.0029904013108611356,1.24031556029979,0.00506265664160401,0,0.05
1757331984.1098335,-0.017,-0.21,9.775,0.0031088583113419626,1.2347422489591402,0.006566416040100251,0,2.6
1757331984.1352305,-0.033,-0.203,9.762,0.0035195880440756127,1.206922831930952,0.007368421052631579,0,2.5500000000000003
1757331984.1606405,-0.023,-0.196,9.766,0.0037027017163147233,1.1576377067161734,0.00786967418546366,0,2.5
1757331984.1855576,-0.0,-0.209,9.75,0.0037027017163147238,1.227998388715602,0.009022556390977444,0,2.5
1757331984.210434,0.027,-0.22,9.741,0.003941129279787711,1.3035062390713512,0.01037593984962406,0,2.6
1757331984.2352622,0.027,-0.22,9.741,0.003941129279787711,1.3035062390713512,0.01037593984962406,0,2.6
1757331984.2600088,0.037,-0.222,9.739,0.0043537340295429165,1.3238340884275643,0.01087719298245614,0,2.5500000000000003
1757331984.2847812,0.037,-0.222,9.739,0.0043537340295429165,1.3238340884275643,0.01087719298245614,0,2.5500000000000003
1757331984.3095248,0.036,-0.22,9.766,0.0047111569704266915,1.3076490881729979,0.010927318295739346,0,2.5
1757331984.3344238,0.036,-0.22,9.766,0.0047111569704266915,1.3076490881729979,0.010927318295739346,0,2.5
1757331984.3593209,0.024,-0.203,9.76,0.004861584103972695,1.199829480463107,0.011528822055137843,0,2.4000000000000004
1757331984.3843331,0.024,-0.203,9.76,0.004861584103972695,1.199829480463107,0.011528822055137843,0,2.4000000000000004
1757331984.4092286,0.024,-0.203,9.76,0.004861584103972695,1.199829480463107,0.011528822055137843,0,2.4000000000000004
1757331984.4341109,-0.008,-0.192,9.743,0.00487801189010441,1.1299299408251438,0.0131328320802005,0,2.45
1757331984.4591696,-0.008,-0.192,9.743,0.00487801189010441,1.1299299408251438,0.0131328320802005,0,2.45
1757331984.484189,-0.003,-0.19,9.744,0.004880317612614982,1.1172183002540879,0.013383458646616539,0,2.45
1757331984.509492,-0.003,-0.19,9.744,0.004880317612614982,1.1172183002540879,0.013383458646616539,0,2.45
1757331984.5346522,0.005,-0.203,9.744,0.004886716689148246,1.193851287638656,0.013784461152882203,0,2.45
1757331984.559948,0.005,-0.203,9.744,0.004886716689148246,1.193851287638656,0.013784461152882203,0,2.45
1757331984.5849152,0.022,-0.209,9.768,0.005008991914547277,1.2325061748875883,0.014636591478696745,0,2.5500000000000003
1757331984.6099699,0.022,-0.209,9.768,0.005008991914547277,1.2325061748875883,0.014636591478696745,0,2.5500000000000003
1757331984.6349843,0.047,-0.214,9.772,0.005532856405149152,1.284427667178321,0.01588972431077694,0,2.6500000000000004
1757331984.6602497,0.047,-0.214,9.772,0.005532856405149152,1.284427667178321,0.01588972431077694,0,2.6500000000000004
1757331984.6851532,0.04,-0.197,9.778,0.005883238903869195,1.177742853899431,0.016240601503759396,0,2.6
1757331984.7103002,0.04,-0.197,9.778,0.005883238903869195,1.177742853899431,0.016240601503759396,0,2.6
1757331984.735555,0.034,-0.201,9.777,0.006123928477701221,1.1944725883292158,0.016541353383458645,0,2.5500000000000003
1757331984.7607214,0.034,-0.201,9.777,0.006123928477701221,1.1944725883292158,0.016541353383458645,0,2.5500000000000003
1757331984.786452,0.034,-0.201,9.777,0.006123928477701221,1.1944725883292158,0.016541353383458645,0,2.5500000000000003
1757331984.812087,0.027,-0.192,9.773,0.006270964838045259,1.1365570933511087,0.0168922305764411,0,2.5
1757331984.8376548,0.027,-0.192,9.773,0.006270964838045259,1.1365570933511087,0.0168922305764411,0,2.5
1757331984.8631892,-0.0,-0.18,9.792,0.006270964838045259,1.0531126323238187,0.018245614035087718,0,2.5
1757331984.8884835,-0.0,-0.18,9.792,0.006270964838045259,1.0531126323238187,0.018245614035087718,0,2.5
1757331984.9136815,-0.002,-0.184,9.79,0.006271762112835594,1.0767931459664353,0.018345864661654134,0,2.5
1757331984.9388294,-0.002,-0.184,9.79,0.006271762112835594,1.0767931459664353,0.018345864661654134,0,2.5
1757331984.969539,0.013,-0.189,9.777,0.006305354867095111,1.1100675363672108,0.019097744360902252,0,0.05
1757331984.9952688,0.013,-0.189,9.777,0.006305354867095111,1.1100675363672108,0.019097744360902252,0,0.05
1757331985.0214746,0.029,-0.189,9.766,0.006469930447848725,1.1216707584109435,0.019899749373433584,0,0.05
1757331985.046712,0.029,-0.189,9.766,0.006469930447848725,1.1216707584109435,0.019899749373433584,0,0.05
1757331985.0737114,0.029,-0.189,9.766,0.006469930447848725,1.1216707584109435,0.019899749373433584,0,0.05
1757331985.0986223,0.029,-0.189,9.766,0.006469930447848725,1.1216707584109435,0.019899749373433584,0,0.05
1757331985.1237733,0.056,-0.194,9.773,0.007049822692805827,1.1836245258063938,0.021253132832080197,0,0.05
1757331985.1488779,0.069,-0.192,9.779,0.007848726011270873,1.1952047450994927,0.021904761904761903,0,0.05
1757331985.1739874,0.071,-0.198,9.776,0.008614232409216738,1.232612400600816,0.02200501253132832,0,0.05
1757331985.1990354,0.071,-0.198,9.776,0.008614232409216738,1.232612400600816,0.02200501253132832,0,0.05
1757331985.2241156,0.047,-0.197,9.772,0.008929025702729274,1.1873103214596659,0.02320802005012531,0,0.05
1757331985.2491896,0.047,-0.197,9.772,0.008929025702729274,1.1873103214596659,0.02320802005012531,0,0.05
1757331985.2742398,0.032,-0.187,9.774,0.009071245779935632,1.111999999749998,0.023959899749373435,0,0.05
1757331985.2992387,0.032,-0.187,9.774,0.009071245779935632,1.111999999749998,0.023959899749373435,0,0.05
1757331985.3242445,0.032,-0.192,9.761,0.009211270270706423,1.1424089650616134,0.023959899749373435,0,0.05
1757331985.349264,0.032,-0.192,9.761,0.009211270270706423,1.1424089650616134,0.023959899749373435,0,0.05
1757331985.3744483,0.032,-0.192,9.761,0.009211270270706423,1.1424089650616134,0.023959899749373435,0,0.05
1757331985.3995807,0.025,-0.193,9.776,0.00929569792968769,1.1404458447402808,0.024310776942355894,0,0.05
1757331985.4246597,0.025,-0.193,9.776,0.00929569792968769,1.1404458447402808,0.024310776942355894,0,0.05
1757331985.4496028,0.045,-0.198,9.782,0.009564125678806192,1.1891428014275425,0.025313283208020055,0,0.05
1757331985.4747922,0.045,-0.198,9.782,0.009564125678806192,1.1891428014275425,0.025313283208020055,0,0.05
1757331985.4996967,0.058,-0.189,9.781,0.00999412327320411,1.1579379794168,0.025964912280701757,0,0.05
1757331985.5247838,0.058,-0.189,9.781,0.00999412327320411,1.1579379794168,0.025964912280701757,0,0.05
1757331985.549682,0.053,-0.196,9.775,0.010339487414760946,1.1899364058360944,0.0262155388471178,0,0.05
1757331985.5745513,0.053,-0.196,9.775,0.010339487414760946,1.1899364058360944,0.0262155388471178,0,0.05
1757331985.599463,0.045,-0.199,9.777,0.0105814696521797,1.1954635227989239,0.026616541353383462,0,0.05
1757331985.6243303,0.045,-0.199,9.777,0.0105814696521797,1.1954635227989239,0.026616541353383462,0,0.05
1757331985.649507,0.025,-0.191,9.802,0.010655045753069293,1.125833339134654,0.02761904761904762,0,0.05
1757331985.674421,0.025,-0.191,9.802,0.010655045753069293,1.125833339134654,0.02761904761904762,0,0.05
1757331985.6993587,0.025,-0.191,9.802,0.010655045753069293,1.125833339134654,0.02761904761904762,0,0.05
1757331985.7241392,0.011,-0.183,9.792,0.01066923146248126,1.0725924782637168,0.028320802005012528,0,0.05
1757331985.749341,0.011,-0.183,9.792,0.01066923146248126,1.0725924782637168,0.028320802005012528,0,0.05
1757331985.7747889,0.021,-0.185,9.797,0.010720774225773062,1.088752370188982,0.028822055137844606,0,0.05
1757331985.7998636,0.021,-0.185,9.797,0.010720774225773062,1.088752370188982,0.028822055137844606,0,0.05
1757331985.825051,0.027,-0.192,9.788,0.010805438445523624,1.1348157882072136,0.029122807017543852,0,0.05
1757331985.850008,0.027,-0.192,9.788,0.010805438445523624,1.1348157882072136,0.029122807017543852,0,0.05
1757331985.875035,0.047,-0.193,9.781,0.01105802875742327,1.1634486246076021,0.030125313283208013,0,0.05
1757331985.8999655,0.047,-0.193,9.781,0.01105802875742327,1.1634486246076021,0.030125313283208013,0,0.05
1757331985.9248693,0.047,-0.193,9.781,0.01105802875742327,1.1634486246076021,0.030125313283208013,0,0.05
1757331985.9499757,0.055,-0.204,9.778,0.011394845325848,1.237861279141032,0.03052631578947368,0,0.05
1757331985.975053,0.064,-0.201,9.791,0.011835645314050264,1.23422337077613,0.030977443609022555,0,0.05
1757331985.9999547,0.064,-0.201,9.791,0.011835645314050264,1.23422337077613,0.030977443609022555,0,0.05
1757331986.0250273,0.052,-0.197,9.795,0.012117858721737929,1.1916470041458571,0.03157894736842105,0,0.05
1757331986.0501225,0.052,-0.197,9.795,0.012117858721737929,1.1916470041458571,0.03157894736842105,0,0.05
1757331986.0750105,0.052,-0.197,9.795,0.012117858721737929,1.1916470041458571,0.03157894736842105,0,0.05
1757331986.0997808,0.029,-0.169,9.797,0.012204302520013177,1.0027060167670263,0.03273182957393483,0,0.05
1757331986.1248014,0.029,-0.169,9.797,0.012204302520013177,1.0027060167670263,0.03273182957393483,0,0.05
1757331986.1497517,0.009,-0.164,9.787,0.012212595956634282,0.9614553124847175,0.03373433583959899,0,0.05
1757331986.1750796,0.009,-0.164,9.787,0.012212595956634282,0.9614553124847175,0.03373433583959899,0,0.05
1757331986.2004402,0.009,-0.163,9.789,0.012220883765096533,0.9554163179856225,0.03373433583959899,0,0.05
1757331986.2257802,0.009,-0.163,9.789,0.012220883765096533,0.9554163179856225,0.03373433583959899,0,0.05
1757331986.2510908,0.02,-0.171,9.798,0.01226172907872295,1.006669548888764,0.03428571428571429,0,0.05
1757331986.2761765,0.02,-0.171,9.798,0.01226172907872295,1.006669548888764,0.03428571428571429,0,0.05
1757331986.301144,0.045,-0.179,9.812,0.01246645498929026,1.0776418487699146,0.03553884711779449,0,0.05
1757331986.3263211,0.045,-0.179,9.812,0.01246645498929026,1.0776418487699146,0.03553884711779449,0,0.05
1757331986.3513749,0.054,-0.189,9.806,0.012755489014538017,1.1483500265540234,0.03598997493734336,0,0.05
1757331986.3766863,0.054,-0.189,9.806,0.012755489014538017,1.1483500265540234,0.03598997493734336,0,0.05
1757331986.4016423,0.054,-0.189,9.806,0.012755489014538017,1.1483500265540234,0.03598997493734336,0,0.05
1757331986.4265494,0.054,-0.189,9.806,0.012755489014538017,1.1483500265540234,0.03598997493734336,0,0.05
1757331986.4513223,0.054,-0.189,9.806,0.012755489014538017,1.1483500265540234,0.03598997493734336,0,0.05
1757331986.476378,0.056,-0.187,9.799,0.013059192164908211,1.1412332561063034,0.03609022556390977,0,0.05
1757331986.5013237,0.043,-0.195,9.803,0.013234991499808377,1.166939863711387,0.036741854636591485,0,0.05
1757331986.5262709,0.024,-0.185,9.79,0.013289281395169567,1.0916495661358914,0.03769423558897244,0,0.05
1757331986.551236,0.024,-0.185,9.79,0.013289281395169567,1.0916495661358914,0.03769423558897244,0,0.05
1757331986.5765824,0.018,-0.191,9.783,0.013319722219325746,1.123435979499677,0.03799498746867167,0,0.05
1757331986.601511,0.018,-0.191,9.783,0.013319722219325746,1.123435979499677,0.03799498746867167,0,0.05
1757331986.6264594,0.015,-0.19,9.789,0.01334082081432773,1.1154041273576856,0.0381453634085213,0,0.05
1757331986.6515236,0.015,-0.19,9.789,0.01334082081432773,1.1154041273576856,0.0381453634085213,0,0.05
1757331986.676251,0.03,-0.194,9.79,0.01342488361215843,1.1487223259406918,0.03889724310776942,0,0.05
1757331986.7010865,0.03,-0.194,9.79,0.01342488361215843,1.1487223259406918,0.03889724310776942,0,0.05
1757331986.72629,0.03,-0.194,9.79,0.01342488361215843,1.1487223259406918,0.03889724310776942,0,0.05
1757331986.7515643,0.049,-0.208,9.811,0.013646611300978717,1.247763919710252,0.03984962406015038,0,0.05
1757331986.777437,0.049,-0.208,9.811,0.013646611300978717,1.247763919710252,0.03984962406015038,0,0.05
1757331986.8025,0.049,-0.211,9.789,0.013864793543360102,1.2676567991391892,0.03984962406015038,0,0.05
1757331986.8288155,0.049,-0.211,9.789,0.013864793543360102,1.2676567991391892,0.03984962406015038,0,0.05
1757331986.8556457,0.058,-0.205,9.801,0.014164833214690527,1.2452574878257043,0.040300751879699254,0,0.05
1757331986.8825638,0.058,-0.205,9.801,0.014164833214690527,1.2452574878257043,0.040300751879699254,0,0.05
1757331986.9096391,0.08,-0.253,9.811,0.014718780520138208,1.5492360204236029,0.04140350877192983,0,0.05
1757331986.937019,0.08,-0.253,9.811,0.014718780520138208,1.5492360204236029,0.04140350877192983,0,0.05
1757331986.9638631,0.212,-0.224,9.783,0.01813842606181694,1.8056878874517868,0.04802005012531329,0,0.05
1757331986.9914258,0.212,-0.224,9.783,0.01813842606181694,1.8056878874517868,0.04802005012531329,0,0.05
1757331987.0182366,0.641,-0.351,9.791,0.036826688691762664,4.26869347007853,0.06952380952380953,0,0.05
1757331987.0458038,0.641,-0.351,9.791,0.036826688691762664,4.26869347007853,0.06952380952380953,0,0.05
1757331987.0734653,0.474,-0.162,9.909,0.04379377809689408,2.8939492191119536,0.07789473684210527,0,0.05
1757331987.1010354,0.474,-0.162,9.909,0.04379377809689408,2.8939492191119536,0.07789473684210527,0,0.05
1757331987.127731,0.304,-0.027,9.691,0.04635660686460993,1.8038079507064002,0.08641604010025064,0,0.05
1757331987.1548176,0.304,-0.027,9.691,0.04635660686460993,1.8038079507064002,0.08641604010025064,0,0.05
1757331987.1815705,0.306,-0.266,9.731,0.04881623705284953,2.385911702288853,0.08651629072681705,0,0.05
1757331987.2085795,0.306,-0.266,9.731,0.04881623705284953,2.385911702288853,0.08651629072681705,0,0.05
1757331987.235427,-0.035,-0.079,9.875,0.04884759461836376,0.5013239325689074,0.10360902255639098,0,0.05
1757331987.2627585,-0.035,-0.079,9.875,0.04884759461836376,0.5013239325689074,0.10360902255639098,0,0.05
1757331987.2896285,-0.033,-0.511,9.741,0.04887545396208612,3.00915217506968,0.1037092731829574,0,0.05
1757331987.3170626,-0.033,-0.511,9.741,0.04887545396208612,3.00915217506968,0.1037092731829574,0,0.05
1757331987.3441932,-0.113,-0.696,9.64,0.04920094003167013,4.183424033573182,0.10771929824561405,0,0.05
1757331987.3717427,-0.113,-0.696,9.64,0.04920094003167013,4.183424033573182,0.10771929824561405,0,0.05
1757331987.3988712,0.063,-0.298,9.764,0.04930167339959162,1.7867543491589348,0.11654135338345864,0,0.05
1757331987.4264488,0.063,-0.298,9.764,0.04930167339959162,1.7867543491589348,0.11654135338345864,0,0.05
1757331987.453339,0.228,-0.296,9.682,0.050602519700109795,2.209962057191823,0.12481203007518796,0,0.05
1757331987.480473,0.228,-0.296,9.682,0.050602519700109795,2.209962057191823,0.12481203007518796,0,0.05
1757331987.507532,-0.014,-0.324,9.634,0.05060736112464273,1.9279781036374104,0.1369423558897243,0,0.05
1757331987.5346637,-0.014,-0.324,9.634,0.05060736112464273,1.9279781036374104,0.1369423558897243,0,0.05
1757331987.5598187,-0.114,-0.306,9.706,0.050927350215773055,1.9269140541620386,0.1419548872180451,0,0.05
1757331987.58695,-0.114,-0.306,9.706,0.050927350215773055,1.9269140541620386,0.1419548872180451,0,0.05
1757331987.6138885,-0.1,-0.116,9.77,0.05117220925463352,0.8980892032145752,0.14265664160401004,0,0.05
1757331987.640827,-0.1,-0.116,9.77,0.05117220925463352,0.8980892032145752,0.14265664160401004,0,0.05
1757331987.6675124,-0.003,-0.342,9.704,0.05117242910005348,2.0185287138346393,0.1475187969924812,0,0.05
1757331987.6946273,-0.003,-0.342,9.704,0.05117242910005348,2.0185287138346393,0.1475187969924812,0,0.05
1757331987.721699,0.103,-0.18,9.736,0.05143092454934094,1.220270376250612,0.15283208020050124,0,0.05
1757331987.747184,0.103,-0.18,9.736,0.05143092454934094,1.220270376250612,0.15283208020050124,0,0.05
1757331987.7742283,0.296,-0.293,9.861,0.053518034343574314,2.418519300875344,0.1625062656641604,0,0.05
1757331987.801212,0.296,-0.293,9.861,0.053518034343574314,2.418519300875344,0.1625062656641604,0,0.05
1757331987.8276896,0.082,-0.355,9.74,0.05367485444786972,2.1422830754304996,0.17323308270676693,0,0.05
1757331987.8554983,0.082,-0.355,9.74,0.05367485444786972,2.1422830754304996,0.17323308270676693,0,0.05
1757331987.8807783,0.031,-0.278,9.809,0.05369722990993111,1.6334600278247993,0.17578947368421052,0,0.05
1757331987.9077632,0.031,-0.278,9.809,0.05369722990993111,1.6334600278247993,0.17578947368421052,0,0.05
1757331987.9344459,-0.178,-0.342,9.929,0.054429794230733596,2.2237119031967443,0.186265664160401,0,0.05
1757331987.9616568,-0.178,-0.342,9.929,0.054429794230733596,2.2237119031967443,0.186265664160401,0,0.05
1757331987.9875455,-0.177,-0.04,9.804,0.05514458268950813,1.0603738611400073,0.18631578947368418,0,0.05
1757331988.0144196,-0.177,-0.04,9.804,0.05514458268950813,1.0603738611400073,0.18631578947368418,0,0.05
1757331988.0413544,-0.069,-0.279,9.887,0.055252398137999405,1.6650646351762477,0.19172932330827064,0,0.05
1757331988.06879,-0.069,-0.279,9.887,0.055252398137999405,1.6650646351762477,0.19172932330827064,0,0.05
1757331988.0955343,0.144,-0.206,9.844,0.055719543250102116,1.4625778605176445,0.20240601503759395,0,0.05
1757331988.1226974,0.144,-0.206,9.844,0.055719543250102116,1.4625778605176445,0.20240601503759395,0,0.05
1757331988.1499755,0.222,-0.187,9.663,0.056814412784081475,1.7205716643800752,0.2063157894736842,0,0.05
1757331988.1787925,0.222,-0.187,9.663,0.056814412784081475,1.7205716643800752,0.2063157894736842,0,0.05
1757331988.2058067,0.032,-0.389,9.753,0.05683693781336218,2.2917477698506206,0.21583959899749372,0,0.05
1757331988.2333024,0.032,-0.389,9.753,0.05683693781336218,2.2917477698506206,0.21583959899749372,0,0.05
1757331988.260514,-0.039,-0.237,9.808,0.056870378933149376,1.4028319569478571,0.21939849624060148,0,0.05
1757331988.28784,-0.039,-0.237,9.808,0.056870378933149376,1.4028319569478571,0.21939849624060148,0,0.05
1757331988.3151977,-0.096,-0.26,9.667,0.05707258536285175,1.6422444573647703,0.22225563909774435,0,0.05
1757331988.3430622,-0.096,-0.26,9.667,0.05707258536285175,1.6422444573647703,0.22225563909774435,0,0.05
1757331988.3703225,0.211,-0.397,9.716,0.05803949086613355,2.6493591279496904,0.23764411027568924,0,0.05
1757331988.3976727,0.211,-0.397,9.716,0.05803949086613355,2.6493591279496904,0.23764411027568924,0,0.05
1757331988.424583,0.127,-0.262,9.844,0.05838582876006814,1.6941552647086975,0.24185463659147868,0,0.05
1757331988.4515345,0.127,-0.262,9.844,0.05838582876006814,1.6941552647086975,0.24185463659147868,0,0.05
1757331988.4783745,0.056,-0.353,9.72,0.05845292978114955,2.1058755374816345,0.24541353383458647,0,0.05
1757331988.5055542,0.056,-0.353,9.72,0.05845292978114955,2.1058755374816345,0.24541353383458647,0,0.05
1757331988.5326426,0.09,-0.346,9.707,0.058625890185139196,2.1092786550784353,0.24711779448621557,0,0.05
1757331988.5596387,0.09,-0.346,9.707,0.058625890185139196,2.1092786550784353,0.24711779448621557,0,0.05
1757331988.5866234,0.134,-0.359,9.856,0.059007499523365675,2.2264913239523407,0.2493233082706767,0,0.05
1757331988.6131809,0.134,-0.359,9.856,0.059007499523365675,2.2264913239523407,0.2493233082706767,0,0.05
1757331988.6405194,-0.113,-0.198,9.782,0.05927737764105292,1.3350737468264193,0.26170426065162905,0,0.05
1757331988.6677728,-0.113,-0.198,9.782,0.05927737764105292,1.3350737468264193,0.26170426065162905,0,0.05
1757331988.695179,-0.008,-0.008,9.592,0.05927872721305679,0.06758000907288646,0.2669674185463659,0,0.05
1757331988.7208738,-0.008,-0.008,9.592,0.05927872721305679,0.06758000907288646,0.2669674185463659,0,0.05
1757331988.74775,0.129,-0.491,9.858,0.05962860052022016,2.9479905628256473,0.2738345864661654,0,0.05
1757331988.7744424,0.129,-0.491,9.858,0.05962860052022016,2.9479905628256473,0.2738345864661654,0,0.05
1757331988.801681,-0.04,-0.08,9.782,0.05966213204370088,0.5238752302590628,0.28230576441102756,0,0.05
1757331988.8288398,-0.04,-0.08,9.782,0.05966213204370088,0.5238752302590628,0.28230576441102756,0,0.05
1757331988.8557153,0.088,-0.123,9.7,0.05982415899952126,0.8932587415047862,0.28872180451127816,0,0.05
1757331988.882693,0.088,-0.123,9.7,0.05982415899952126,0.8932587415047862,0.28872180451127816,0,0.05
1757331988.909528,0.024,0.002,10.426,0.059836193060722034,0.13234822959563797,0.29192982456140343,0,0.05
1757331988.9365995,0.024,0.002,10.426,0.059836193060722034,0.13234822959563797,0.29192982456140343,0,0.05
1757331988.9636574,0.032,0.014,10.076,0.05985758097350744,0.19861527655652375,0.29233082706766916,0,0.05
1757331988.9905245,0.032,0.014,10.076,0.05985758097350744,0.19861527655652375,0.29233082706766916,0,0.05
1757331989.017962,-0.036,-0.085,9.968,0.05988463909885405,0.5305758414179558,0.2957393483709273,0,0.05
1757331989.0455525,-0.036,-0.085,9.968,0.05988463909885405,0.5305758414179558,0.2957393483709273,0,0.05
1757331989.0728004,0.002,-0.347,10.076,0.05988472259266131,1.9724207110399836,0.2976441102756892,0,0.05
1757331989.1000297,0.002,-0.347,10.076,0.05988472259266131,1.9724207110399836,0.2976441102756892,0,0.05
1757331989.1279266,0.076,0.078,10.118,0.06000516644423211,0.6166710088642211,0.30135338345864665,0,0.05
1757331989.1553557,0.063,-0.541,9.933,0.06008778994105208,3.1385545513690523,0.30200501253132833,0,0.05
1757331989.1826816,0.063,-0.541,9.933,0.06008778994105208,3.1385545513690523,0.30200501253132833,0,0.05
1757331989.209774,0.042,-0.279,9.996,0.06012447504968338,1.6167812568242927,0.3030576441102757,0,0.05
1757331989.2368753,0.042,-0.279,9.996,0.06012447504968338,1.6167812568242927,0.3030576441102757,0,0.05
1757331989.263647,0.163,-0.401,9.918,0.06067433559586787,2.4990390046294295,0.30912280701754385,0,0.05
1757331989.2907193,0.163,-0.401,9.918,0.06067433559586787,2.4990390046294295,0.30912280701754385,0,0.05
1757331989.3174348,0.163,-0.401,9.918,0.06067433559586787,2.4990390046294295,0.30912280701754385,0,0.05
1757331989.34463,-0.096,-0.324,9.876,0.06086390555986364,1.9597017918058552,0.3221052631578948,0,0.05
1757331989.3716831,-0.096,-0.324,9.876,0.06086390555986364,1.9597017918058552,0.3221052631578948,0,0.05
1757331989.3985882,-0.04,-0.313,9.95,0.060896756892300924,1.816419244931071,0.32491228070175443,0,0.05
1757331989.4255517,-0.04,-0.313,9.95,0.060896756892300924,1.816419244931071,0.32491228070175443,0,0.05
1757331989.4527555,0.1,-0.367,9.892,0.061101677554712026,2.2021270003050506,0.3319298245614036,0,0.05
1757331989.4799933,-0.077,-0.11,9.84,0.06122285112602973,0.7817833200663493,0.3408020050125314,0,0.05
1757331989.507132,-0.077,-0.11,9.84,0.06122285112602973,0.7817833200663493,0.3408020050125314,0,0.05
1757331989.5342436,-0.069,-0.267,9.821,0.06131998043052525,1.6084309676629032,0.341203007518797,0,0.05
1757331989.561206,-0.069,-0.267,9.821,0.06131998043052525,1.6084309676629032,0.341203007518797,0,0.05
1757331989.588098,-0.129,-0.367,10.104,0.06165827195113401,2.2048414386050976,0.34421052631578947,0,0.05
1757331989.6152506,-0.129,-0.367,10.104,0.06165827195113401,2.2048414386050976,0.34421052631578947,0,0.05
1757331989.64223,-0.108,-0.199,10.049,0.061894284873484084,1.2907341226796256,0.34526315789473677,0,0.05
1757331989.6692946,-0.108,-0.199,10.049,0.061894284873484084,1.2907341226796256,0.34526315789473677,0,0.05
1757331989.6961796,-0.108,-0.199,10.049,0.061894284873484084,1.2907341226796256,0.34526315789473677,0,0.05
1757331989.723221,-0.066,-0.237,9.94,0.061982195024055095,1.4178000610685673,0.3473684210526315,0,0.05
1757331989.7499893,0.003,-0.192,10.008,0.06198237652752595,1.0991989050233621,0.3508270676691728,0,0.05
1757331989.776769,0.003,-0.192,10.008,0.06198237652752595,1.0991989050233621,0.3508270676691728,0,0.05
1757331989.803575,0.003,-0.192,10.008,0.06198237652752595,1.0991989050233621,0.3508270676691728,0,0.05
1757331989.830546,-0.062,0.097,9.925,0.06205985014484002,0.6645531797519079,0.3540852130325814,0,0.05
1757331989.8575091,-0.062,0.097,9.925,0.06205985014484002,0.6645531797519079,0.3540852130325814,0,0.05
1757331989.8826602,0.078,-0.403,9.858,0.06218227239334374,2.3843716098594707,0.36110275689223054,0,0.05
1757331989.9088354,0.078,-0.403,9.858,0.06218227239334374,2.3843716098594707,0.36110275689223054,0,0.05
1757331989.9359083,-0.021,-0.134,9.89,0.06219113682832948,0.7857287042733979,0.36606516290726815,0,0.05
1757331989.9629533,-0.021,-0.134,9.89,0.06219113682832948,0.7857287042733979,0.36606516290726815,0,0.05
1757331989.989298,-0.053,-0.103,9.815,0.062247570233704703,0.676170251415321,0.3676691729323307,0,0.05
1757331990.0172586,-0.053,-0.103,9.815,0.062247570233704703,0.676170251415321,0.3676691729323307,0,0.05
1757331990.043986,-0.086,-0.02,9.819,0.06239591332771722,0.515204422375495,0.36932330827067666,0,0.05
1757331990.0707562,-0.086,-0.02,9.819,0.06239591332771722,0.515204422375495,0.36932330827067666,0,0.05
1757331990.0981505,-0.051,-0.375,9.781,0.06244799836664102,2.215816111567801,0.3710776942355889,0,0.05
1757331990.1251662,-0.051,-0.375,9.781,0.06244799836664102,2.215816111567801,0.3710776942355889,0,0.05
1757331990.1522226,-0.079,-0.135,9.679,0.06257279760407072,0.925839757050217,0.37248120300751875,0,0.05
1757331990.1790094,-0.079,-0.135,9.679,0.06257279760407072,0.925839757050217,0.37248120300751875,0,0.05
1757331990.2059002,-0.112,-0.039,9.862,0.06282288595726879,0.6889799263514919,0.3741353383458646,0,0.05
1757331990.2326849,-0.112,-0.039,9.862,0.06282288595726879,0.6889799263514919,0.3741353383458646,0,0.05
1757331990.2595804,0.013,0.01,9.901,0.06282624849535423,0.09491160436007058,0.3804010025062656,0,0.05
1757331990.286663,0.013,0.01,9.901,0.06282624849535423,0.09491160436007058,0.3804010025062656,0,0.05
1757331990.3137121,-0.043,-0.221,9.777,0.06286302569873646,1.319171966300906,0.3832080200501253,0,0.05
1757331990.3422942,-0.043,-0.221,9.777,0.06286302569873646,1.319171966300906,0.3832080200501253,0,0.05
1757331990.3681877,-0.371,-0.021,9.882,0.0655428295086503,2.153484479430371,0.3996491228070175,0,0.1
1757331990.3942068,-0.371,-0.021,9.882,0.0655428295086503,2.153484479430371,0.3996491228070175,0,0.1
1757331990.4198217,-0.518,-0.444,9.784,0.07047462309228762,3.988824669861161,0.4070175438596491,0,0.1
1757331990.4486256,-0.518,-0.444,9.784,0.07047462309228762,3.988824669861161,0.4070175438596491,0,0.1
1757331990.47599,-0.228,-0.269,9.661,0.07139070317625398,2.0903642176698214,0.4215538847117795,0,0.1
1757331990.5022955,-0.228,-0.269,9.661,0.07139070317625398,2.0903642176698214,0.4215538847117795,0,0.1
1757331990.5297356,-0.2,0.009,9.67,0.07208767231642314,1.1860510793415713,0.4229573934837093,0,0.1
1757331990.5572593,-0.2,0.009,9.67,0.07208767231642314,1.1860510793415713,0.4229573934837093,0,0.1
1757331990.584503,0.051,-0.159,9.703,0.07213275954793355,0.9859064227105383,0.43553884711779456,0,0.1
1757331990.6105015,0.051,-0.159,9.703,0.07213275954793355,0.9859064227105383,0.43553884711779456,0,0.1
1757331990.6372287,-0.002,0.001,9.826,0.07213282886453297,0.013038597150774562,0.4381954887218046,0,0.1
1757331990.6629777,-0.002,0.001,9.826,0.07213282886453297,0.013038597150774562,0.4381954887218046,0,0.1
1757331990.6903422,-0.174,-0.153,9.713,0.07265559166368407,1.3665117334547696,0.4468170426065163,0,0.1
1757331990.7173965,-0.174,-0.153,9.713,0.07265559166368407,1.3665117334547696,0.4468170426065163,0,0.1
1757331990.7449439,-0.096,0.047,9.844,0.07281397530694228,0.6221026694075186,0.4507268170426066,0,0.1
1757331990.7723799,-0.096,0.047,9.844,0.07281397530694228,0.6221026694075186,0.4507268170426066,0,0.1
1757331990.79993,-0.05,-0.085,9.664,0.07285688025162758,0.5846493113292052,0.4530325814536341,0,0.1
1757331990.8269432,-0.05,-0.085,9.664,0.07285688025162758,0.5846493113292052,0.4530325814536341,0,0.1
1757331990.8542356,-0.05,-0.215,9.686,0.07289975994473508,1.3055061571193414,0.45303258145363406,0,0.1
1757331990.8816109,-0.05,-0.215,9.686,0.07289975994473508,1.3055061571193414,0.45303258145363406,0,0.1
1757331990.90725,-0.072,-0.122,9.755,0.0729885949994929,0.8319876480081353,0.4541353383458646,0,0.1
1757331990.9341996,-0.072,-0.122,9.755,0.0729885949994929,0.8319876480081353,0.4541353383458646,0,0.1
1757331990.9608407,-0.135,-0.256,9.821,0.07330005115960016,1.687960107992523,0.4572932330827067,0,0.1
1757331990.9868944,-0.135,-0.256,9.821,0.07330005115960016,1.687960107992523,0.4572932330827067,0,0.1
1757331991.012199,-0.115,-0.338,9.924,0.07352523376365423,2.060396975757515,0.45829573934837087,0,0.1
1757331991.0375698,-0.115,-0.338,9.924,0.07352523376365423,2.060396975757515,0.45829573934837087,0,0.1
1757331991.0638185,-0.145,-0.364,9.978,0.07388181440652361,2.248743658391478,0.4597994987468671,0,0.1
1757331991.089595,-0.145,-0.364,9.978,0.07388181440652361,2.248743658391478,0.4597994987468671,0,0.1
1757331991.1149979,-0.113,-0.354,9.892,0.0740975370710795,2.1513328777776404,0.4614035087719298,0,0.1
1757331991.1403756,-0.113,-0.354,9.892,0.0740975370710795,2.1513328777776404,0.4614035087719298,0,0.1
1757331991.166343,-0.093,-0.176,9.797,0.07424329936095243,1.1640038258965182,0.46240601503759393,0,0.1
1757331991.1937017,-0.093,-0.176,9.797,0.07424329936095243,1.1640038258965182,0.46240601503759393,0,0.1
1757331991.2191763,-0.036,-0.023,9.812,0.074265116306379,0.24945590173631985,0.4652631578947367,0,0.1
1757331991.2449958,-0.036,-0.023,9.812,0.074265116306379,0.24945590173631985,0.4652631578947367,0,0.1
1757331991.2711642,0.109,0.011,9.88,0.0744648239103538,0.6352939224801988,0.4725313283208019,0,0.1
1757331991.2983341,0.109,0.011,9.88,0.0744648239103538,0.6352939224801988,0.4725313283208019,0,0.1
1757331991.3252347,0.088,-0.086,9.763,0.07459470490591137,0.7220699770666748,0.47358395989974933,0,0.1
1757331991.3525379,0.088,-0.086,9.763,0.07459470490591137,0.7220699770666748,0.47358395989974933,0,0.1
1757331991.3798132,-0.154,-0.091,9.852,0.07499106613457365,1.0401719645243865,0.4857142857142856,0,0.1
1757331991.405645,-0.154,-0.091,9.852,0.07499106613457365,1.0401719645243865,0.4857142857142856,0,0.1
1757331991.432866,-0.082,-0.187,9.932,0.07510306252077874,1.1777586958331057,0.48932330827067666,0,0.1
1757331991.4602582,-0.082,-0.187,9.932,0.07510306252077874,1.1777586958331057,0.48932330827067666,0,0.1
1757331991.4864686,-0.061,-0.118,9.803,0.0751649685691413,0.7763327053598937,0.49037593984962397,0,0.1
1757331991.5121942,-0.061,-0.118,9.803,0.0751649685691413,0.7763327053598937,0.49037593984962397,0,0.1
1757331991.5387707,-0.061,-0.118,9.803,0.0751649685691413,0.7763327053598937,0.49037593984962397,0,0.1
1757331991.5707238,0.071,-0.297,10.016,0.07524875414251056,1.746297485630828,0.4969924812030075,0,0.1
1757331991.5994296,0.289,-0.292,10.196,0.07662360928591135,2.307410461251849,0.5079197994987468,0,0.1
1757331991.6250367,0.289,-0.292,10.196,0.07662360928591135,2.307410461251849,0.5079197994987468,0,0.1
1757331991.6514533,0.243,-0.452,9.888,0.0775809254907416,2.9709396922276667,0.5102255639097742,0,0.15000000000000002
1757331991.677239,0.243,-0.452,9.888,0.0775809254907416,2.9709396922276667,0.5102255639097742,0,0.15000000000000002
1757331991.709181,-0.175,-0.143,10.123,0.07807280256273627,1.2789135710634165,0.5311779448621554,0,0.1
1757331991.7365203,-0.175,-0.143,10.123,0.07807280256273627,1.2789135710634165,0.5311779448621554,0,0.1
1757331991.7618885,-0.044,-0.296,10.022,0.07810379312171721,1.7103179643429753,0.5377443609022555,0,0.1
1757331991.7891755,-0.044,-0.296,10.022,0.07810379312171721,1.7103179643429753,0.5377443609022555,0,0.1
1757331991.8198562,-0.042,-0.196,9.863,0.07813201968463378,1.1642836066836746,0.5378446115288219,0,0.1
1757331991.8454137,-0.042,-0.196,9.863,0.07813201968463378,1.1642836066836746,0.5378446115288219,0,0.1
1757331991.8722181,-0.051,-0.195,9.829,0.07817362087047011,1.1747743733086125,0.5382957393483708,0,0.1
1757331991.8975263,-0.051,-0.195,9.829,0.07817362087047011,1.1747743733086125,0.5382957393483708,0,0.1
1757331991.9226282,0.005,-0.186,9.809,0.07817402062066399,1.0867148959620403,0.5411027568922306,0,0.1
1757331991.9485064,0.005,-0.186,9.809,0.07817402062066399,1.0867148959620403,0.5411027568922306,0,0.1
1757331991.9756958,0.006,-0.316,9.903,0.07817459625735204,1.8279900076261844,0.5411528822055138,0,0.1
1757331992.002948,0.006,-0.316,9.903,0.07817459625735204,1.8279900076261844,0.5411528822055138,0,0.1
1757331992.0307455,-0.012,-0.239,9.816,0.0781768987617186,1.3965185241084064,0.5420551378446116,0,0.1
1757331992.0583296,-0.012,-0.239,9.816,0.0781768987617186,1.3965185241084064,0.5420551378446116,0,0.1
1757331992.0853333,0.007,-0.229,9.869,0.07817768223732398,1.3298717798520354,0.5430075187969925,0,0.1
1757331992.113823,0.007,-0.229,9.869,0.07817768223732398,1.3298717798520354,0.5430075187969925,0,0.1
1757331992.1416411,-0.148,-0.304,9.939,0.07852712907015001,1.9483797214949743,0.5507769423558898,0,0.1
1757331992.1692543,-0.148,-0.304,9.939,0.07852712907015001,1.9483797214949743,0.5507769423558898,0,0.1
1757331992.1956668,-0.201,-0.21,9.863,0.07916762280124369,1.6881802734032132,0.5534335839598998,0,0.1
1757331992.2226973,-0.201,-0.21,9.863,0.07916762280124369,1.6881802734032132,0.5534335839598998,0,0.1
1757331992.2497888,0.119,-0.372,9.953,0.07939089998230275,2.2472161302975167,0.5694736842105264,0,0.1
1757331992.2770534,0.119,-0.372,9.953,0.07939089998230275,2.2472161302975167,0.5694736842105264,0,0.1
1757331992.3041117,0.495,0.062,9.996,0.08315935004556012,2.8570748070787673,0.5883208020050126,0,3.1
1757331992.3311625,0.495,0.062,9.996,0.08315935004556012,2.8570748070787673,0.5883208020050126,0,3.1
1757331992.3591583,0.154,-0.122,9.968,0.08351507348975992,1.129151007371741,0.6054135338345865,0,3.1
1757331992.3866677,0.154,-0.122,9.968,0.08351507348975992,1.129151007371741,0.6054135338345865,0,3.1
1757331992.4138772,0.141,-0.206,10.156,0.08381211129663779,1.4080425175026754,0.6060651629072682,0,3.1
1757331992.4410946,0.141,-0.206,10.156,0.08381211129663779,1.4080425175026754,0.6060651629072682,0,3.1
1757331992.4684079,0.156,-0.318,10.06,0.08417428348373392,2.016498613230341,0.6068170426065163,0,0.15000000000000002
1757331992.4961116,0.156,-0.318,10.06,0.08417428348373392,2.016498613230341,0.6068170426065163,0,0.15000000000000002
1757331992.5236902,0.172,-0.405,9.931,0.08461246953020576,2.53692995767552,0.6076190476190476,0,0.15000000000000002
1757331992.5510232,0.172,-0.405,9.931,0.08461246953020576,2.53692995767552,0.6076190476190476,0,0.15000000000000002
1757331992.578406,0.198,-0.55,9.869,0.08518967073536556,3.389747886187218,0.6089223057644111,0,0.15000000000000002
1757331992.606685,0.198,-0.55,9.869,0.08518967073536556,3.389747886187218,0.6089223057644111,0,0.15000000000000002
1757331992.6342492,0.165,-0.518,9.946,0.08558821472609414,3.1286499455514183,0.6105764411027569,0,0.15000000000000002
1757331992.6594486,0.165,-0.518,9.946,0.08558821472609414,3.1286499455514183,0.6105764411027569,0,0.15000000000000002
1757331992.6853323,0.087,-0.459,9.74,0.08569868727115952,2.7460477893125597,0.6144862155388471,0,0.15000000000000002
1757331992.713104,0.087,-0.459,9.74,0.08569868727115952,2.7460477893125597,0.6144862155388471,0,0.15000000000000002
1757331992.7411318,0.172,-0.491,9.766,0.08612911818891449,3.0493806305176907,0.6187468671679198,0,0.15000000000000002
1757331992.7687035,0.172,-0.491,9.766,0.08612911818891449,3.0493806305176907,0.6187468671679198,0,0.15000000000000002
1757331992.796263,0.081,-0.318,9.927,0.08622428602197875,1.8933203393767142,0.6233082706766918,0,0.15000000000000002
1757331992.8234875,0.081,-0.318,9.927,0.08622428602197875,1.8933203393767142,0.6233082706766918,0,0.15000000000000002
1757331992.8513458,-0.022,-0.251,9.864,0.0862313023211409,1.4632236156464187,0.628471177944862,0,0.15000000000000002
1757331992.8793254,-0.022,-0.251,9.864,0.0862313023211409,1.4632236156464187,0.628471177944862,0,0.15000000000000002
1757331992.906411,-0.148,-0.38,9.787,0.08654823799477376,2.386015374114938,0.6347869674185465,0,0.15000000000000002
1757331992.933841,-0.148,-0.38,9.787,0.08654823799477376,2.386015374114938,0.6347869674185465,0,0.15000000000000002
1757331992.961595,-0.127,-0.251,10.033,0.08678087346875463,1.6060114664372345,0.6358395989974938,0,0.15000000000000002
1757331992.9894457,-0.12,0.052,9.701,0.08698804515564193,0.7723758095336993,0.6361904761904761,0,0.15000000000000002
1757331993.0166802,-0.12,0.052,9.701,0.08698804515564193,0.7723758095336993,0.6361904761904761,0,0.15000000000000002
1757331993.0424745,-0.12,0.052,9.701,0.08698804515564193,0.7723758095336993,0.6361904761904761,0,0.15000000000000002
1757331993.0678523,-0.097,-0.069,9.638,0.08712314560436853,0.7076174822789985,0.6373433583959899,0,0.15000000000000002
1757331993.0942476,-0.097,-0.069,9.638,0.08712314560436853,0.7076174822789985,0.6373433583959899,0,0.15000000000000002
1757331993.121357,0.188,-0.032,9.823,0.08762877666611579,1.1122019289765361,0.6516290726817041,0,0.15000000000000002
1757331993.1471934,0.188,-0.032,9.823,0.08762877666611579,1.1122019289765361,0.6516290726817041,0,0.15000000000000002
1757331993.1732962,0.084,0.11,9.627,0.08772937079450643,0.8236717212087848,0.6568421052631579,0,0.15000000000000002
1757331993.1995075,0.084,0.11,9.627,0.08772937079450643,0.8236717212087848,0.6568421052631579,0,0.15000000000000002
1757331993.2257023,0.13,-0.181,9.576,0.08796983858118645,1.3331157048884974,0.6591478696741855,0,0.15000000000000002
1757331993.2528875,0.13,-0.181,9.576,0.08796983858118645,1.3331157048884974,0.6591478696741855,0,0.15000000000000002
1757331993.2797244,0.178,-0.075,9.762,0.08841890352181483,1.133532475449945,0.6615538847117792,0,0.15000000000000002
1757331993.3061495,0.178,-0.075,9.762,0.08841890352181483,1.133532475449945,0.6615538847117792,0,0.15000000000000002
1757331993.3339248,0.068,-0.528,9.498,0.08848425001094828,3.208059007011746,0.6670676691729323,0,0.15000000000000002
1757331993.3614864,0.068,-0.528,9.498,0.08848425001094828,3.208059007011746,0.6670676691729323,0,0.15000000000000002
1757331993.3891115,-0.068,-0.399,9.488,0.08854954827665695,2.442726280387558,0.6738847117794486,0,0.15000000000000002
1757331993.4162862,-0.068,-0.399,9.488,0.08854954827665695,2.442726280387558,0.6738847117794486,0,0.15000000000000002
1757331993.443469,0.104,-0.542,9.756,0.08870209974966771,3.2377172363394786,0.6825062656641604,0,0.15000000000000002
1757331993.4720545,0.104,-0.542,9.756,0.08870209974966771,3.2377172363394786,0.6825062656641604,0,0.15000000000000002
1757331993.509477,-0.12,-0.383,9.583,0.08890479458386932,2.3982825242402854,0.6937343358395989,0,0.15000000000000002
1757331993.5367289,0.001,-0.133,9.56,0.08890480864385233,0.7970776624313161,0.6997994987468671,0,0.15000000000000002
1757331993.5624561,0.001,-0.133,9.56,0.08890480864385233,0.7970776624313161,0.6997994987468671,0,0.15000000000000002
1757331993.587775,-0.031,-0.394,9.734,0.08891831925986905,2.3250332045977005,0.7014035087719297,0,0.15000000000000002
1757331993.6135836,-0.031,-0.394,9.734,0.08891831925986905,2.3250332045977005,0.7014035087719297,0,0.15000000000000002
1757331993.639919,0.027,-0.162,9.658,0.0889285668387836,0.9742226019566922,0.7043107769423557,0,0.15000000000000002
1757331993.6663752,0.027,-0.162,9.658,0.0889285668387836,0.9742226019566922,0.7043107769423557,0,0.15000000000000002
1757331993.6925685,0.027,-0.162,9.658,0.0889285668387836,0.9742226019566922,0.7043107769423557,0,0.15000000000000002
1757331993.7204928,0.142,-0.201,9.584,0.08921154633790404,1.4709274816474094,0.7100751879699247,0,0.15000000000000002
1757331993.7475505,-0.026,-0.81,10.159,0.08922101770322956,4.56101591811169,0.7184962406015036,0,0.15000000000000002
1757331993.777302,-0.026,-0.81,10.159,0.08922101770322956,4.56101591811169,0.7184962406015036,0,0.15000000000000002
1757331993.8060472,-0.144,-0.558,9.815,0.08951106076904686,3.360225721427967,0.7244110275689222,0,0.15000000000000002
1757331993.8337247,-0.144,-0.558,9.815,0.08951106076904686,3.360225721427967,0.7244110275689222,0,0.15000000000000002
1757331993.8597097,0.046,-0.544,9.699,0.08954060531401382,3.2216892718141943,0.7339348370927318,0,0.15000000000000002
1757331993.885822,0.046,-0.544,9.699,0.08954060531401382,3.2216892718141943,0.7339348370927318,0,0.15000000000000002
1757331993.9115305,-0.126,-0.635,9.871,0.08976196299101308,3.7523152155973043,0.7425563909774435,0,0.15000000000000002
1757331993.9379585,-0.126,-0.635,9.871,0.08976196299101308,3.7523152155973043,0.7425563909774435,0,0.15000000000000002
1757331993.9642878,-0.037,-0.216,9.869,0.08978102527817333,1.2720723247730146,0.7470175438596491,0,0.15000000000000002
1757331993.9898422,-0.037,-0.216,9.869,0.08978102527817333,1.2720723247730146,0.7470175438596491,0,0.15000000000000002
1757331994.0153713,0.094,-0.826,9.601,0.0899039626490401,4.94878422114233,0.7535839598997496,0,0.15000000000000002
1757331994.0413892,0.094,-0.826,9.601,0.0899039626490401,4.94878422114233,0.7535839598997496,0,0.15000000000000002
1757331994.0675058,0.094,-0.826,9.601,0.0899039626490401,4.94878422114233,0.7535839598997496,0,0.15000000000000002
1757331994.0929022,0.005,-0.435,9.767,0.08990431024150065,2.5503068686795456,0.758045112781955,0,0.15000000000000002
1757331994.1186922,0.005,-0.435,9.767,0.08990431024150065,2.5503068686795456,0.758045112781955,0,0.15000000000000002
1757331994.144461,0.077,-0.385,9.807,0.08998670735169723,2.292619523935802,0.7616541353383458,0,0.15000000000000002
1757331994.1705828,0.077,-0.385,9.807,0.08998670735169723,2.292619523935802,0.7616541353383458,0,0.15000000000000002
1757331994.1957912,0.077,-0.385,9.807,0.08998670735169723,2.292619523935802,0.7616541353383458,0,0.15000000000000002
1757331994.2213256,-0.321,-0.312,9.69,0.09140683781862273,2.6449824848619987,0.7816040100250627,0,3.1
1757331994.2473397,-0.159,-0.009,9.814,0.09175190733712298,0.9296729869964413,0.7897243107769424,0,3.1
1757331994.2730134,-0.159,-0.009,9.814,0.09175190733712298,0.9296729869964413,0.7897243107769424,0,3.1
1757331994.2984223,0.062,-0.236,9.796,0.09180426188364024,1.4268833654111504,0.8008020050125313,0,3.1
1757331994.3238084,0.062,-0.236,9.796,0.09180426188364024,1.4268833654111504,0.8008020050125313,0,3.1
1757331994.349408,-0.206,-0.143,9.843,0.09238026033736861,1.4594013502187622,0.8142355889724311,0,3.1
1757331994.3754134,-0.206,-0.143,9.843,0.09238026033736861,1.4594013502187622,0.8142355889724311,0,3.1
1757331994.4019432,0.048,-0.036,9.734,0.09241143057003284,0.35316449901165486,0.826967418546366,0,3.1
1757331994.4278789,0.048,-0.036,9.734,0.09241143057003284,0.35316449901165486,0.826967418546366,0,3.1
1757331994.453151,-0.037,-0.294,9.77,0.09242994644594359,1.7372190352409964,0.8312280701754385,0,3.1
1757331994.4791198,-0.037,-0.294,9.77,0.09242994644594359,1.7372190352409964,0.8312280701754385,0,3.1
1757331994.5053518,-0.127,-0.167,9.916,0.09264781432931918,1.2120944792888677,0.8357393483709274,0,3.1
1757331994.5326722,-0.127,-0.167,9.916,0.09264781432931918,1.2120944792888677,0.8357393483709274,0,3.1
1757331994.5598931,0.082,-0.083,9.875,0.09273848985184091,0.676927632702446,0.8462155388471179,0,3.1
1757331994.5872679,0.082,-0.083,9.875,0.09273848985184091,0.676927632702446,0.8462155388471179,0,3.1
1757331994.6144507,-0.003,-0.182,9.939,0.09273861116061637,1.049208435516791,0.8504761904761906,0,3.1
1757331994.6417491,-0.003,-0.182,9.939,0.09273861116061637,1.049208435516791,0.8504761904761906,0,3.1
1757331994.6672108,-0.003,-0.182,9.939,0.09273861116061637,1.049208435516791,0.8504761904761906,0,3.1
1757331994.6928086,-0.05,0.139,9.88,0.09277230190094456,0.8565853736482782,0.8528320802005013,0,3.1
1757331994.7186801,-0.05,0.139,9.88,0.09277230190094456,0.8565853736482782,0.8528320802005013,0,3.1
1757331994.7445698,-0.05,0.139,9.88,0.09277230190094456,0.8565853736482782,0.8528320802005013,0,3.1
1757331994.7702465,0.082,-0.169,9.886,0.09286285586821029,1.088541097237386,0.8594486215538848,0,3.1
1757331994.796095,-0.061,-0.149,9.843,0.09291292967074065,0.937110215850087,0.8666165413533834,0,3.1
1757331994.824586,-0.061,-0.149,9.843,0.09291292967074065,0.937110215850087,0.8666165413533834,0,3.1
1757331994.8513675,0.042,-0.183,9.757,0.0929366585368766,1.1024293549354613,0.871779448621554,0,3.1
1757331994.878382,0.042,-0.183,9.757,0.0929366585368766,1.1024293549354613,0.871779448621554,0,3.1
1757331994.9101532,0.018,-0.13,9.697,0.09294101624148511,0.7753998817489985,0.8729824561403509,0,3.1
1757331994.9359775,-0.045,-0.367,9.672,0.09296824726754829,2.189280499289322,0.876140350877193,0,3.1
1757331994.9693668,-0.045,-0.367,9.672,0.09296824726754829,2.189280499289322,0.876140350877193,0,3.1
1757331994.9950018,-0.092,-0.305,9.677,0.09308197999613028,1.8855348323355317,0.8784962406015037,0,3.1
1757331995.0224402,-0.092,-0.305,9.677,0.09308197999613028,1.8855348323355317,0.8784962406015037,0,3.1
1757331995.0483584,-0.044,-0.217,9.707,0.0931079749538137,1.306685587325894,0.8809022556390976,0,3.1
1757331995.074893,-0.044,-0.217,9.707,0.0931079749538137,1.306685587325894,0.8809022556390976,0,3.1
1757331995.1037862,0.23,-0.245,9.874,0.09381548379665268,1.9492025406514846,0.8946365914786967,0,3.1
1757331995.1301157,0.23,-0.245,9.874,0.09381548379665268,1.9492025406514846,0.8946365914786967,0,3.1
1757331995.1568391,0.046,-0.248,9.796,0.09384367320176677,1.4749413140939955,0.903859649122807,0,3.1
1757331995.1831572,0.046,-0.248,9.796,0.09384367320176677,1.4749413140939955,0.903859649122807,0,3.1
1757331995.208743,0.036,-0.253,9.97,0.09386093436568806,1.46826893270281,0.904360902255639,0,3.1
1757331995.2343528,0.036,-0.253,9.97,0.09386093436568806,1.46826893270281,0.904360902255639,0,3.1
1757331995.2599013,0.15,-0.336,9.938,0.09416010301608638,2.1204508766423817,0.9100751879699248,0,3.1
1757331995.2859666,0.15,-0.336,9.938,0.09416010301608638,2.1204508766423817,0.9100751879699248,0,3.1
1757331995.3118055,-0.048,-0.151,9.986,0.09419068425274338,0.9090227289503262,0.9200000000000002,0,3.1
1757331995.3375108,-0.048,-0.151,9.986,0.09419068425274338,0.9090227289503262,0.9200000000000002,0,3.1
1757331995.3630154,-0.048,-0.151,9.986,0.09419068425274338,0.9090227289503262,0.9200000000000002,0,3.1
1757331995.3884375,-0.077,-0.03,9.976,0.09426933488680186,0.4746077383354549,0.921453634085213,0,3.1
1757331995.4150019,-0.077,-0.03,9.976,0.09426933488680186,0.4746077383354549,0.921453634085213,0,3.1
1757331995.4407713,0.206,-0.242,9.956,0.0948303616991942,1.8283148586301667,0.9356390977443609,0,3.1
1757331995.4666512,0.206,-0.242,9.956,0.0948303616991942,1.8283148586301667,0.9356390977443609,0,3.1
1757331995.4922426,0.074,-0.13,9.818,0.09490251577276547,0.872885401137459,0.9422556390977445,0,3.1
1757331995.5179484,0.074,-0.13,9.818,0.09490251577276547,0.872885401137459,0.9422556390977445,0,3.1
1757331995.543201,0.096,-0.111,9.862,0.09502382595959814,0.8525467136750078,0.9433583959899748,0,3.1
1757331995.568906,0.096,-0.111,9.862,0.09502382595959814,0.8525467136750078,0.9433583959899748,0,3.1
1757331995.594487,0.181,-0.047,9.875,0.09545381081968388,1.0848793389558236,0.9476190476190477,0,3.1
1757331995.6205964,0.181,-0.047,9.875,0.09545381081968388,1.0848793389558236,0.9476190476190477,0,3.1
1757331995.6459565,0.065,-0.232,9.736,0.09550912260093272,1.4175905464604905,0.9534335839598997,0,3.1
1757331995.6714063,0.065,-0.232,9.736,0.09550912260093272,1.4175905464604905,0.9534335839598997,0,3.1
1757331995.696794,-0.059,-0.339,9.708,0.09555467021553682,2.0299746392610984,0.9596491228070175,0,3.0500000000000003
1757331995.7227228,-0.059,-0.339,9.708,0.09555467021553682,2.0299746392610984,0.9596491228070175,0,3.0500000000000003
1757331995.7482533,-0.104,-0.307,9.788,0.09569605530010106,1.896701651866704,0.9619047619047618,0,3.0500000000000003
1757331995.7738283,-0.104,-0.307,9.788,0.09569605530010106,1.896701651866704,0.9619047619047618,0,3.0500000000000003
1757331995.80045,0.077,-0.372,9.679,0.09577346970847407,2.2476154946442666,0.9709774436090225,0,3.0500000000000003
1757331995.8268206,0.077,-0.372,9.679,0.09577346970847407,2.2476154946442666,0.9709774436090225,0,3.0500000000000003
1757331995.854566,0.077,-0.372,9.679,0.09577346970847407,2.2476154946442666,0.9709774436090225,0,3.0500000000000003
1757331995.8802547,-0.136,-0.768,9.705,0.09601456920696984,4.5947381140285675,0.9816541353383459,0,3.0500000000000003
1757331995.9077802,-0.152,-0.533,9.934,0.09631488721895488,3.193405764311699,0.9824561403508771,0,3.1
1757331995.9350157,-0.152,-0.533,9.934,0.09631488721895488,3.193405764311699,0.9824561403508771,0,3.1
1757331995.9622643,-0.079,-0.514,9.849,0.09639585053310128,3.02245916712177,0.9861152882205515,0,3.1
1757331995.9879708,-0.079,-0.514,9.849,0.09639585053310128,3.02245916712177,0.9861152882205515,0,3.1
1757331996.0152607,-0.04,-0.351,9.865,0.09641659608179497,2.050921472136987,0.9880701754385965,0,3.1
1757331996.043418,-0.04,-0.351,9.865,0.09641659608179497,2.050921472136987,0.9880701754385965,0,3.1
1757331996.0708754,0.055,-0.258,9.971,0.09645580594241075,1.5154894502835727,0.9928320802005014,0,3.1
1757331996.0982609,0.055,-0.258,9.971,0.09645580594241075,1.5154894502835727,0.9928320802005014,0,3.1
1757331996.1263552,0.062,-0.285,9.918,0.09650560864530103,1.6844535689711204,0.9931829573934836,0,3.1
1757331996.1536334,0.062,-0.285,9.918,0.09650560864530103,1.6844535689711204,0.9931829573934836,0,3.1
1757331996.181229,-0.085,-0.28,9.828,0.09659914595895762,1.7054127070792948,1.0005513784461153,0,3.1
1757331996.2085755,-0.085,-0.28,9.828,0.09659914595895762,1.7054127070792948,1.0005513784461153,0,3.1
1757331996.2358506,-0.043,-0.25,9.98,0.09662306919157557,1.4560272062535373,1.0026566416040101,0,3.1
1757331996.2640195,-0.043,-0.25,9.98,0.09662306919157557,1.4560272062535373,1.0026566416040101,0,3.1
1757331996.2914083,0.105,-0.18,9.923,0.09676559305869002,1.203055667239172,1.010075187969925,0,3.1
1757331996.3188365,0.105,-0.18,9.923,0.09676559305869002,1.203055667239172,1.010075187969925,0,3.1
1757331996.3461566,-0.009,-0.426,9.863,0.09676663939602326,2.4737176828973313,1.0157894736842104,0,3.1
1757331996.373855,-0.009,-0.426,9.863,0.09676663939602326,2.4737176828973313,1.0157894736842104,0,3.1
1757331996.4017298,-0.04,-0.472,9.938,0.09678730546926079,2.7289213020401526,1.0173433583959899,0,3.1
1757331996.428982,-0.04,-0.472,9.938,0.09678730546926079,2.7289213020401526,1.0173433583959899,0,3.1
1757331996.4563768,0.077,-0.267,9.96,0.0968638477451727,1.598121971081542,1.0232080200501255,0,3.1
1757331996.4843814,0.077,-0.267,9.96,0.0968638477451727,1.598121971081542,1.0232080200501255,0,3.1
1757331996.5117385,0.274,-0.026,9.718,0.09782788457285581,1.622283349499639,1.0330827067669173,0,3.1
1757331996.5393643,0.274,-0.026,9.718,0.09782788457285581,1.622283349499639,1.0330827067669173,0,3.1
1757331996.566764,0.52,-0.313,9.681,0.10122398431201965,3.5873679620323884,1.0454135338345865,0,3.1
1757331996.5951326,0.52,-0.313,9.681,0.10122398431201965,3.5873679620323884,1.0454135338345865,0,3.1
1757331996.6230774,-0.013,0.007,9.855,0.10122607124649262,0.08584083345049426,1.0721303258145363,0,3.1
1757331996.6506908,-0.013,0.007,9.855,0.10122607124649262,0.08584083345049426,1.0721303258145363,0,3.1
1757331996.6779056,0.212,-0.193,9.705,0.10177955344763503,1.6920696137684232,1.0834085213032583,0,3.1
1757331996.7051668,0.212,-0.193,9.705,0.10177955344763503,1.6920696137684232,1.0834085213032583,0,3.1
1757331996.7325673,0.115,-0.149,9.739,0.10194184616731247,1.1071724343332665,1.0882706766917292,0,3.1
1757331996.7596495,0.115,-0.149,9.739,0.10194184616731247,1.1071724343332665,1.0882706766917292,0,3.1
1757331996.786977,-0.002,-0.318,9.981,0.10194189521487229,1.8248929563344178,1.0941353383458647,0,3.1
1757331996.8141465,-0.002,-0.318,9.981,0.10194189521487229,1.8248929563344178,1.0941353383458647,0,3.1
1757331996.8413603,0.057,-0.052,9.801,0.10198172630427473,0.4510360066021874,1.0970927318295738,0,3.1
1757331996.867087,0.057,-0.052,9.801,0.10198172630427473,0.4510360066021874,1.0970927318295738,0,3.1
1757331996.894921,0.127,-0.198,9.795,0.1021792297876628,1.3757097990274776,1.1006015037593984,0,3.1
1757331996.9203768,0.127,-0.198,9.795,0.1021792297876628,1.3757097990274776,1.1006015037593984,0,3.1
1757331996.9464743,-0.0,-0.202,9.911,0.1021792297876628,1.1676062231807858,1.1069674185463658,0,3.1
1757331996.9723585,-0.0,-0.202,9.911,0.1021792297876628,1.1676062231807858,1.1069674185463658,0,3.1
1757331996.9989681,0.121,-0.212,9.827,0.10235818237932912,1.42292120065906,1.1130325814536344,0,3.0500000000000003
1757331997.0263946,0.121,-0.212,9.827,0.10235818237932912,1.42292120065906,1.1130325814536344,0,3.0500000000000003
1757331997.0521681,0.088,-0.261,9.715,0.10245270860255476,1.6239933068196062,1.11468671679198,0,3.0500000000000003
1757331997.0781803,0.088,-0.261,9.715,0.10245270860255476,1.6239933068196062,1.11468671679198,0,3.0500000000000003
1757331997.1054385,-0.047,-0.213,9.754,0.10247965651776943,1.2810633116962507,1.1214536340852133,0,3.0500000000000003
1757331997.1318533,-0.047,-0.213,9.754,0.10247965651776943,1.2810633116962507,1.1214536340852133,0,3.0500000000000003
1757331997.1572423,-0.038,-0.088,9.812,0.10249726825628085,0.5597083308776106,1.121904761904762,0,3.0500000000000003
1757331997.1824198,-0.038,-0.088,9.812,0.10249726825628085,0.5597083308776106,1.121904761904762,0,3.0500000000000003
1757331997.2084074,0.005,0.025,9.589,0.10249757314200175,0.1523368491837461,1.1240601503759402,0,3.0500000000000003
1757331997.2340875,0.005,0.025,9.589,0.10249757314200175,0.1523368491837461,1.1240601503759402,0,3.0500000000000003
1757331997.2604854,0.013,-0.482,9.976,0.10249963414568852,2.7671537168769413,1.1244611528822055,0,3.0500000000000003
1757331997.2880194,0.013,-0.482,9.976,0.10249963414568852,2.7671537168769413,1.1244611528822055,0,3.0500000000000003
1757331997.3154414,-0.056,-0.134,9.886,0.10253787105260184,0.8416463967780236,1.1279197994987469,0,3.0500000000000003
1757331997.343108,-0.056,-0.134,9.886,0.10253787105260184,0.8416463967780236,1.1279197994987469,0,3.0500000000000003
1757331997.37038,0.038,-0.448,9.749,0.10255547279399574,2.6405212566301044,1.1326315789473682,0,3.0500000000000003
1757331997.3977177,0.038,-0.448,9.749,0.10255547279399574,2.6405212566301044,1.1326315789473682,0,3.0500000000000003
1757331997.4250345,0.037,-0.422,9.646,0.10257215752824936,2.514616534883922,1.1326817042606516,0,3.0500000000000003
1757331997.452597,0.037,-0.422,9.646,0.10257215752824936,2.514616534883922,1.1326817042606516,0,3.0500000000000003
1757331997.4804451,-0.005,-0.425,9.78,0.10257246219136987,2.488453721606096,1.1347869674185462,0,3.0500000000000003
1757331997.508091,-0.005,-0.425,9.78,0.10257246219136987,2.488453721606096,1.1347869674185462,0,3.0500000000000003
1757331997.5356553,-0.06,-0.36,9.567,0.10261632423742335,2.1846829900757743,1.1375438596491227,0,3.0500000000000003
1757331997.563551,-0.06,-0.36,9.567,0.10261632423742335,2.1846829900757743,1.1375438596491227,0,3.0500000000000003
1757331997.5908425,-0.075,-0.479,9.715,0.10268482117625759,2.8570285032021183,1.1382957393483708,0,3.0500000000000003
1757331997.6181142,-0.075,-0.479,9.715,0.10268482117625759,2.8570285032021183,1.1382957393483708,0,3.0500000000000003
1757331997.6456435,-0.057,-0.362,9.839,0.1027243641985678,2.133033404677783,1.1391979949874687,0,3.0500000000000003
1757331997.672274,-0.057,-0.362,9.839,0.1027243641985678,2.133033404677783,1.1391979949874687,0,3.0500000000000003
1757331997.6996493,-0.057,-0.362,9.839,0.1027243641985678,2.133033404677783,1.1391979949874687,0,3.0500000000000003
1757331997.7270255,0.046,-0.248,9.671,0.10275010948899276,1.4939967001878998,1.1443609022556391,0,3.0500000000000003
1757331997.7543972,-0.067,-0.318,9.71,0.10280470563160035,1.9169024453799546,1.1500250626566417,0,3.0500000000000003
1757331997.7818363,-0.067,-0.318,9.71,0.10280470563160035,1.9169024453799546,1.1500250626566417,0,3.0500000000000003
1757331997.8089397,-0.173,-0.452,9.877,0.10316796983560353,2.8052682418438275,1.1553383458646618,0,3.0500000000000003
1757331997.8363545,-0.173,-0.452,9.877,0.10316796983560353,2.8052682418438275,1.1553383458646618,0,3.0500000000000003
1757331997.8634634,-0.089,0.002,9.938,0.10326389736979716,0.5132295571254907,1.159548872180451,0,3.0500000000000003
1757331997.8906317,-0.089,0.002,9.938,0.10326389736979716,0.5132295571254907,1.159548872180451,0,3.0500000000000003
1757331997.917936,0.219,-0.108,9.515,0.10384283798124934,1.4700520880598311,1.1749874686716792,0,3.0500000000000003
1757331997.9452865,0.219,-0.108,9.515,0.10384283798124934,1.4700520880598311,1.1749874686716792,0,3.0500000000000003
1757331997.9725094,0.248,-0.139,9.927,0.10458056702848766,1.6404340529017898,1.1764411027568922,0,3.0500000000000003
1757331998.0000675,0.248,-0.139,9.927,0.10458056702848766,1.6404340529017898,1.1764411027568922,0,3.0500000000000003
1757331998.0276768,0.018,0.055,9.553,0.10458443956918258,0.3470844172959222,1.1879699248120301,0,3.0500000000000003
1757331998.0553546,0.018,0.055,9.553,0.10458443956918258,0.3470844172959222,1.1879699248120301,0,3.0500000000000003
1757331998.0829422,0.062,-0.256,9.59,0.10463037321925216,1.5733016540478957,1.190175438596491,0,3.0500000000000003
1757331998.1109512,0.062,-0.256,9.59,0.10463037321925216,1.5733016540478957,1.190175438596491,0,3.0500000000000003
1757331998.1382024,0.099,-0.104,9.862,0.10474739853571544,0.8341414165713263,1.19203007518797,0,3.0500000000000003
1757331998.1657753,0.099,-0.104,9.862,0.10474739853571544,0.8341414165713263,1.19203007518797,0,3.0500000000000003
1757331998.1914299,0.133,-0.143,9.654,0.10495827742488917,1.158870924632456,1.193734335839599,0,3.0500000000000003
1757331998.2190034,0.133,-0.143,9.654,0.10495827742488917,1.158870924632456,1.193734335839599,0,3.0500000000000003
1757331998.2464254,0.025,-0.114,9.559,0.1049657205948685,0.6995086493668073,1.1991478696741855,0,3.0500000000000003
1757331998.2740905,0.025,-0.114,9.559,0.1049657205948685,0.6995086493668073,1.1991478696741855,0,3.0500000000000003
1757331998.3015525,0.093,-0.193,9.879,0.10506866802239381,1.2423342540154962,1.2025563909774437,0,3.0500000000000003
1757331998.329485,0.093,-0.193,9.879,0.10506866802239381,1.2423342540154962,1.2025563909774437,0,3.0500000000000003
1757331998.3575203,-0.168,-0.117,9.671,0.10540391358958166,1.2127206190593691,1.2156390977443607,0,3.0500000000000003
1757331998.3850899,-0.168,-0.117,9.671,0.10540391358958166,1.2127206190593691,1.2156390977443607,0,3.0500000000000003
1757331998.4124455,0.021,-0.325,9.725,0.10540914334155269,1.918045228348271,1.2251127819548873,0,3.0500000000000003
1757331998.4400837,0.021,-0.325,9.725,0.10540914334155269,1.918045228348271,1.2251127819548873,0,3.0500000000000003
1757331998.4674685,0.072,-0.356,9.906,0.10547060016895704,2.0998347958347803,1.2276691729323308,0,3.0500000000000003
1757331998.4939556,0.072,-0.356,9.906,0.10547060016895704,2.0998347958347803,1.2276691729323308,0,3.0500000000000003
1757331998.5211997,-0.141,-0.491,9.737,0.10570596009686492,3.003226642912762,1.238345864661654,0,3.0500000000000003
1757331998.5468588,-0.141,-0.491,9.737,0.10570596009686492,3.003226642912762,1.238345864661654,0,3.0500000000000003
1757331998.5727184,-0.125,0.007,9.678,0.10589056851297003,0.7411441963921415,1.2391478696741853,0,3.0500000000000003
1757331998.6011412,-0.125,0.007,9.678,0.10589056851297003,0.7411441963921415,1.2391478696741853,0,3.0500000000000003
1757331998.6284068,0.221,-0.084,9.721,0.10646555781096533,1.393222021648315,1.2564912280701754,0,3.0500000000000003
1757331998.655913,0.221,-0.084,9.721,0.10646555781096533,1.393222021648315,1.2564912280701754,0,3.0500000000000003
1757331998.683045,-0.029,-0.328,9.923,0.1064754314384309,1.9005750591052906,1.2690225563909772,0,3.0500000000000003
1757331998.7107587,-0.029,-0.328,9.923,0.1064754314384309,1.9005750591052906,1.2690225563909772,0,3.0500000000000003
1757331998.7379136,0.086,0.075,9.859,0.10656222360667969,0.6631206365498423,1.2747869674185461,0,3.0500000000000003
1757331998.7651134,0.086,0.075,9.859,0.10656222360667969,0.6631206365498423,1.2747869674185461,0,3.0500000000000003
1757331998.792378,-0.072,-0.289,9.787,0.10662301580803275,1.7430629992637103,1.2827067669172934,0,3.0500000000000003
1757331998.8200233,-0.072,-0.289,9.787,0.10662301580803275,1.7430629992637103,1.2827067669172934,0,3.0500000000000003
1757331998.847158,-0.076,0.055,9.901,0.1066907095299305,0.5428709296051373,1.2829072681704259,0,3.0500000000000003
1757331998.8741982,-0.076,0.055,9.901,0.1066907095299305,0.5428709296051373,1.2829072681704259,0,3.0500000000000003
1757331998.9015586,0.246,0.013,10.026,0.1073973812529896,1.4074994623811994,1.2990476190476188,0,3.1
1757331998.9291072,0.246,0.013,10.026,0.1073973812529896,1.4074994623811994,1.2990476190476188,0,3.1
1757331998.956516,0.364,-0.105,9.873,0.10892858899297282,2.1974459903562256,1.3049624060150375,0,3.1
1757331998.9839606,0.403,0.018,10.078,0.11077662208245925,2.292209494150305,1.3069172932330826,0,3.1
1757331999.0115063,0.403,0.018,10.078,0.11077662208245925,2.292209494150305,1.3069172932330826,0,3.1
1757331999.0388813,0.403,0.018,10.078,0.11077662208245925,2.292209494150305,1.3069172932330826,0,3.1
1757331999.0664575,0.188,0.02,10.105,0.1111747273439427,1.071857924107457,1.3176942355889725,0,3.1
1757331999.094136,-0.01,0.187,9.961,0.11117585169451143,1.0770360134390715,1.3276190476190477,0,3.1
1757331999.1218903,-0.01,0.187,9.961,0.11117585169451143,1.0770360134390715,1.3276190476190477,0,3.1
1757331999.149826,0.023,-0.161,9.906,0.1111817993198527,0.9405851787365413,1.3292731829573934,0,3.1
1757331999.177831,0.023,-0.161,9.906,0.1111817993198527,0.9405851787365413,1.3292731829573934,0,3.1
1757331999.20345,0.023,-0.161,9.906,0.1111817993198527,0.9405851787365413,1.3292731829573934,0,3.1
1757331999.2289479,0.108,-0.057,10.072,0.11131285864624985,0.6946533658466424,1.333533834586466,0,3.1
1757331999.2572262,0.108,-0.057,10.072,0.11131285864624985,0.6946533658466424,1.333533834586466,0,3.1
1757331999.2846909,0.17,-0.181,9.974,0.11163692265554438,1.426161949198328,1.3366416040100249,0,3.1
1757331999.3123264,0.066,-0.027,9.92,0.11168568619120357,0.41185937731113603,1.3418546365914783,0,3.1
1757331999.3398986,0.066,-0.027,9.92,0.11168568619120357,0.41185937731113603,1.3418546365914783,0,3.1
1757331999.3670394,0.21,0.067,9.939,0.11217817301061735,1.2705089584892628,1.3490726817042606,0,3.1
1757331999.394646,0.21,0.067,9.939,0.11217817301061735,1.2705089584892628,1.3490726817042606,0,3.1
1757331999.422104,0.076,0.081,9.747,0.11224251645432759,0.6528864433720384,1.3557894736842104,0,3.1
1757331999.4504664,0.076,0.081,9.747,0.11224251645432759,0.6528864433720384,1.3557894736842104,0,3.1
1757331999.4778922,0.135,-0.117,9.868,0.11244529781186939,1.0371383041714386,1.3587468671679197,0,3.1
1757331999.5054307,0.135,-0.117,9.868,0.11244529781186939,1.0371383041714386,1.3587468671679197,0,3.1
1757331999.5328856,0.135,-0.117,9.868,0.11244529781186939,1.0371383041714386,1.3587468671679197,0,3.1
1757331999.5586958,0.114,0.073,9.849,0.11258967537034646,0.7874539050326248,1.3597994987468673,0,3.1
1757331999.5840676,0.22,-0.184,9.788,0.1131257486163075,1.678371975622058,1.3651127819548874,0,3.1
1757331999.609513,0.22,-0.184,9.788,0.1131257486163075,1.678371975622058,1.3651127819548874,0,3.1
1757331999.6349094,0.22,-0.184,9.788,0.1131257486163075,1.678371975622058,1.3651127819548874,0,3.1
1757331999.6602762,0.022,-0.086,9.789,0.11313109652080633,0.5195597612148974,1.3750375939849624,0,3.1
1757331999.6856909,0.022,-0.086,9.789,0.11313109652080633,0.5195597612148974,1.3750375939849624,0,3.1
1757331999.7108388,0.013,-0.399,9.832,0.1131329638080785,2.3251209845504985,1.375488721804511,0,3.1
1757331999.7360368,0.013,-0.399,9.832,0.1131329638080785,2.3251209845504985,1.375488721804511,0,3.1
1757331999.761339,0.093,-0.43,9.837,0.11322848581518698,2.5607437664666697,1.3794987468671678,0,3.1
1757331999.7865324,0.093,-0.43,9.837,0.11322848581518698,2.5607437664666697,1.3794987468671678,0,3.1
1757331999.8118143,0.1,-0.605,9.751,0.1133388282981609,3.5984071978876755,1.3798496240601503,0,3.1
1757331999.8369741,0.1,-0.605,9.751,0.1133388282981609,3.5984071978876755,1.3798496240601503,0,3.1
1757331999.8621058,0.107,-0.543,9.793,0.11346502765169539,3.234575121768987,1.3802005012531326,0,0.1
1757331999.8874493,0.107,-0.543,9.793,0.11346502765169539,3.234575121768987,1.3802005012531326,0,0.1
1757331999.912788,0.045,-0.379,9.774,0.1134873340950434,2.236190525139221,1.383308270676692,0,0.1
1757331999.9379997,0.045,-0.379,9.774,0.1134873340950434,2.236190525139221,1.383308270676692,0,0.1
1757331999.9631166,-0.112,-0.427,9.801,0.11362541529077022,2.57890091858244,1.3911779448621553,0,0.1
1757331999.9884787,-0.112,-0.427,9.801,0.11362541529077022,2.57890091858244,1.3911779448621553,0,0.1
1757332000.0135975,0.004,-0.152,9.79,0.11362559130759232,0.8898133929841473,1.3969924812030072,0,0.1
1757332000.0390058,0.004,-0.152,9.79,0.11362559130759232,0.8898133929841473,1.3969924812030072,0,0.1
1757332000.064042,0.004,-0.152,9.79,0.11362559130759232,0.8898133929841473,1.3969924812030072,0,0.1
1757332000.0894022,0.26,-0.19,9.562,0.11436684397149376,1.9288531418198096,1.4098245614035088,0,0.1
1757332000.1148477,0.26,-0.19,9.562,0.11436684397149376,1.9288531418198096,1.4098245614035088,0,0.1
1757332000.1404607,0.451,0.084,9.85,0.11656876725778652,2.6665784607790957,1.4193984962406012,0,3.0500000000000003
1757332000.1665165,0.451,0.084,9.85,0.11656876725778652,2.6665784607790957,1.4193984962406012,0,3.0500000000000003
1757332000.1934106,0.147,-0.305,9.724,0.11680025684903267,1.9941553773155494,1.4346365914786967,0,3.0500000000000003
1757332000.2205305,0.147,-0.305,9.724,0.11680025684903267,1.9941553773155494,1.4346365914786967,0,3.0500000000000003
1757332000.2477582,0.101,0.165,9.815,0.11690937729711848,1.1291790272433693,1.436942355889724,0,3.0500000000000003
1757332000.2760866,0.101,0.165,9.815,0.11690937729711848,1.1291790272433693,1.436942355889724,0,3.0500000000000003
1757332000.3037603,0.335,-0.233,9.925,0.11810319640043618,2.35436049671158,1.448671679197995,0,0.1
1757332000.3317456,0.335,-0.233,9.925,0.11810319640043618,2.35436049671158,1.448671679197995,0,0.1
1757332000.3594637,0.159,-0.102,9.811,0.11837046717826201,1.103058503663904,1.4574937343358394,0,0.1
1757332000.3869174,0.197,-0.098,9.902,0.11877958578813111,1.2729438413532475,1.4593984962406015,0,0.1
1757332000.4140825,0.197,-0.098,9.902,0.11877958578813111,1.2729438413532475,1.4593984962406015,0,0.1
1757332000.440571,0.197,-0.098,9.902,0.11877958578813111,1.2729438413532475,1.4593984962406015,0,0.1
1757332000.4666376,0.052,0.052,9.965,0.1188080384485831,0.42282025816549274,1.4666666666666668,0,0.1
1757332000.4941328,0.052,0.052,9.965,0.1188080384485831,0.42282025816549274,1.4666666666666668,0,0.1
1757332000.5214617,0.132,-0.133,9.899,0.1189912181633586,1.0844596823907213,1.4706766917293232,0,0.1
1757332000.5488634,0.132,-0.133,9.899,0.1189912181633586,1.0844596823907213,1.4706766917293232,0,0.1
1757332000.576884,0.227,-0.045,9.947,0.1195313034313606,1.3327482908312174,1.475438596491228,0,3.0500000000000003
1757332000.6045086,0.227,-0.045,9.947,0.1195313034313606,1.3327482908312174,1.475438596491228,0,3.0500000000000003
1757332000.6316812,0.228,-0.111,9.96,0.12007369612034102,1.4584510295166824,1.4754887218045114,0,0.15000000000000002
1757332000.6591425,0.228,-0.111,9.96,0.12007369612034102,1.4584510295166824,1.4754887218045114,0,0.15000000000000002
1757332000.6866598,-0.037,-0.22,9.885,0.12008794693889974,1.2928605931350297,1.4887719298245614,0,0.15000000000000002
1757332000.714462,0.232,-0.118,9.937,0.12064690215666543,1.5004318993766206,1.5022556390977444,0,0.15000000000000002
1757332000.742044,0.232,-0.118,9.937,0.12064690215666543,1.5004318993766206,1.5022556390977444,0,0.15000000000000002
1757332000.7695286,0.414,0.299,9.576,0.12240982395216488,3.0526610228464466,1.5113784461152882,0,0.15000000000000002
1757332000.797187,0.414,0.299,9.576,0.12240982395216488,3.0526610228464466,1.5113784461152882,0,0.15000000000000002
1757332000.8250916,0.332,-0.009,9.921,0.12353025945087301,1.9173554176709338,1.5154887218045112,0,0.15000000000000002
1757332000.8528438,0.332,-0.009,9.921,0.12353025945087301,1.9173554176709338,1.5154887218045112,0,0.15000000000000002
1757332000.8802223,0.137,0.137,9.771,0.12372003677658684,1.1359580014041402,1.5252631578947367,0,0.15000000000000002
1757332000.908467,0.137,0.137,9.771,0.12372003677658684,1.1359580014041402,1.5252631578947367,0,0.15000000000000002
1757332000.935786,0.095,0.179,9.788,0.12381118689359213,1.1860632031561065,1.5273684210526315,0,0.15000000000000002
1757332000.9632945,0.095,0.179,9.788,0.12381118689359213,1.1860632031561065,1.5273684210526315,0,0.15000000000000002
1757332000.9895234,0.231,-0.024,9.82,0.1243487535120477,1.3547950066426495,1.5341854636591479,0,0.15000000000000002
1757332001.0164294,0.231,-0.024,9.82,0.1243487535120477,1.3547950066426495,1.5341854636591479,0,0.15000000000000002
1757332001.042129,0.109,0.04,9.755,0.12446812845061984,0.6819238907669407,1.5403007518796992,0,0.15000000000000002
1757332001.0689025,0.109,0.04,9.755,0.12446812845061984,0.6819238907669407,1.5403007518796992,0,0.15000000000000002
1757332001.0950565,0.091,-0.096,9.804,0.12455126454596918,0.7729916016098155,1.541203007518797,0,0.15000000000000002
1757332001.1212823,0.091,-0.096,9.804,0.12455126454596918,0.7729916016098155,1.541203007518797,0,0.15000000000000002
1757332001.1477835,-0.007,-0.027,9.874,0.12455175631037886,0.16185203074286267,1.5461152882205513,0,0.15000000000000002
1757332001.1736584,-0.007,-0.027,9.874,0.12455175631037886,0.16185203074286267,1.5461152882205513,0,0.15000000000000002
1757332001.1992738,-0.127,-0.287,9.809,0.12471352172078215,1.8325822347715748,1.5521303258145365,0,0.15000000000000002
1757332001.2258995,-0.127,-0.287,9.809,0.12471352172078215,1.8325822347715748,1.5521303258145365,0,0.15000000000000002
1757332001.2517076,0.15,-0.305,9.705,0.12493883503538843,2.0057999420629122,1.566015037593985,0,0.15000000000000002
1757332001.2779734,0.15,-0.305,9.705,0.12493883503538843,2.0057999420629122,1.566015037593985,0,0.15000000000000002
1757332001.303322,0.15,-0.305,9.705,0.12493883503538843,2.0057999420629122,1.566015037593985,0,0.15000000000000002
1757332001.330395,-0.027,-0.455,9.722,0.12494612839139915,2.6842552716730976,1.574887218045113,0,0.15000000000000002
1757332001.3556814,-0.027,-0.455,9.722,0.12494612839139915,2.6842552716730976,1.574887218045113,0,0.15000000000000002
1757332001.3815832,-0.272,-0.51,9.869,0.1256841079850591,3.351826248038827,1.5871679197994988,0,0.15000000000000002
1757332001.4085822,-0.272,-0.51,9.869,0.1256841079850591,3.351826248038827,1.5871679197994988,0,0.15000000000000002
1757332001.4342563,-0.239,-0.414,9.69,0.12625093068963888,2.824269695116188,1.5888220551378445,0,0.15000000000000002
1757332001.4599688,-0.239,-0.414,9.69,0.12625093068963888,2.824269695116188,1.5888220551378445,0,0.15000000000000002
1757332001.4887557,-0.023,-0.3,9.76,0.12625616816615337,1.7657497532573372,1.5996491228070175,0,0.15000000000000002
1757332001.514505,-0.023,-0.3,9.76,0.12625616816615337,1.7657497532573372,1.5996491228070175,0,0.15000000000000002
1757332001.5413723,0.045,-0.486,9.837,0.12627621510007336,2.8404946699832516,1.6030576441102757,0,0.15000000000000002
1757332001.569217,0.045,-0.486,9.837,0.12627621510007336,2.8404946699832516,1.6030576441102757,0,0.15000000000000002
1757332001.5984716,-0.322,-0.177,9.622,0.12729843871784133,2.18692604732589,1.6214536340852128,0,0.15000000000000002
1757332001.6263359,-0.322,-0.177,9.622,0.12729843871784133,2.18692604732589,1.6214536340852128,0,0.15000000000000002
1757332001.6538188,-0.351,-0.38,9.757,0.12850250970311825,3.0348956257535042,1.6229072681704262,0,0.15000000000000002
1757332001.6813002,-0.351,-0.38,9.757,0.12850250970311825,3.0348956257535042,1.6229072681704262,0,0.15000000000000002
1757332001.708818,-0.351,-0.38,9.757,0.12850250970311825,3.0348956257535042,1.6229072681704262,0,0.15000000000000002
1757332001.7362752,-0.066,-0.388,9.75,0.1285448754326675,2.311575082217545,1.6371929824561404,0,0.15000000000000002
1757332001.763941,-0.044,-0.368,9.738,0.1285637001645488,2.179583150300427,1.6382957393483708,0,0.15000000000000002
1757332001.7924316,-0.044,-0.368,9.738,0.1285637001645488,2.179583150300427,1.6382957393483708,0,0.15000000000000002
1757332001.819967,-0.121,-0.297,9.832,0.12870597305486642,1.8682240528983272,1.6421553884711777,0,0.15000000000000002
1757332001.8479812,-0.21,-0.258,9.71,0.12913356457559746,1.9621705634393525,1.6466165413533835,0,0.15000000000000002
1757332001.8758411,-0.21,-0.258,9.71,0.12913356457559746,1.9621705634393525,1.6466165413533835,0,0.15000000000000002
1757332001.9034092,-0.081,-0.269,9.624,0.12919705879005142,1.6720249424228772,1.6530827067669172,0,0.15000000000000002
1757332001.931329,-0.081,-0.269,9.624,0.12919705879005142,1.6720249424228772,1.6530827067669172,0,0.15000000000000002
1757332001.9591806,0.031,-0.251,9.637,0.1292063562677936,1.503287752671828,1.6586967418546363,0,0.15000000000000002
1757332001.9870248,0.031,-0.251,9.637,0.1292063562677936,1.503287752671828,1.6586967418546363,0,0.15000000000000002
1757332002.0140631,-0.1,-0.485,9.74,0.12930306454218324,2.910531208189699,1.6652631578947368,0,0.1
1757332002.0415936,-0.1,-0.485,9.74,0.12930306454218324,2.910531208189699,1.6652631578947368,0,0.1
1757332002.0690162,-0.257,-0.445,9.777,0.12994000538710163,3.0087104406953045,1.6731328320802004,0,0.1
1757332002.096859,-0.257,-0.445,9.777,0.12994000538710163,3.0087104406953045,1.6731328320802004,0,0.1
1757332002.124113,-0.257,-0.445,9.777,0.12994000538710163,3.0087104406953045,1.6731328320802004,0,0.1
1757332002.1516058,-0.196,0.062,9.429,0.1303090365247169,1.2489726999272344,1.676190476190476,0,0.1
1757332002.179485,0.298,0.084,9.62,0.1311581297518381,1.8433864406131852,1.7009523809523812,0,0.1
1757332002.2070749,0.298,0.084,9.62,0.1311581297518381,1.8433864406131852,1.7009523809523812,0,0.1
1757332002.2342637,0.123,-0.15,9.727,0.131302237223895,1.1424770657783292,1.7097243107769424,0,3.0500000000000003
1757332002.2617128,0.123,-0.15,9.727,0.131302237223895,1.1424770657783292,1.7097243107769424,0,3.0500000000000003
1757332002.2902637,-0.089,-0.089,9.424,0.1313776236655238,0.7651851599248489,1.7203508771929827,0,0.1
1757332002.3186724,-0.089,-0.089,9.424,0.1313776236655238,0.7651851599248489,1.7203508771929827,0,0.1
1757332002.346457,0.15,-0.146,9.74,0.1315915270828635,1.2311562980783812,1.7323308270676694,0,3.0500000000000003
1757332002.374606,0.15,-0.146,9.74,0.1315915270828635,1.2311562980783812,1.7323308270676694,0,3.0500000000000003
1757332002.402208,0.07,-0.224,9.785,0.13163806440387976,1.3739146229646386,1.7363408521303256,0,3.0500000000000003
1757332002.4307237,0.07,-0.224,9.785,0.13163806440387976,1.3739146229646386,1.7363408521303256,0,3.0500000000000003
1757332002.458882,0.02,-0.207,9.463,0.13164186264255,1.2589599810048115,1.7388471177944864,0,3.0500000000000003
1757332002.4845643,0.02,-0.207,9.463,0.13164186264255,1.2589599810048115,1.7388471177944864,0,3.0500000000000003
1757332002.510457,0.117,-0.272,9.817,0.13177178188064392,1.7276077015777427,1.7437092731829573,0,3.0500000000000003
1757332002.5368931,0.117,-0.272,9.817,0.13177178188064392,1.7276077015777427,1.7437092731829573,0,3.0500000000000003
1757332002.5621798,0.019,-0.292,9.847,0.1317752063174253,1.7021240139000815,1.7486215538847116,0,3.0500000000000003
1757332002.5886488,0.019,-0.292,9.847,0.1317752063174253,1.7021240139000815,1.7486215538847116,0,3.0500000000000003
1757332002.6148612,0.053,-0.276,9.527,0.13180184938004474,1.6897126200580652,1.750325814536341,0,3.0500000000000003
1757332002.641701,0.053,-0.276,9.527,0.13180184938004474,1.6897126200580652,1.750325814536341,0,3.0500000000000003
1757332002.667994,0.073,-0.346,9.796,0.13185237957655524,2.0673713273019354,1.751328320802005,0,3.0500000000000003
1757332002.6954465,0.073,-0.346,9.796,0.13185237957655524,2.0673713273019354,1.751328320802005,0,3.0500000000000003
1757332002.7230208,-0.193,-0.486,9.91,0.1322050396164987,3.0205176780726175,1.7646616541353384,0,3.0500000000000003
1757332002.7508605,-0.193,-0.486,9.91,0.1322050396164987,3.0205176780726175,1.7646616541353384,0,3.0500000000000003
1757332002.7786193,0.015,-0.328,9.588,0.13220716697668095,1.9613379504058177,1.7750877192982455,0,3.0500000000000003
1757332002.8070295,0.015,-0.328,9.588,0.13220716697668095,1.9613379504058177,1.7750877192982455,0,3.0500000000000003
1757332002.8347058,-0.22,-0.011,9.794,0.13266399285412753,1.2884103146843262,1.7868671679197994,0,3.0500000000000003
1757332002.863188,-0.22,-0.011,9.794,0.13266399285412753,1.2884103146843262,1.7868671679197994,0,3.0500000000000003
1757332002.8913488,0.106,-0.238,9.742,0.1327698196127418,1.5319405640956103,1.803208020050125,0,3.0500000000000003
1757332002.9194236,0.106,-0.238,9.742,0.1327698196127418,1.5319405640956103,1.803208020050125,0,3.0500000000000003
1757332002.9474528,0.055,-0.27,9.702,0.1327982962993125,1.6268107546539,1.805764411027569,0,3.0500000000000003
1757332002.975167,0.055,-0.27,9.702,0.1327982962993125,1.6268107546539,1.805764411027569,0,3.0500000000000003
1757332003.0028064,-0.058,-0.322,9.611,0.1328299570880003,1.9497352880052596,1.8114285714285714,0,3.0500000000000003
1757332003.0303242,-0.058,-0.322,9.611,0.1328299570880003,1.9497352880052596,1.8114285714285714,0,3.0500000000000003
1757332003.0577624,0.112,-0.181,9.877,0.13294795034147763,1.234535065780511,1.8199498746867164,0,3.0500000000000003
1757332003.0855918,0.112,-0.181,9.877,0.13294795034147763,1.234535065780511,1.8199498746867164,0,3.0500000000000003
1757332003.1129568,0.051,-0.312,9.723,0.13297240315193223,1.862301128055585,1.8230075187969925,0,3.0500000000000003
1757332003.1403046,0.051,-0.312,9.723,0.13297240315193223,1.862301128055585,1.8230075187969925,0,3.0500000000000003
1757332003.1681874,-0.062,-0.275,9.695,0.13300853356082085,1.665525715153887,1.8286716791979947,0,3.0500000000000003
1757332003.1961327,0.039,-0.261,9.945,0.13302282698845339,1.520027895323416,1.8337343358395986,0,3.0500000000000003
1757332003.2234545,0.039,-0.261,9.945,0.13302282698845339,1.520027895323416,1.8337343358395986,0,3.0500000000000003
1757332003.2515192,0.039,-0.261,9.945,0.13302282698845339,1.520027895323416,1.8337343358395986,0,3.0500000000000003
1757332003.278973,-0.012,-0.108,9.902,0.13302418013278638,0.6287390719522256,1.8362907268170423,0,3.0500000000000003
1757332003.3067234,-0.012,-0.108,9.902,0.13302418013278638,0.6287390719522256,1.8362907268170423,0,3.0500000000000003
1757332003.334288,-0.068,-0.171,9.768,0.13306762378580297,1.0792974433747782,1.8390977443609022,0,3.0500000000000003
1757332003.3627422,0.056,-0.079,9.991,0.13309707923166458,0.5553055741416212,1.84531328320802,0,3.0500000000000003
1757332003.3910875,0.056,-0.079,9.991,0.13309707923166458,0.5553055741416212,1.84531328320802,0,3.0500000000000003
1757332003.4190524,0.222,0.033,9.871,0.1335591348429601,1.3025234912105483,1.8536340852130324,0,3.0500000000000003
1757332003.4469733,0.222,0.033,9.871,0.1335591348429601,1.3025234912105483,1.8536340852130324,0,3.0500000000000003
1757332003.474439,0.132,-0.023,9.753,0.1337221092415162,0.7870921901471303,1.8581453634085212,0,0.30000000000000004
1757332003.5025547,0.132,-0.023,9.753,0.1337221092415162,0.7870921901471303,1.8581453634085212,0,0.30000000000000004
1757332003.5301993,0.029,0.049,9.839,0.1337299704628697,0.3315685492238944,1.863308270676692,0,0.30000000000000004
1757332003.557767,0.029,0.049,9.839,0.1337299704628697,0.3315685492238944,1.863308270676692,0,0.30000000000000004
1757332003.585227,0.176,0.057,9.78,0.1340191963861894,1.0836866272117078,1.8706766917293236,0,0.30000000000000004
1757332003.6131272,0.176,0.057,9.78,0.1340191963861894,1.0836866272117078,1.8706766917293236,0,0.30000000000000004
1757332003.6407468,0.056,-0.084,9.645,0.13404844273619893,0.5997002752037037,1.876691729323308,0,0.30000000000000004
1757332003.6686783,0.056,-0.084,9.645,0.13404844273619893,0.5997002752037037,1.876691729323308,0,0.30000000000000004
1757332003.6961188,0.056,-0.237,9.653,0.13407768270670553,1.4451531393468664,1.876691729323308,0,0.30000000000000004
1757332003.72382,0.056,-0.237,9.653,0.13407768270670553,1.4451531393468664,1.876691729323308,0,0.30000000000000004
1757332003.7512734,0.01,-0.084,9.886,0.1340786149988133,0.490260149032865,1.8789974937343357,0,0.30000000000000004
1757332003.778647,0.01,-0.084,9.886,0.1340786149988133,0.490260149032865,1.8789974937343357,0,0.30000000000000004
1757332003.8062224,0.158,0.071,9.662,0.13431114994668164,1.027083831166147,1.8864160401002508,0,0.30000000000000004
1757332003.8339343,0.158,0.071,9.662,0.13431114994668164,1.027083831166147,1.8864160401002508,0,0.30000000000000004
1757332003.861962,0.159,-0.008,9.812,0.13454622811509803,0.9295508126547612,1.886466165413534,0,0.30000000000000004
1757332003.889797,0.159,-0.008,9.812,0.13454622811509803,0.9295508126547612,1.886466165413534,0,0.30000000000000004
1757332003.9172173,0.151,0.007,9.995,0.13475789401738214,0.8664626119895521,1.8868671679197992,0,0.30000000000000004
1757332003.9450486,0.151,0.007,9.995,0.13475789401738214,0.8664626119895521,1.8868671679197992,0,0.30000000000000004
1757332003.9727194,0.157,-0.008,9.767,0.13498634190169018,0.9221183839261282,1.8871679197994988,0,0.30000000000000004
1757332004.0004756,0.157,-0.008,9.767,0.13498634190169018,0.9221183839261282,1.8871679197994988,0,0.30000000000000004
1757332004.028339,0.115,-0.139,9.934,0.13510875249220533,1.0403980998210036,1.8892731829573932,0,0.30000000000000004
1757332004.0563204,0.115,-0.139,9.934,0.13510875249220533,1.0403980998210036,1.8892731829573932,0,0.30000000000000004
1757332004.08409,-0.016,-0.28,10.006,0.13511112093384467,1.6055150142082162,1.8958395989974939,0,0.30000000000000004
1757332004.112345,-0.016,-0.28,10.006,0.13511112093384467,1.6055150142082162,1.8958395989974939,0,0.30000000000000004
1757332004.1399674,0.06,-0.115,9.877,0.13514442274840646,0.7524023613197413,1.8996491228070174,0,0.30000000000000004
1757332004.1677387,0.051,-0.247,9.891,0.13516847820405467,1.4606663662428052,1.900100250626566,0,0.30000000000000004
1757332004.195589,0.051,-0.247,9.891,0.13516847820405467,1.4606663662428052,1.900100250626566,0,0.30000000000000004
1757332004.22345,0.051,-0.247,9.891,0.13516847820405467,1.4606663662428052,1.900100250626566,0,0.30000000000000004
1757332004.2513008,0.051,-0.247,9.891,0.13516847820405467,1.4606663662428052,1.900100250626566,0,0.30000000000000004
1757332004.2790437,0.053,-0.296,9.984,0.13519445254891194,1.7251666217240813,1.900200501253133,0,0.30000000000000004
1757332004.3066616,0.27,-0.199,9.805,0.1358668097807555,1.9592231666993007,1.911077694235589,0,0.30000000000000004
1757332004.3345342,0.27,-0.199,9.805,0.1358668097807555,1.9592231666993007,1.911077694235589,0,0.30000000000000004
1757332004.3624654,0.101,-0.121,9.807,0.13596062849222196,0.9207513157662582,1.9195488721804508,0,0.30000000000000004
1757332004.3905027,0.056,-0.202,10.027,0.1359894573119549,1.1976182024681246,1.9218045112781954,0,0.30000000000000004
1757332004.4188583,0.056,-0.202,10.027,0.1359894573119549,1.1976182024681246,1.9218045112781954,0,0.30000000000000004
1757332004.4468634,-0.059,-0.274,9.948,0.13602145051424794,1.6138546776906462,1.9275689223057642,0,0.30000000000000004
1757332004.475203,-0.059,-0.274,9.948,0.13602145051424794,1.6138546776906462,1.9275689223057642,0,0.30000000000000004
1757332004.503033,0.005,-0.269,9.837,0.1360216802572296,1.5666752924820184,1.9307769423558894,0,0.30000000000000004
1757332004.530809,0.005,-0.269,9.837,0.1360216802572296,1.5666752924820184,1.9307769423558894,0,0.30000000000000004
1757332004.5587869,0.075,-0.106,9.975,0.13607336256593353,0.745807699790196,1.9342857142857142,0,0.30000000000000004
1757332004.58682,0.075,-0.106,9.975,0.13607336256593353,0.745807699790196,1.9342857142857142,0,0.30000000000000004
1757332004.6146786,0.04,-0.059,9.846,0.13608805972604648,0.41479146471697753,1.936040100250626,0,0.30000000000000004
1757332004.6424005,0.04,-0.059,9.846,0.13608805972604648,0.41479146471697753,1.936040100250626,0,0.30000000000000004
1757332004.6705332,0.101,-0.195,9.805,0.1361817260134413,1.283048437986803,1.9390977443609023,0,0.30000000000000004
1757332004.6987762,0.101,-0.195,9.805,0.1361817260134413,1.283048437986803,1.9390977443609023,0,0.30000000000000004
1757332004.726741,0.036,-0.234,9.93,0.13619362136311672,1.3657986188718325,1.9423558897243107,0,0.30000000000000004
1757332004.754099,0.036,-0.234,9.93,0.13619362136311672,1.3657986188718325,1.9423558897243107,0,0.30000000000000004
1757332004.7818272,0.089,-0.126,9.654,0.1362663017770718,0.9154602339410998,1.9450125313283206,0,0.30000000000000004
1757332004.8097568,0.089,-0.126,9.654,0.1362663017770718,0.9154602339410998,1.9450125313283206,0,0.30000000000000004
1757332004.8373823,0.143,-0.144,9.612,0.1364537559028699,1.2095223170008245,1.9477192982456137,0,0.30000000000000004
1757332004.8656836,0.143,-0.144,9.612,0.1364537559028699,1.2095223170008245,1.9477192982456137,0,0.30000000000000004
1757332004.8933442,-0.08,-0.228,9.711,0.13651237123425847,1.4253318845218264,1.958897243107769,0,0.30000000000000004
1757332004.921193,-0.08,-0.228,9.711,0.13651237123425847,1.4253318845218264,1.958897243107769,0,0.30000000000000004
1757332004.948979,0.006,-0.201,9.456,0.13651270087431425,1.2182577364586553,1.962406015037594,0,0.30000000000000004
1757332004.9768927,0.006,-0.201,9.456,0.13651270087431425,1.2182577364586553,1.962406015037594,0,0.30000000000000004
1757332005.004598,0.268,-0.121,9.557,0.13716645909259303,1.762317814862668,1.9755388471177946,0,0.25
1757332005.0328085,0.124,-0.297,9.495,0.13730417874194506,1.9413768721190143,1.9826065162907267,0,0.25
1757332005.0612428,0.124,-0.297,9.495,0.13730417874194506,1.9413768721190143,1.9826065162907267,0,0.25
1757332005.089572,0.125,-0.053,9.561,0.13744481619908405,0.813579347358174,1.9816040100250623,0,0.25
1757332005.1172032,0.125,-0.053,9.561,0.13744481619908405,0.813579347358174,1.9816040100250623,0,0.25
1757332005.1451995,0.008,-0.36,9.665,0.13744481619908405,2.133681818854036,1.9873182957393483,0,0.25
1757332005.1737962,0.008,-0.36,9.665,0.13744481619908405,2.133681818854036,1.9873182957393483,0,0.25
1757332005.2019434,0.096,-0.305,9.75,0.13752750633964103,1.878343156932056,1.9911278195488717,0,0.25
1757332005.2303312,0.096,-0.305,9.75,0.13752750633964103,1.878343156932056,1.9911278195488717,0,0.25
1757332005.25828,0.159,-0.149,9.844,0.1377570869320341,1.2680740383190694,1.9934837092731825,0,0.25
1757332005.2863216,0.159,-0.149,9.844,0.1377570869320341,1.2680740383190694,1.9934837092731825,0,0.25
1757332005.314298,0.025,-0.007,9.884,0.13776013574325482,0.150493882070298,1.9997493734335836,0,0.25
1757332005.3421943,0.025,-0.007,9.884,0.13776013574325482,0.150493882070298,1.9997493734335836,0,0.25
1757332005.3677294,0.025,-0.007,9.884,0.13776013574325482,0.150493882070298,1.9997493734335836,0,0.25
1757332005.3939326,0.074,-0.164,10.031,0.13780368282451672,1.0275822652319755,2.002205513784461,0,0.25
1757332005.4201455,0.023,-0.117,9.892,0.13780234939942063,0.6906161760196663,2.004561403508772,0,0.25
1757332005.4456954,0.023,-0.117,9.892,0.13780234939942063,0.6906161760196663,2.004561403508772,0,0.25
1757332005.4711087,0.023,-0.117,9.892,0.13780234939942063,0.6906161760196663,2.004561403508772,0,0.25
1757332005.4975305,-0.046,0.052,9.841,0.13781337924889586,0.40420316974837467,2.0071679197994987,0,0.25
1757332005.5241687,0.086,-0.13,9.954,0.13787891426900634,0.8971331225923032,2.012280701754386,0,0.25
1757332005.5508156,0.086,-0.13,9.954,0.13787891426900634,0.8971331225923032,2.012280701754386,0,0.25
1757332005.5788882,0.086,-0.13,9.954,0.13787891426900634,0.8971331225923032,2.012280701754386,0,0.25
1757332005.6053789,0.105,-0.095,9.791,0.13797621171781752,0.828557199488805,2.0124310776942353,0,0.25
1757332005.6333623,0.127,0.065,9.7,0.1381123998777807,0.8426446542275203,2.013032581453634,0,0.25
1757332005.661616,0.127,0.065,9.7,0.1381123998777807,0.8426446542275203,2.013032581453634,0,0.25
1757332005.6895077,0.127,0.065,9.7,0.1381123998777807,0.8426446542275203,2.013032581453634,0,0.25
1757332005.7172153,0.355,-0.009,9.72,0.13924358153968894,2.0923345574813648,2.023308270676692,0,0.25
1757332005.7446058,0.084,-0.165,9.854,0.13930690937638376,1.0764298067543188,2.0355388471177944,0,0.25
1757332005.7718246,0.084,-0.165,9.854,0.13930690937638376,1.0764298067543188,2.0355388471177944,0,0.25
1757332005.798675,-0.048,0.195,9.762,0.13932104112444754,1.1785046578471514,2.0416541353383457,0,0.25
1757332005.8249078,-0.048,0.195,9.762,0.13932104112444754,1.1785046578471514,2.0416541353383457,0,0.25
1757332005.8522305,0.043,-0.262,9.821,0.139325347657919,1.548581792237249,2.0461654135338345,0,0.25
1757332005.879305,0.043,-0.262,9.821,0.139325347657919,1.548581792237249,2.0461654135338345,0,0.25
1757332005.9058883,0.139,-0.151,9.84,0.13948697071769822,1.1948656074981958,2.0503759398496237,0,0.25
1757332005.9320343,0.139,-0.151,9.84,0.13948697071769822,1.1948656074981958,2.0503759398496237,0,0.25
1757332005.9603257,0.184,-0.083,9.686,0.13978488831057526,1.1938574389813061,2.0510275689223056,0,0.25
1757332005.9858785,0.184,-0.083,9.686,0.13978488831057526,1.1938574389813061,2.0510275689223056,0,0.25
1757332006.0121338,-0.052,-0.2,9.811,0.13980849401949796,1.2066447346159321,2.0626065162907268,0,0.25
1757332006.0382836,-0.052,-0.2,9.811,0.13980849401949796,1.2066447346159321,2.0626065162907268,0,0.25
1757332006.0640886,-0.111,-0.328,9.943,0.13991852986649053,1.9945657434272248,2.0651629072681703,0,0.25
1757332006.0901258,-0.111,-0.328,9.943,0.13991852986649053,1.9945657434272248,2.0651629072681703,0,0.25
1757332006.1179357,-0.159,-0.277,9.706,0.14014397953533358,1.8847208556763644,2.0667167919799496,0,0.25
1757332006.1456115,-0.159,-0.277,9.706,0.14014397953533358,1.8847208556763644,2.0667167919799496,0,0.25
1757332006.1731725,-0.092,-0.344,9.716,0.14021513826973175,2.0989418962145834,2.0688220551378445,0,0.25
1757332006.201126,-0.092,-0.344,9.716,0.14021513826973175,2.0989418962145834,2.0688220551378445,0,0.25
1757332006.2291064,-0.108,-0.52,9.858,0.14029940306359112,3.0838127419018893,2.069273182957393,0,0.25
1757332006.2571716,-0.108,-0.52,9.858,0.14029940306359112,3.0838127419018893,2.069273182957393,0,0.25
1757332006.2859519,-0.121,-0.638,9.817,0.140415544011338,3.784475455053912,2.069624060150376,0,0.25
1757332006.3129873,-0.121,-0.638,9.817,0.140415544011338,3.784475455053912,2.069624060150376,0,0.25
1757332006.3411012,-0.16,-0.63,9.956,0.14063297977359365,3.735383433807456,2.0712280701754384,0,0.25
1757332006.368754,-0.16,-0.63,9.956,0.14063297977359365,3.735383433807456,2.0712280701754384,0,0.25
1757332006.3961234,0.041,-0.414,9.844,0.14064144126110198,2.419983182854271,2.079949874686717,0,0.25
1757332006.4234335,0.041,-0.414,9.844,0.14064144126110198,2.419983182854271,2.079949874686717,0,0.25
1757332006.4510612,-0.241,-0.549,9.727,0.1411567125573559,3.5272250463764214,2.093984962406015,0,0.25
1757332006.47888,-0.241,-0.549,9.727,0.1411567125573559,3.5272250463764214,2.093984962406015,0,0.25
1757332006.5062203,-0.188,-0.323,9.555,0.141469316461203,2.2398908144642378,2.095889724310777,0,0.25
1757332006.5340548,-0.188,-0.323,9.555,0.141469316461203,2.2398908144642378,2.095889724310777,0,0.25
1757332006.5617447,0.056,-0.578,9.811,0.1414955299647307,3.387346479744043,2.1073182957393484,0,0.25
1757332006.5896907,0.056,-0.578,9.811,0.1414955299647307,3.387346479744043,2.1073182957393484,0,0.25
1757332006.6174054,-0.095,-0.38,9.858,0.14156781060679013,2.275377664174967,2.113533834586466,0,0.25
1757332006.6448154,-0.095,-0.38,9.858,0.14156781060679013,2.275377664174967,2.113533834586466,0,0.25
1757332006.672403,-0.012,-0.225,9.718,0.1415413897063329,1.3282115038248556,2.117042606516291,0,0.25
1757332006.7002814,-0.012,-0.225,9.718,0.1415413897063329,1.3282115038248556,2.117042606516291,0,0.25
1757332006.7277539,-0.012,-0.225,9.718,0.1415413897063329,1.3282115038248556,2.117042606516291,0,0.25
1757332006.7553768,-0.083,-0.44,9.771,0.1415601815483436,2.623766416094573,2.120501253132832,0,0.25
1757332006.783554,0.063,-0.379,9.703,0.14155071529314148,2.267501985845193,2.1266165413533833,0,0.25
1757332006.811343,0.063,-0.379,9.703,0.14155071529314148,2.267501985845193,2.1266165413533833,0,0.25
1757332006.8389204,-0.043,-0.25,9.576,0.141547536184845,1.5174271154935026,2.1311779448621553,0,0.25
1757332006.8665044,0.197,-0.218,9.739,0.14188082146646883,1.728084466587216,2.143208020050125,0,0.25
1757332006.8944697,0.197,-0.218,9.739,0.14188082146646883,1.728084466587216,2.143208020050125,0,0.25
1757332006.9203403,0.197,-0.218,9.739,0.14188082146646883,1.728084466587216,2.143208020050125,0,0.25
1757332006.9467268,0.015,-0.152,9.841,0.14187378193309713,0.8891941431867668,2.1519799498746868,0,0.25
1757332006.9744816,0.015,-0.152,9.841,0.14187378193309713,0.8891941431867668,2.1519799498746868,0,0.25
1757332007.002328,0.021,-0.216,9.555,0.14187216076454182,1.301109660421288,2.1512781954887217,0,0.25
1757332007.028843,0.021,-0.216,9.555,0.14187216076454182,1.301109660421288,2.1512781954887217,0,0.25
1757332007.0550704,0.07,-0.465,9.853,0.1418974894069659,2.7323961417369302,2.153082706766917,0,0.25
1757332007.0815392,0.07,-0.465,9.853,0.1418974894069659,2.7323961417369302,2.153082706766917,0,0.25
1757332007.1079373,0.367,-0.476,9.842,0.1430496766861079,3.4947263570772926,2.167719298245614,0,0.25
1757332007.134054,0.367,-0.476,9.842,0.1430496766861079,3.4947263570772926,2.167719298245614,0,0.25
1757332007.1610622,-0.141,-0.211,9.785,0.14319877792774632,1.4856418833387075,2.1927819548872183,0,0.25
1757332007.1923761,-0.141,-0.211,9.785,0.14319877792774632,1.4856418833387075,2.1927819548872183,0,0.25
1757332007.2189443,-0.171,-0.03,9.791,0.14343615304378463,1.0158483985085978,2.1932832080200506,0,0.25
1757332007.2456825,0.236,-0.08,9.888,0.14391527889699549,1.4436239269454951,2.212982456140351,0,0.25
1757332007.2759683,0.236,-0.08,9.888,0.14391527889699549,1.4436239269454951,2.212982456140351,0,0.25
1757332007.3052964,0.006,-0.11,9.915,0.14391454061351827,0.6365753647109077,2.2240100250626567,0,0.25
1757332007.3358145,0.006,-0.11,9.915,0.14391454061351827,0.6365753647109077,2.2240100250626567,0,0.25
1757332007.36384,-0.089,-0.313,9.861,0.14397949506787416,1.8900425376391732,2.2284711779448623,0,0.25
1757332007.3897831,-0.089,-0.313,9.861,0.14397949506787416,1.8900425376391732,2.2284711779448623,0,0.25
1757332007.4173858,0.025,-0.183,9.923,0.1439785921586956,1.0663402851106807,2.233182957393484,0,0.25
1757332007.4462047,0.025,-0.183,9.923,0.1439785921586956,1.0663402851106807,2.233182957393484,0,0.25
1757332007.47182,0.07,0.08,9.885,0.1440019531117547,0.6161244451783211,2.2350375939849623,0,0.25
1757332007.4996853,0.07,0.08,9.885,0.1440019531117547,0.6161244451783211,2.2350375939849623,0,0.25
1757332007.5280542,-0.048,-0.038,9.856,0.14399569438007515,0.3558902935159735,2.240501253132832,0,0.25
1757332007.556585,-0.048,-0.038,9.856,0.14399569438007515,0.3558902935159735,2.240501253132832,0,0.25
1757332007.5844595,0.039,0.002,9.841,0.14397333954590344,0.2273610377665506,2.2442606516290726,0,0.25
1757332007.6126077,0.039,0.002,9.841,0.14397333954590344,0.2273610377665506,2.2442606516290726,0,0.25
1757332007.640617,0.075,-0.003,9.783,0.14399869791077974,0.4395927068256275,2.2449122807017545,0,0.25
1757332007.668946,0.075,-0.003,9.783,0.14399869791077974,0.4395927068256275,2.2449122807017545,0,0.25
1757332007.6964643,0.101,-0.126,9.893,0.14407992573568323,0.9351577340198258,2.245213032581453,0,0.25
1757332007.724421,0.101,-0.126,9.893,0.14407992573568323,0.9351577340198258,2.245213032581453,0,0.25
1757332007.7525444,-0.047,-0.229,9.882,0.14409838652809406,1.3551640465253743,2.2526315789473683,0,0.25
1757332007.7803903,-0.047,-0.229,9.882,0.14409838652809406,1.3551640465253743,2.2526315789473683,0,0.25
1757332007.8075898,0.117,0.37,9.675,0.1442163825645339,2.296865442869087,2.2603007518796994,0,0.25
1757332007.8359272,0.117,0.37,9.675,0.1442163825645339,2.296865442869087,2.2603007518796994,0,0.25
1757332007.8639972,0.173,0.124,9.644,0.14447209938254513,1.2643519881289176,2.2618546365914787,0,0.25
1757332007.8926904,-0.028,0.105,9.83,0.14446136161617748,0.6333707237441246,2.2714786967418545,0,0.25
1757332007.9207842,-0.028,0.105,9.83,0.14446136161617748,0.6333707237441246,2.2714786967418545,0,0.25
1757332007.9486852,0.108,-0.139,9.75,0.14453703677604574,1.034300151906175,2.2781954887218046,0,0.25
1757332007.9767098,0.108,-0.139,9.75,0.14453703677604574,1.034300151906175,2.2781954887218046,0,0.25
1757332008.0042202,0.108,-0.139,9.75,0.14453703677604574,1.034300151906175,2.2781954887218046,0,0.25
1757332008.0318923,-0.034,0.062,9.619,0.14451991212286283,0.42118208195279205,2.284661654135338,0,0.25
1757332008.059554,-0.034,0.062,9.619,0.14451991212286283,0.42118208195279205,2.284661654135338,0,0.25
1757332008.0872273,0.095,-0.108,9.711,0.14458196637202028,0.8485875808428948,2.290175438596491,0,0.25
1757332008.1151357,0.065,-0.02,9.871,0.1446135107795949,0.3947394009154467,2.291378446115288,0,0.25
1757332008.1428328,0.065,-0.02,9.871,0.1446135107795949,0.3947394009154467,2.291378446115288,0,0.25
1757332008.1705408,0.065,-0.02,9.871,0.1446135107795949,0.3947394009154467,2.291378446115288,0,0.25
1757332008.198266,-0.009,0.152,9.617,0.14461141033818875,0.9070897930089833,2.294937343358396,0,0.25
1757332008.2259285,0.027,-0.066,9.741,0.1446157667752725,0.419427411245047,2.295989974937343,0,0.25
1757332008.254142,0.027,-0.066,9.741,0.1446157667752725,0.419427411245047,2.295989974937343,0,0.25
1757332008.281802,0.011,-0.036,9.917,0.14460903325864535,0.2174829215821513,2.295839598997494,0,0.25
1757332008.3094468,0.011,-0.036,9.917,0.14460903325864535,0.2174829215821513,2.295839598997494,0,0.25
1757332008.3371027,0.169,-0.118,9.719,0.14483498368833406,1.2149370131910298,2.3037593984962403,0,0.25
1757332008.3648732,0.169,-0.118,9.719,0.14483498368833406,1.2149370131910298,2.3037593984962403,0,0.25
1757332008.39267,0.169,-0.118,9.719,0.14483498368833406,1.2149370131910298,2.3037593984962403,0,0.25
1757332008.420604,0.08,-0.002,9.809,0.1448694929928313,0.4674271394204293,2.3077694235588972,0,0.25
1757332008.448632,0.105,-0.047,9.98,0.14493558051769068,0.6604172711320739,2.307919799498747,0,0.25
1757332008.4765685,0.105,-0.047,9.98,0.14493558051769068,0.6604172711320739,2.307919799498747,0,0.25
1757332008.5040977,0.078,0.27,9.673,0.1449328551433387,1.6642127651701617,2.30265664160401,0,0.25
1757332008.533573,0.078,0.27,9.673,0.1449328551433387,1.6642127651701617,2.30265664160401,0,0.25
1757332008.559505,0.009,0.177,9.595,0.14454540809032987,1.058186553520739,2.284611528822055,0,0.25
1757332008.585144,0.009,0.177,9.595,0.14454540809032987,1.058186553520739,2.284611528822055,0,0.25
1757332008.6127992,0.136,0.126,9.59,0.14111134787819157,1.1075219222776358,2.282606516290727,0,0.25
1757332008.6404624,0.136,0.126,9.59,0.14111134787819157,1.1075219222776358,2.282606516290727,0,0.25
1757332008.6682417,0.056,-0.188,9.638,0.13913505129908854,1.1659858613585856,2.2780952380952377,0,0.25
1757332008.695982,0.056,-0.188,9.638,0.13913505129908854,1.1659858613585856,2.2780952380952377,0,0.25
1757332008.724235,0.007,-0.027,9.662,0.13830272954645545,0.16540330811068465,2.280451127819549,0,0.25
1757332008.751795,0.007,-0.027,9.662,0.13830272954645545,0.16540330811068465,2.280451127819549,0,0.25
1757332008.7799659,0.052,-0.085,9.77,0.13747841648782547,0.5843402019295016,2.265614035087719,0,0.25
1757332008.8082368,0.052,-0.085,9.77,0.13747841648782547,0.5843402019295016,2.265614035087719,0,0.25
1757332008.8365052,0.09,0.09,9.827,0.13754091209527441,0.7420529577914621,2.2674185463659144,0,0.25
1757332008.864382,0.09,0.09,9.827,0.13754091209527441,0.7420529577914621,2.2674185463659144,0,0.25
1757332008.8928986,0.02,0.132,9.685,0.1375346501795093,0.7897653719338386,2.2669172932330826,0,0.25
1757332008.9206326,-0.039,0.226,10.035,0.13743238337451621,1.3092125140666406,2.261052631578947,0,0.25
1757332008.9483051,-0.039,0.226,10.035,0.13743238337451621,1.3092125140666406,2.261052631578947,0,0.25
1757332008.9760559,0.137,-0.085,10.015,0.1375669291654066,0.9222968444867442,2.2616040100250623,0,0.25
1757332009.0035646,0.137,-0.085,10.015,0.1375669291654066,0.9222968444867442,2.2616040100250623,0,0.25
1757332009.0308437,-0.174,0.037,9.884,0.13736953810798083,1.0310875901176453,2.265062656641604,0,0.25
1757332009.0588038,-0.174,0.037,9.884,0.13736953810798083,1.0310875901176453,2.265062656641604,0,0.25
1757332009.0869029,-0.097,-0.333,10.006,0.13745334663077505,1.9852604352274685,2.2639097744360903,0,0.25
1757332009.1148994,-0.097,-0.333,10.006,0.13745334663077505,1.9852604352274685,2.2639097744360903,0,0.25
1757332009.1425908,0.111,0.363,9.752,0.13744720804730812,2.2290852008837705,2.2736340852130326,0,0.25
1757332009.1686935,0.111,0.363,9.752,0.13744720804730812,2.2290852008837705,2.2736340852130326,0,0.25
1757332009.1965704,0.072,0.074,9.532,0.13740340243239976,0.6205834900460154,2.2707268170426063,0,0.25
1757332009.2239623,0.072,0.074,9.532,0.13740340243239976,0.6205834900460154,2.2707268170426063,0,0.25
1757332009.2518888,0.1,-0.288,9.933,0.13749426351670094,1.757990648967417,2.266817042606516,0,0.25
1757332009.2794902,0.1,-0.288,9.933,0.13749426351670094,1.757990648967417,2.266817042606516,0,0.25
1757332009.3072052,0.117,-0.423,10.086,0.13752226183422087,2.4915994115417406,2.2579949874686713,0,0.25
1757332009.335165,0.117,-0.423,10.086,0.13752226183422087,2.4915994115417406,2.2579949874686713,0,0.25
1757332009.363204,0.117,-0.423,10.086,0.13752226183422087,2.4915994115417406,2.2579949874686713,0,0.25
1757332009.389754,-0.091,-0.277,9.86,0.13679925072894222,1.6937690366171714,2.257694235588972,0,0.25
1757332009.4165518,0.097,-0.248,9.979,0.13682378265491713,1.5286057234547052,2.2645614035087718,0,0.25
1757332009.4441314,0.097,-0.248,9.979,0.13682378265491713,1.5286057234547052,2.2645614035087718,0,0.25
1757332009.4716394,0.023,-0.236,9.957,0.1368198359157034,1.364196022492919,2.2577944862155386,0,0.25
1757332009.499534,0.023,-0.236,9.957,0.1368198359157034,1.364196022492919,2.2577944862155386,0,0.25
1757332009.5270674,0.022,-0.023,9.793,0.13653449197913325,0.18621303197498532,2.2577944862155386,0,0.25
1757332009.554831,0.022,-0.023,9.793,0.13653449197913325,0.18621303197498532,2.2577944862155386,0,0.25
1757332009.5825593,-0.198,-0.303,9.828,0.13660657012018126,2.109203281297617,2.263408521303258,0,0.25
1757332009.6102192,-0.198,-0.303,9.828,0.13660657012018126,2.109203281297617,2.263408521303258,0,0.25
1757332009.6360376,-0.034,-0.077,9.869,0.13657357907003828,0.4886623513199126,2.260952380952381,0,0.25
1757332009.6630564,-0.034,-0.077,9.869,0.13657357907003828,0.4886623513199126,2.260952380952381,0,0.25
1757332009.6891234,0.071,-0.095,9.715,0.13642985377108635,0.6994288797067374,2.2623057644110274,0,0.25
1757332009.7157397,0.071,-0.095,9.715,0.13642985377108635,0.6994288797067374,2.2623057644110274,0,0.25
1757332009.743457,-0.134,-0.294,9.766,0.13614251723837048,1.894877526172942,2.2630576441102757,0,0.25
1757332009.770944,-0.134,-0.294,9.766,0.13614251723837048,1.894877526172942,2.2630576441102757,0,0.25
1757332009.7979157,-0.08,-0.121,9.735,0.13619186833287808,0.8536654936049847,2.262205513784461,0,0.25
1757332009.825419,-0.08,-0.121,9.735,0.13619186833287808,0.8536654936049847,2.262205513784461,0,0.25
1757332009.8516555,0.003,0.387,9.63,0.1361779901452507,2.3013714165549697,2.2635087719298244,0,0.25
1757332009.8782716,0.003,0.387,9.63,0.1361779901452507,2.3013714165549697,2.2635087719298244,0,0.25
1757332009.9054065,0.122,0.178,9.7,0.1362300077075532,1.2744507527008484,2.2540852130325812,0,0.25
1757332009.9322186,0.122,0.178,9.7,0.1362300077075532,1.2744507527008484,2.2540852130325812,0,0.25
1757332009.9602149,0.121,-0.088,9.82,0.1359555625930767,0.8728831155522797,2.2499248120300748,0,0.25
1757332009.987861,0.121,-0.088,9.82,0.1359555625930767,0.8728831155522797,2.2499248120300748,0,0.25
1757332010.015502,0.021,-0.445,9.771,0.13581124769325992,2.6105139259080636,2.251378446115288,0,0.25
1757332010.0413575,0.021,-0.445,9.771,0.13581124769325992,2.6105139259080636,2.251378446115288,0,0.25
1757332010.0683486,0.029,-0.464,9.8,0.13579012298396376,2.7160367492330124,2.2500751879699243,0,0.25
1757332010.094439,0.029,-0.464,9.8,0.13579012298396376,2.7160367492330124,2.2500751879699243,0,0.25
1757332010.1209514,0.119,-0.441,9.838,0.1358459053486707,2.658305589827531,2.2523809523809524,0,0.25
1757332010.14847,0.119,-0.441,9.838,0.1358459053486707,2.658305589827531,2.2523809523809524,0,0.25
1757332010.173933,0.144,-0.327,9.773,0.13587148339515545,2.093810007629884,2.24125313283208,0,0.25
1757332010.200529,0.144,-0.327,9.773,0.13587148339515545,2.093810007629884,2.24125313283208,0,0.25
1757332010.2271159,0.067,-0.528,9.805,0.13579528710526004,3.107074137341298,2.2398496240601506,0,0.25
1757332010.2528558,0.067,-0.528,9.805,0.13579528710526004,3.107074137341298,2.2398496240601506,0,0.25
1757332010.2788603,-0.007,-0.341,9.838,0.13579514902970577,1.9855817480594833,2.236691729323308,0,0.25
1757332010.304944,-0.007,-0.341,9.838,0.13579514902970577,1.9855817480594833,2.236691729323308,0,0.25
1757332010.330428,-0.013,-0.174,9.716,0.1356434388387437,1.028836667780671,2.2285213032581455,0,0.25
1757332010.3562186,-0.013,-0.174,9.716,0.1356434388387437,1.028836667780671,2.2285213032581455,0,0.25
1757332010.3839362,-0.013,-0.174,9.716,0.1356434388387437,1.028836667780671,2.2285213032581455,0,0.25
1757332010.4113948,0.141,-0.219,9.87,0.1358117999291667,1.5116596329077037,2.229824561403509,0,0.25
1757332010.438773,-0.121,-0.492,9.962,0.13587526448916298,2.911516253750263,2.2397493734335843,0,0.25
1757332010.4655633,-0.121,-0.492,9.962,0.13587526448916298,2.911516253750263,2.2397493734335843,0,0.25
1757332010.4929674,-0.025,-0.432,9.927,0.13587571526950648,2.4959709028647636,2.2441604010025062,0,0.25
1757332010.5205574,-0.025,-0.432,9.927,0.13587571526950648,2.4959709028647636,2.2441604010025062,0,0.25
1757332010.54823,-0.086,0.046,9.622,0.13593432237665365,0.5807354373142098,2.243809523809524,0,0.25
1757332010.5761702,-0.086,0.046,9.622,0.13593432237665365,0.5807354373142098,2.243809523809524,0,0.25
1757332010.6030703,0.123,-0.174,9.719,0.13606146588950158,1.255981719813138,2.2523809523809524,0,0.25
1757332010.631044,0.123,-0.174,9.719,0.13606146588950158,1.255981719813138,2.2523809523809524,0,0.25
1757332010.6591399,0.208,0.094,9.811,0.13645831781170395,1.3327536492808922,2.2529323308270675,0,0.25
1757332010.6867979,0.208,0.094,9.811,0.13645831781170395,1.3327536492808922,2.2529323308270675,0,0.25
1757332010.714331,0.115,-0.319,9.688,0.13652653588222327,2.0046276951666537,2.2569423558897244,0,0.30000000000000004
1757332010.7398965,0.115,-0.319,9.688,0.13652653588222327,2.0046276951666537,2.2569423558897244,0,0.30000000000000004
1757332010.7662966,0.078,-0.39,9.843,0.13654589887653162,2.3138768063347857,2.2577443609022554,0,0.30000000000000004
1757332010.7939527,0.078,-0.39,9.843,0.13654589887653162,2.3138768063347857,2.2577443609022554,0,0.30000000000000004
1757332010.821753,0.027,-0.209,9.83,0.13653642371177005,1.2281261577358022,2.2542355889724313,0,0.30000000000000004
1757332010.8476198,0.027,-0.209,9.83,0.13653642371177005,1.2281261577358022,2.2542355889724313,0,0.30000000000000004
1757332010.8736987,0.134,-0.139,9.671,0.1364575483437981,1.143705047714016,2.2466165413533834,0,0.25
1757332010.9004035,0.134,-0.139,9.671,0.1364575483437981,1.143705047714016,2.2466165413533834,0,0.25
1757332010.9273045,0.104,-0.124,9.925,0.1364722041296322,0.934195907528267,2.2453132832080196,0,0.30000000000000004
1757332010.9545426,0.104,-0.124,9.925,0.1364722041296322,0.934195907528267,2.2453132832080196,0,0.30000000000000004
1757332010.98226,0.049,-0.312,9.78,0.13647954059125492,1.8496026886961068,2.241052631578947,0,0.30000000000000004
1757332011.0099132,0.049,-0.312,9.78,0.13647954059125492,1.8496026886961068,2.241052631578947,0,0.30000000000000004
1757332011.0377676,0.014,-0.016,9.773,0.1363897173543519,0.12464167193342367,2.233934837092732,0,0.30000000000000004
1757332011.0652869,0.014,-0.016,9.773,0.1363897173543519,0.12464167193342367,2.233934837092732,0,0.30000000000000004
1757332011.0930848,0.259,-0.156,9.882,0.1369490233627097,1.7524910201756085,2.245814536340852,0,0.30000000000000004
1757332011.1207473,0.259,-0.156,9.882,0.1369490233627097,1.7524910201756085,2.245814536340852,0,0.30000000000000004
1757332011.1483371,0.104,-0.285,9.932,0.13700427913025198,1.7496112663601049,2.2505764411027567,0,0.30000000000000004
1757332011.1766245,0.104,-0.285,9.932,0.13700427913025198,1.7496112663601049,2.2505764411027567,0,0.30000000000000004
1757332011.2041698,-0.128,-0.19,9.835,0.13700193429291427,1.334391297360083,2.261152882205513,0,0.30000000000000004
1757332011.2317853,-0.128,-0.19,9.835,0.13700193429291427,1.334391297360083,2.261152882205513,0,0.30000000000000004
1757332011.2592,0.206,0.254,9.99,0.13728240965251157,1.8749795369919418,2.2757894736842106,0,0.30000000000000004
1757332011.2864833,0.206,0.254,9.99,0.13728240965251157,1.8749795369919418,2.2757894736842106,0,0.30000000000000004
1757332011.3141387,0.387,-0.158,9.928,0.13860011724381766,2.410970482790015,2.2814035087719295,0,0.30000000000000004
1757332011.341077,0.387,-0.158,9.928,0.13860011724381766,2.410970482790015,2.2814035087719295,0,0.30000000000000004
1757332011.368361,0.174,0.064,9.631,0.13887281951483524,1.1028082725350177,2.2888220551378446,0,0.30000000000000004
1757332011.3960798,0.174,0.064,9.631,0.13887281951483524,1.1028082725350177,2.2888220551378446,0,0.30000000000000004
1757332011.423896,0.285,-0.467,9.865,0.1395675911521009,3.174273977132396,2.2873684210526317,0,0.30000000000000004
1757332011.451584,0.285,-0.467,9.865,0.1395675911521009,3.174273977132396,2.2873684210526317,0,0.30000000000000004
1757332011.4808843,0.208,-0.136,9.811,0.13990018763389847,1.4510091181606026,2.2862656641604007,0,0.30000000000000004
1757332011.509302,0.208,-0.136,9.811,0.13990018763389847,1.4510091181606026,2.2862656641604007,0,0.30000000000000004
1757332011.5377173,0.175,-0.332,9.601,0.1401696204603551,2.238525230195329,2.2863157894736843,0,0.30000000000000004
1757332011.5657759,0.08,-0.3,9.837,0.14020164050395417,1.8078164078527188,2.2894235588972434,0,0.30000000000000004
1757332011.5941198,0.08,-0.3,9.837,0.14020164050395417,1.8078164078527188,2.2894235588972434,0,0.30000000000000004
1757332011.621525,0.08,-0.3,9.837,0.14020164050395417,1.8078164078527188,2.2894235588972434,0,0.30000000000000004
1757332011.6487026,-0.07,-0.254,9.912,0.14017938507498168,1.5226107102928987,2.295187969924812,0,0.30000000000000004
1757332011.6765132,-0.06,-0.193,9.595,0.1401882930204944,1.2067134346610555,2.294285714285714,0,0.30000000000000004
1757332011.704259,-0.06,-0.193,9.595,0.1401882930204944,1.2067134346610555,2.294285714285714,0,0.30000000000000004
1757332011.732477,0.047,-0.084,9.835,0.1401523367625385,0.5607342892446079,2.2979949874686714,0,0.30000000000000004
1757332011.760292,0.047,-0.084,9.835,0.1401523367625385,0.5607342892446079,2.2979949874686714,0,0.30000000000000004
1757332011.7884135,0.205,-0.37,9.819,0.14041502768578581,2.4667347006049876,2.2996491228070175,0,0.30000000000000004
1757332011.8171387,0.205,-0.37,9.819,0.14041502768578581,2.4667347006049876,2.2996491228070175,0,0.30000000000000004
1757332011.8457227,0.109,-0.155,9.692,0.1405192513501264,1.120050009207577,2.3016541353383455,0,0.30000000000000004
1757332011.873184,0.109,-0.155,9.692,0.1405192513501264,1.120050009207577,2.3016541353383455,0,0.30000000000000004
1757332011.8999903,0.035,-0.375,9.755,0.14051370039964076,2.2110286737172373,2.288922305764411,0,0.30000000000000004
1757332011.9275975,0.035,-0.375,9.755,0.14051370039964076,2.2110286737172373,2.288922305764411,0,0.30000000000000004
1757332011.9552279,0.042,-0.339,9.968,0.13929970387621074,1.962692214258354,2.281904761904762,0,0.30000000000000004
1757332011.9825993,0.042,-0.339,9.968,0.13929970387621074,1.962692214258354,2.281904761904762,0,0.30000000000000004
1757332012.010101,0.042,-0.339,9.968,0.13929970387621074,1.962692214258354,2.281904761904762,0,0.30000000000000004
1757332012.0374756,0.026,-0.446,9.648,0.13687690637941816,2.651226204290796,2.2681704260651627,0,0.30000000000000004
1757332012.0645416,-0.018,-0.329,9.797,0.1364043162806808,1.9262416912852263,2.268972431077694,0,0.30000000000000004
1757332012.0931158,-0.018,-0.329,9.797,0.1364043162806808,1.9262416912852263,2.268972431077694,0,0.30000000000000004
1757332012.1210835,0.02,-0.61,9.964,0.1360409405289452,3.5051756052971665,2.258295739348371,0,0.30000000000000004
1757332012.1496935,0.02,-0.61,9.964,0.1360409405289452,3.5051756052971665,2.258295739348371,0,0.30000000000000004
1757332012.1771255,-0.196,-0.314,9.893,0.13636962638359026,2.1427494397587936,2.2664661654135334,0,0.30000000000000004
1757332012.2033446,-0.196,-0.314,9.893,0.13636962638359026,2.1427494397587936,2.2664661654135334,0,0.30000000000000004
1757332012.230874,0.389,-0.494,9.794,0.13774965517198218,3.673344369994303,2.2871679197994985,0,0.30000000000000004
1757332012.2585118,0.389,-0.494,9.794,0.13774965517198218,3.673344369994303,2.2871679197994985,0,0.30000000000000004
1757332012.2858808,0.405,-0.309,9.874,0.13895805122410146,2.9533732206741736,2.2840601503759395,0,4.6000000000000005
1757332012.3138154,0.405,-0.309,9.874,0.13895805122410146,2.9533732206741736,2.2840601503759395,0,4.6000000000000005
1757332012.3416204,0.269,-0.404,9.761,0.13952491712952206,2.8466705499019342,2.2885714285714283,0,4.6000000000000005
1757332012.3692243,0.269,-0.404,9.761,0.13952491712952206,2.8466705499019342,2.2885714285714283,0,4.6000000000000005
1757332012.396987,0.408,-0.145,9.773,0.14098621386504429,2.536872836419406,2.295538847117794,0,4.6000000000000005
1757332012.4247143,0.408,-0.145,9.773,0.14098621386504429,2.536872836419406,2.295538847117794,0,4.6000000000000005
1757332012.452499,-0.338,-0.055,9.9,0.14197349224415098,1.9810978527839036,2.331829573934837,0,4.6000000000000005
1757332012.4805844,-0.338,-0.055,9.9,0.14197349224415098,1.9810978527839036,2.331829573934837,0,4.6000000000000005
1757332012.5083795,-0.203,-0.035,9.469,0.14229031941773132,1.246255257880704,2.335438596491228,0,4.6000000000000005
1757332012.5368543,-0.203,-0.035,9.469,0.14229031941773132,1.246255257880704,2.335438596491228,0,4.6000000000000005
1757332012.5644495,-0.073,0.037,9.502,0.1421769847760178,0.4934798668931462,2.340952380952381,0,4.6000000000000005
1757332012.5912576,-0.073,0.037,9.502,0.1421769847760178,0.4934798668931462,2.340952380952381,0,4.6000000000000005
1757332012.618898,0.011,-0.106,9.61,0.14206172954036567,0.6353503245811187,2.343659147869674,0,4.6000000000000005
1757332012.6465878,0.011,-0.106,9.61,0.14206172954036567,0.6353503245811187,2.343659147869674,0,4.6000000000000005
1757332012.6740227,0.346,-0.137,9.629,0.1429274728664857,2.213230922698611,2.3588471177944865,0,4.6000000000000005
1757332012.7013884,0.454,-0.297,9.814,0.14460854054999658,3.1640865684682846,2.3632581453634085,0,4.6000000000000005
1757332012.728942,0.454,-0.297,9.814,0.14460854054999658,3.1640865684682846,2.3632581453634085,0,4.6000000000000005
1757332012.7566206,0.454,-0.297,9.814,0.14460854054999658,3.1640865684682846,2.3632581453634085,0,4.6000000000000005
1757332012.7844887,0.455,-0.145,9.883,0.14631325982288823,2.7663760607706553,2.360451127819549,0,4.6000000000000005
1757332012.8123245,0.541,-0.194,9.761,0.14878182852754568,3.3697109446414535,2.35749373433584,0,4.6000000000000005
1757332012.8397548,0.541,-0.194,9.761,0.14878182852754568,3.3697109446414535,2.35749373433584,0,4.6000000000000005
1757332012.867363,-0.266,-0.291,10.055,0.14927565106205365,2.2454084115919053,2.396892230576441,0,4.6000000000000005
1757332012.8953567,-0.266,-0.291,10.055,0.14927565106205365,2.2454084115919053,2.396892230576441,0,4.6000000000000005
1757332012.9230084,-0.065,-0.085,9.859,0.14924618085565874,0.6218354213189744,2.3948370927318297,0,4.6000000000000005
1757332012.9508927,-0.065,-0.085,9.859,0.14924618085565874,0.6218354213189744,2.3948370927318297,0,4.6000000000000005
1757332012.979005,0.152,-0.035,9.805,0.14924105500833207,0.9113821805768288,2.4021052631578947,0,4.6000000000000005
1757332013.0066514,0.152,-0.035,9.805,0.14924105500833207,0.9113821805768288,2.4021052631578947,0,4.6000000000000005
1757332013.0344214,-0.206,-0.04,9.945,0.14953986926569116,1.2088080213326273,2.4189974937343357,0,4.6000000000000005
1757332013.0624995,-0.206,-0.04,9.945,0.14953986926569116,1.2088080213326273,2.4189974937343357,0,4.6000000000000005
1757332013.0898056,-0.384,-0.242,10.149,0.15073655827303475,2.560735784009208,2.4213032581453633,0,4.6000000000000005
1757332013.1176875,-0.384,-0.242,10.149,0.15073655827303475,2.560735784009208,2.4213032581453633,0,4.6000000000000005
1757332013.145614,-0.191,-0.164,10.092,0.15099705295137386,1.428963616689683,2.420050125313283,0,4.6000000000000005
1757332013.173104,-0.191,-0.164,10.092,0.15099705295137386,1.428963616689683,2.420050125313283,0,4.6000000000000005
1757332013.1995122,-0.207,-0.412,10.024,0.15065998141510573,2.633601416894547,2.4185463659147866,0,4.6000000000000005
1757332013.2271326,-0.207,-0.412,10.024,0.15065998141510573,2.633601416894547,2.4185463659147866,0,4.6000000000000005
1757332013.253708,-0.071,-0.306,10.089,0.1502112179565827,1.7833730428333017,2.4044110275689223,0,4.6000000000000005
1757332013.281066,-0.071,-0.306,10.089,0.1502112179565827,1.7833730428333017,2.4044110275689223,0,4.6000000000000005
1757332013.3091056,0.162,-0.138,10.23,0.15017475653384627,1.1917246846638296,2.40952380952381,0,4.6000000000000005
1757332013.3369498,0.162,-0.138,10.23,0.15017475653384627,1.1917246846638296,2.40952380952381,0,4.6000000000000005
1757332013.3636167,0.69,-0.151,9.908,0.1540709820180296,4.077647963017914,2.435889724310777,0,4.6000000000000005
1757332013.3920932,0.69,-0.151,9.908,0.1540709820180296,4.077647963017914,2.435889724310777,0,4.6000000000000005
1757332013.419845,0.393,0.055,9.86,0.1553047970926848,2.3047075516325197,2.450325814536341,0,1.55
1757332013.4481802,0.393,0.055,9.86,0.1553047970926848,2.3047075516325197,2.450325814536341,0,1.55
1757332013.4752593,0.216,-0.165,10.001,0.1556589782184118,1.556821030143612,2.456390977443609,0,1.55
1757332013.5015562,0.216,-0.165,10.001,0.1556589782184118,1.556821030143612,2.456390977443609,0,1.55
1757332013.5292695,0.233,-0.039,9.92,0.1560941302547921,1.3642215011735137,2.4571929824561405,0,1.55
1757332013.5560014,0.233,-0.039,9.92,0.1560941302547921,1.3642215011735137,2.4571929824561405,0,1.55
1757332013.5840437,0.25,-0.005,9.859,0.15659354233173217,1.4528591745014598,2.4571428571428573,0,1.55
