timestamp,ax,ay,az,rms,tilt_now,jerk,tilt_crosses,freq
1757328207.980616,-0.53,-0.032,9.748,0.026500000000000003,3.1177708089244587,0.02656641604010025,0,0.8500000000000001
1757328208.0075262,-0.53,-0.027,9.742,0.03747665940288702,3.118057824871011,0.02656641604010025,0,0.05
1757328208.0353887,-0.525,-0.027,9.743,0.04575546415456847,3.088459357839216,0.026817042606516288,0,0.05
1757328208.0640798,-0.509,-0.037,9.727,0.052357091210264925,3.003363308806479,0.02761904761904762,0,0.05
1757328208.0926874,-0.488,-0.038,9.718,0.05776352655439243,2.8834432697202756,0.028671679197994987,0,0.05
1757328208.1188536,-0.494,-0.032,9.727,0.06282288595726879,2.9134354316686952,0.028972431077694233,0,0.05
1757328208.1442835,-0.498,-0.028,9.729,0.06757754804667006,2.9348713916435294,0.029172932330827066,0,0.05
1757328208.1701415,-0.527,-0.023,9.73,0.07253307866070487,3.1031922141322528,0.0306265664160401,0,0.05
1757328208.1973355,-0.554,-0.029,9.728,0.07764236923226905,3.263870478709483,0.03197994987468672,0,0.05
1757328208.2230935,-0.549,-0.035,9.751,0.08235192772485657,3.2289883120084326,0.032230576441102755,0,0.05
1757328208.248833,-0.544,-0.032,9.759,0.08672761959145425,3.1960643291032964,0.03248120300751879,0,0.05
1757328208.2739937,-0.514,-0.028,9.771,0.09045534810059604,3.0157050297662114,0.03398496240601504,0,0.05
1757328208.298971,-0.492,-0.029,9.765,0.09374075954460792,2.8893506378097786,0.035087719298245626,0,0.05
1757328208.324008,-0.496,-0.033,9.774,0.09696581871979425,2.9115015663972215,0.03528822055137845,0,0.05
1757328208.3490722,-0.521,-0.03,9.771,0.10040404623320716,3.057227039509457,0.03654135338345865,0,0.05
1757328208.3740416,-0.555,-0.011,9.766,0.10416830132050729,3.253247562545866,0.038245614035087735,0,0.05
1757328208.3991654,-0.552,-0.012,9.761,0.10776267906840475,3.2374826310852196,0.03839598997493736,0,0.05
1757328208.424378,-0.552,-0.012,9.761,0.10776267906840475,3.2374826310852196,0.03839598997493736,0,0.05
1757328208.4492025,-0.55,-0.013,9.768,0.1112162083511212,3.2236090295537094,0.03849624060150378,0,0.05
1757328208.473935,-0.55,-0.013,9.768,0.1112162083511212,3.2236090295537094,0.03849624060150378,0,0.05
1757328208.4991016,-0.55,-0.013,9.768,0.1112162083511212,3.2236090295537094,0.03849624060150378,0,0.05
1757328208.524567,-0.53,-0.029,9.763,0.11432976427859896,3.111981538251121,0.039498746867167936,0,0.05
1757328208.5497766,-0.53,-0.029,9.763,0.11432976427859896,3.111981538251121,0.039498746867167936,0,0.05
1757328208.5749502,-0.516,-0.032,9.742,0.11720467140860896,3.0377395962608715,0.04020050125313285,0,0.05
1757328208.6001623,-0.516,-0.032,9.742,0.11720467140860896,3.0377395962608715,0.04020050125313285,0,0.05
1757328208.6254814,-0.511,-0.036,9.755,0.11995723196206222,3.006025143774607,0.040451127819548884,0,0.05
1757328208.6504638,-0.511,-0.036,9.755,0.11995723196206222,3.006025143774607,0.040451127819548884,0,0.05
1757328208.6753721,-0.525,-0.04,9.748,0.12279576539930032,3.0917295639243934,0.04115288220551381,0,0.05
1757328208.7005208,-0.525,-0.04,9.748,0.12279576539930032,3.0917295639243934,0.04115288220551381,0,0.05
1757328208.725251,-0.549,-0.031,9.725,0.12582647773819308,3.236193253388553,0.04235588972431079,0,0.05
1757328208.750536,-0.549,-0.031,9.725,0.12582647773819308,3.236193253388553,0.04235588972431079,0,0.05
1757328208.7755077,-0.553,-0.024,9.734,0.12882866528843648,3.2545997356228953,0.04255639097744364,0,0.05
1757328208.800742,-0.553,-0.024,9.734,0.12882866528843648,3.2545997356228953,0.04255639097744364,0,0.05
1757328208.8256624,-0.553,-0.024,9.734,0.12882866528843648,3.2545997356228953,0.04255639097744364,0,0.05
1757328208.8505487,-0.541,-0.027,9.734,0.13163786499332175,3.185085247130333,0.04315789473684214,0,0.05
1757328208.8755243,-0.541,-0.027,9.734,0.13163786499332175,3.185085247130333,0.04315789473684214,0,0.05
1757328208.9005058,-0.532,-0.042,9.73,0.13429850148084305,3.1393210401379505,0.04360902255639101,0,0.05
1757328208.9253678,-0.532,-0.042,9.73,0.13429850148084305,3.1393210401379505,0.04360902255639101,0,0.05
1757328208.9510202,-0.505,-0.045,9.728,0.13665156420619562,2.983424957931001,0.04496240601503763,0,0.05
1757328208.9761477,-0.505,-0.045,9.728,0.13665156420619562,2.983424957931001,0.04496240601503763,0,0.05
1757328209.0010004,-0.505,-0.043,9.729,0.1389647887056286,2.9820992698103406,0.04496240601503763,0,0.05
1757328209.0259838,-0.505,-0.043,9.729,0.1389647887056286,2.9820992698103406,0.04496240601503763,0,0.05
1757328209.0511184,-0.508,-0.04,9.733,0.14126702552258966,2.9969910235715163,0.04511278195488723,0,0.05
1757328209.0766618,-0.508,-0.04,9.733,0.14126702552258966,2.9969910235715163,0.04511278195488723,0,0.05
1757328209.1030338,-0.535,-0.033,9.74,0.14377738000116708,3.1499540053123587,0.04646616541353384,0,0.05
1757328209.1285007,-0.535,-0.033,9.74,0.14377738000116708,3.1499540053123587,0.04646616541353384,0,0.05
1757328209.1605804,-0.551,-0.016,9.736,0.14639309239168358,3.240509332675573,0.04726817042606517,0,0.05
1757328209.1884015,-0.551,-0.016,9.736,0.14639309239168358,3.240509332675573,0.04726817042606517,0,0.05
1757328209.221665,-0.536,-0.013,9.736,0.14882599739292862,3.1520718467602653,0.04802005012531329,0,0.05
1757328209.247423,-0.536,-0.013,9.736,0.14882599739292862,3.1520718467602653,0.04802005012531329,0,0.05
1757328209.2765627,-0.529,-0.011,9.759,0.151158129123114,3.103429244564155,0.04837092731829575,0,0.05
1757328209.3051856,-0.529,-0.011,9.759,0.151158129123114,3.103429244564155,0.04837092731829575,0,0.05
1757328209.3319035,-0.504,-0.016,9.766,0.15324431473956873,2.9557634854545802,0.04962406015037596,0,0.05
1757328209.3571856,-0.504,-0.016,9.766,0.15324431473956873,2.9557634854545802,0.04962406015037596,0,0.05
1757328209.3823867,-0.499,-0.02,9.76,0.15526210902857143,2.929161516837759,0.049874686716791995,0,0.05
1757328209.4079225,-0.499,-0.02,9.76,0.15526210902857143,2.929161516837759,0.049874686716791995,0,0.05
1757328209.432991,-0.499,-0.028,9.766,0.15725401425718835,2.9296138665884888,0.049874686716792,0,0.05
1757328209.4581943,-0.499,-0.028,9.766,0.15725401425718835,2.9296138665884888,0.049874686716792,0,0.05
1757328209.483625,-0.496,-0.027,9.766,0.15919756593616624,2.911762775201717,0.050025062656641625,0,0.05
1757328209.5088396,-0.496,-0.027,9.766,0.15919756593616624,2.911762775201717,0.050025062656641625,0,0.05
1757328209.5339065,-0.539,-0.027,9.763,0.16146258854607776,3.1639568241745155,0.05218045112781957,0,0.05
1757328209.5590475,-0.539,-0.027,9.763,0.16146258854607776,3.1639568241745155,0.05218045112781957,0,0.05
1757328209.5841818,-0.539,-0.027,9.763,0.16146258854607776,3.1639568241745155,0.05218045112781957,0,0.05
1757328209.609594,-0.551,-0.033,9.749,0.16379612327524729,3.240620813648681,0.05278195488721807,0,0.05
1757328209.6351142,-0.551,-0.033,9.749,0.16379612327524729,3.240620813648681,0.05278195488721807,0,0.05
1757328209.660335,-0.555,-0.041,9.74,0.16613016733874675,3.270141545716327,0.052982456140350895,0,0.05
1757328209.6853433,-0.555,-0.041,9.74,0.16613016733874675,3.270141545716327,0.052982456140350895,0,0.05
1757328209.7126377,-0.539,-0.045,9.731,0.1683019162101252,3.181380376812708,0.053784461152882226,0,0.05
1757328209.7376199,-0.539,-0.045,9.731,0.1683019162101252,3.181380376812708,0.053784461152882226,0,0.05
1757328209.7624204,-0.519,-0.04,9.738,0.17029074402327332,3.059800556589295,0.054786967418546384,0,0.05
1757328209.7874155,-0.519,-0.04,9.738,0.17029074402327332,3.059800556589295,0.054786967418546384,0,0.05
1757328209.812376,-0.497,-0.037,9.749,0.17209433459588377,2.9264508564387923,0.05588972431077695,0,0.05
1757328209.837661,-0.497,-0.037,9.749,0.17209433459588377,2.9264508564387923,0.05588972431077695,0,0.05
1757328209.862886,-0.506,-0.036,9.756,0.17394410021613266,2.9765062790867285,0.05634085213032583,0,0.05
1757328209.8878257,-0.506,-0.036,9.756,0.17394410021613266,2.9765062790867285,0.05634085213032583,0,0.05
1757328209.9126928,-0.526,-0.029,9.752,0.1759211186867569,3.092087882615641,0.05734335839599,0,0.05
1757328209.9376476,-0.526,-0.029,9.752,0.1759211186867569,3.092087882615641,0.05734335839599,0,0.05
1757328209.9625676,-0.537,-0.021,9.748,0.17795831674861393,3.1555408894169266,0.057894736842105284,0,0.05
1757328209.9876633,-0.537,-0.021,9.748,0.17795831674861393,3.1555408894169266,0.057894736842105284,0,0.05
1757328210.0127094,-0.537,-0.021,9.748,0.17795831674861393,3.1555408894169266,0.057894736842105284,0,0.05
1757328210.0378268,-0.549,-0.027,9.74,0.18006294732676126,3.2299826944982515,0.05849624060150379,0,0.05
1757328210.0629244,-0.549,-0.027,9.74,0.18006294732676126,3.2299826944982515,0.05849624060150379,0,0.05
1757328210.087932,-0.541,-0.031,9.752,0.18208340808541562,3.1804724466337655,0.05889724310776947,0,0.05
1757328210.1130004,-0.541,-0.031,9.752,0.18208340808541562,3.1804724466337655,0.05889724310776947,0,0.05
1757328210.1392386,-0.515,-0.044,9.744,0.18389516034958614,3.0364423423839138,0.06020050125313286,0,0.05
1757328210.1644707,-0.515,-0.044,9.744,0.18389516034958614,3.0364423423839138,0.06020050125313286,0,0.05
1757328210.189964,-0.501,-0.035,9.744,0.1855934602834917,2.950503626469944,0.06090225563909777,0,0.05
1757328210.2165692,-0.501,-0.035,9.744,0.1855934602834917,2.950503626469944,0.06090225563909777,0,0.05
1757328210.241863,-0.512,-0.03,9.736,0.18735072057507546,3.0154700760260935,0.06145363408521306,0,0.05
1757328210.2670536,-0.512,-0.03,9.736,0.18735072057507546,3.0154700760260935,0.06145363408521306,0,0.05
1757328210.2921655,-0.512,-0.03,9.736,0.18735072057507546,3.0154700760260935,0.06145363408521306,0,0.05
1757328210.319353,-0.523,-0.015,9.74,0.18916689720984484,3.0748695392260883,0.06200501253132834,0,0.05
1757328210.3442085,-0.538,-0.017,9.737,0.19106994792483722,3.1641322942179935,0.06275689223057647,0,0.05
1757328210.3691745,-0.538,-0.017,9.737,0.19106994792483722,3.1641322942179935,0.06275689223057647,0,0.05
1757328210.394128,-0.534,-0.019,9.741,0.19292644971594747,3.1397859504290517,0.06295739348370931,0,0.05
1757328210.418912,-0.534,-0.019,9.741,0.19292644971594747,3.1397859504290517,0.06295739348370931,0,0.05
1757328210.4441211,-0.534,-0.019,9.741,0.19292644971594747,3.1397859504290517,0.06295739348370931,0,0.05
1757328210.4699306,-0.517,-0.032,9.734,0.19465055227252762,3.04608984330285,0.06380952380952384,0,0.05
1757328210.494821,-0.517,-0.032,9.734,0.19465055227252762,3.04608984330285,0.06380952380952384,0,0.05
1757328210.5204608,-0.508,-0.037,9.752,0.1963007832383763,2.989834178193864,0.06426065162907271,0,0.05
1757328210.5458684,-0.508,-0.037,9.752,0.1963007832383763,2.989834178193864,0.06426065162907271,0,0.05
1757328210.5707247,-0.493,-0.03,9.756,0.19784241203543793,2.8982092298307154,0.06501253132832083,0,0.05
1757328210.5958164,-0.493,-0.03,9.756,0.19784241203543793,2.8982092298307154,0.06501253132832083,0,0.05
1757328210.6208007,-0.489,-0.032,9.758,0.19934749183272912,2.874973783386426,0.06521303258145365,0,0.05
1757328210.6457179,-0.489,-0.032,9.758,0.19934749183272912,2.874973783386426,0.06521303258145365,0,0.05
1757328210.6706543,-0.506,-0.035,9.761,0.20094654139845253,2.974574623015846,0.0660651629072682,0,0.05
1757328210.6955755,-0.506,-0.035,9.761,0.20094654139845253,2.974574623015846,0.0660651629072682,0,0.05
1757328210.7206075,-0.528,-0.028,9.775,0.20267331472100614,3.096182632372762,0.06716791979949878,0,0.05
1757328210.745564,-0.528,-0.028,9.775,0.20267331472100614,3.096182632372762,0.06716791979949878,0,0.05
1757328210.7703373,-0.528,-0.028,9.775,0.20267331472100614,3.096182632372762,0.06716791979949878,0,0.05
1757328210.7952738,-0.531,-0.024,9.765,0.2044049290012352,3.115728894751987,0.0673182957393484,0,0.05
1757328210.8200922,-0.531,-0.024,9.765,0.2044049290012352,3.115728894751987,0.0673182957393484,0,0.05
1757328210.8448424,-0.533,-0.028,9.745,0.20613490121762498,3.1349652859069157,0.06741854636591482,0,0.05
1757328210.8700438,-0.533,-0.028,9.745,0.20613490121762498,3.1349652859069157,0.06741854636591482,0,0.05
1757328210.8949597,-0.531,-0.04,9.725,0.20783767704629494,3.1341717686705644,0.06751879699248123,0,0.05
1757328210.9200187,-0.531,-0.04,9.725,0.20783767704629494,3.1341717686705644,0.06751879699248123,0,0.05
1757328210.945042,-0.509,-0.048,9.739,0.20939007259180176,3.0050390919554517,0.06862155388471182,0,0.05
1757328210.970083,-0.509,-0.048,9.739,0.20939007259180176,3.0050390919554517,0.06862155388471182,0,0.05
1757328210.995295,-0.506,-0.04,9.748,0.2109129974657797,2.980700546156644,0.06877192982456144,0,0.05
1757328211.020894,-0.506,-0.04,9.748,0.2109129974657797,2.980700546156644,0.06877192982456144,0,0.05
1757328211.0458722,-0.517,-0.032,9.755,0.21249121158297346,3.039544706623791,0.06932330827067672,0,0.05
1757328211.0719008,-0.517,-0.032,9.755,0.21249121158297346,3.039544706623791,0.06932330827067672,0,0.05
1757328211.098682,-0.537,-0.028,9.72,0.2141808523187822,3.166487293577312,0.07032581453634087,0,0.05
1757328211.1261914,-0.537,-0.028,9.72,0.2141808523187822,3.166487293577312,0.07032581453634087,0,0.05
1757328211.1533315,-0.557,-0.024,9.724,0.21598393458773732,3.2814097112648155,0.07132832080200505,0,0.05
1757328211.1806073,-0.557,-0.024,9.724,0.21598393458773732,3.2814097112648155,0.07132832080200505,0,0.05
1757328211.2078183,-0.557,-0.024,9.724,0.21598393458773732,3.2814097112648155,0.07132832080200505,0,0.05
1757328211.234515,-0.547,-0.011,9.707,0.2177087102070103,3.2259191513440024,0.07182957393483713,0,0.05
1757328211.2609391,-0.53,-0.026,9.714,0.21931560022032176,3.1267339523503814,0.07268170426065167,0,0.05
1757328211.2876072,-0.53,-0.026,9.714,0.21931560022032176,3.1267339523503814,0.07268170426065167,0,0.05
1757328211.314412,-0.509,-0.027,9.727,0.22078730715328726,2.9996777261069707,0.07373433583959904,0,0.05
1757328211.3409684,-0.509,-0.027,9.727,0.22078730715328726,2.9996777261069707,0.07373433583959904,0,0.05
1757328211.3679774,-0.489,-0.03,9.695,0.22213697913674796,2.8928783796643014,0.0747368421052632,0,0.05
1757328211.3947093,-0.489,-0.03,9.695,0.22213697913674796,2.8928783796643014,0.0747368421052632,0,0.05
1757328211.4214997,-0.55,-0.061,9.645,0.22383272213865427,3.2836890925558038,0.07779448621553889,0,0.05
1757328211.448298,-0.55,-0.061,9.645,0.22383272213865427,3.2836890925558038,0.07779448621553889,0,0.05
1757328211.4751353,-0.453,0.065,9.687,0.22497579869843778,2.7047936763094467,0.08265664160401007,0,0.05
1757328211.5019574,-0.453,0.065,9.687,0.22497579869843778,2.7047936763094467,0.08265664160401007,0,0.05
1757328211.5285928,-0.453,0.065,9.687,0.22497579869843778,2.7047936763094467,0.08265664160401007,0,0.05
1757328211.555625,-0.356,0.104,9.588,0.2256788647614127,2.2151931223037336,0.08751879699248126,0,0.05
1757328211.5829303,-0.356,0.104,9.588,0.2256788647614127,2.2151931223037336,0.08751879699248126,0,0.05
1757328211.609577,-0.308,0.13,9.658,0.2262036913933988,1.9824992567137427,0.08992481203007525,0,0.05
1757328211.6364474,-0.308,0.13,9.658,0.2262036913933988,1.9824992567137427,0.08992481203007525,0,0.05
1757328211.6612291,-0.615,0.091,9.647,0.22828419240061282,3.6872987943872184,0.1053132832080201,0,0.05
1757328211.687824,-0.615,0.091,9.647,0.22828419240061282,3.6872987943872184,0.1053132832080201,0,0.05
1757328211.714526,-0.709,-0.189,9.658,0.23102029131658544,4.34465456479509,0.11002506265664165,0,0.05
1757328211.7413876,-0.709,-0.189,9.658,0.23102029131658544,4.34465456479509,0.11002506265664165,0,0.05
1757328211.7679458,-0.359,-0.054,9.652,0.23171658874582113,2.1540382212381997,0.12756892230576447,0,0.05
1757328211.7948751,-0.359,-0.054,9.652,0.23171658874582113,2.1540382212381997,0.12756892230576447,0,0.05
1757328211.8217545,-0.21,0.225,9.843,0.23195436512383208,1.7909603714242726,0.13503759398496246,0,0.05
1757328211.848932,-0.21,0.225,9.843,0.23195436512383208,1.7909603714242726,0.13503759398496246,0,0.05
1757328211.8757231,-0.288,-0.019,9.722,0.2324009197486103,1.700493620136432,0.13894736842105268,0,0.05
1757328211.9026053,-0.288,-0.019,9.722,0.2324009197486103,1.700493620136432,0.13894736842105268,0,0.05
1757328211.9294047,-0.528,-0.123,9.882,0.23389559102300325,3.1401619242625993,0.15097744360902263,0,0.05
1757328211.9561887,-0.528,-0.123,9.882,0.23389559102300325,3.1401619242625993,0.15097744360902263,0,0.05
1757328211.9827995,-0.591,0.054,9.831,0.23575485148772654,3.4545466057738445,0.1541353383458647,0,0.05
1757328212.0105834,-0.591,0.054,9.831,0.23575485148772654,3.4545466057738445,0.1541353383458647,0,0.05
1757328212.0372758,-0.622,-0.139,9.819,0.2377973086475118,3.7138058345477853,0.15568922305764415,0,0.05
1757328212.0646443,-0.622,-0.139,9.819,0.2377973086475118,3.7138058345477853,0.15568922305764415,0,0.05
1757328212.091999,-0.626,-0.242,9.875,0.2398483896131054,3.8880930167476166,0.155889724310777,0,0.05
1757328212.1190014,-0.626,-0.242,9.875,0.2398483896131054,3.8880930167476166,0.155889724310777,0,0.05
1757328212.1456969,-0.363,-0.227,9.901,0.2405341399884848,2.4760075810828495,0.1690726817042607,0,0.05
1757328212.1729963,-0.363,-0.227,9.901,0.2405341399884848,2.4760075810828495,0.1690726817042607,0,0.05
1757328212.1998415,-0.507,0.07,9.703,0.24186627503643413,3.019414097327161,0.17629072681704266,0,0.05
1757328212.226853,-0.507,0.07,9.703,0.24186627503643413,3.019414097327161,0.17629072681704266,0,0.05
1757328212.2539425,-0.449,-0.004,9.697,0.2429059437313134,2.651176878179082,0.17919799498746866,0,0.05
1757328212.2808516,-0.449,-0.004,9.697,0.2429059437313134,2.651176878179082,0.17919799498746866,0,0.05
1757328212.308136,-0.482,-0.148,9.662,0.24409856103631583,2.9872634260131457,0.18085213032581451,0,0.05
1757328212.335042,-0.482,-0.148,9.662,0.24409856103631583,2.9872634260131457,0.18085213032581451,0,0.05
1757328212.3618553,-0.737,-0.263,9.715,0.24686439597479423,4.605097614638555,0.19363408521303255,0,0.05
1757328212.3890913,-0.737,-0.263,9.715,0.24686439597479423,4.605097614638555,0.19363408521303255,0,0.05
1757328212.4157157,-0.604,-0.317,9.875,0.24870478483535455,3.9515279019677885,0.20030075187969926,0,0.05
1757328212.4426975,-0.604,-0.317,9.875,0.24870478483535455,3.9515279019677885,0.20030075187969926,0,0.05
1757328212.4697905,-0.417,-0.046,9.674,0.24957722752687195,2.4831732361043763,0.20967418546365915,0,0.05
1757328212.496898,-0.417,-0.046,9.674,0.24957722752687195,2.4831732361043763,0.20967418546365915,0,0.05
1757328212.5219681,-0.36,-0.077,9.577,0.25022548331454975,2.2013823809040414,0.21253132832080196,0,0.05
1757328212.5476816,-0.36,-0.077,9.577,0.25022548331454975,2.2013823809040414,0.21253132832080196,0,0.05
1757328212.5730562,-0.527,-0.042,9.647,0.25160905190394084,3.1367624212951744,0.22090225563909774,0,0.05
1757328212.599027,-0.527,-0.042,9.647,0.25160905190394084,3.1367624212951744,0.22090225563909774,0,0.05
1757328212.6246355,-0.515,0.021,9.556,0.2529232640545349,3.0874067556483675,0.22150375939849623,0,0.05
1757328212.6500561,-0.515,0.021,9.556,0.2529232640545349,3.0874067556483675,0.22150375939849623,0,0.05
1757328212.676557,-0.672,0.053,9.606,0.2551453262358533,4.014066048685337,0.22937343358395992,0,0.05
1757328212.702504,-0.672,0.053,9.606,0.2551453262358533,4.014066048685337,0.22937343358395992,0,0.05
1757328212.7285197,-0.64,-0.081,9.695,0.2571441959290546,3.80685011362511,0.2309774436090226,0,0.05
1757328212.7548928,-0.64,-0.081,9.695,0.2571441959290546,3.80685011362511,0.2309774436090226,0,0.05
1757328212.781856,-0.545,-0.255,9.549,0.2585840288958311,3.605580554156583,0.23573934837092736,0,0.05
1757328212.81021,-0.545,-0.255,9.549,0.2585840288958311,3.605580554156583,0.23573934837092736,0,0.05
1757328212.836856,-0.593,-0.21,9.662,0.2602783558039354,3.7252287589991475,0.23814536340852135,0,0.05
1757328212.8639305,-0.593,-0.21,9.662,0.2602783558039354,3.7252287589991475,0.23814536340852135,0,0.05
1757328212.8902707,-0.674,-0.124,9.747,0.2624509716118422,4.021847864239042,0.2422055137844612,0,0.05
1757328212.9154594,-0.674,-0.124,9.747,0.2624509716118422,4.021847864239042,0.2422055137844612,0,0.05
1757328212.9425037,-0.811,-0.368,9.646,0.2655650861841594,5.274996646223468,0.24907268170426067,0,0.05
1757328212.9697442,-0.811,-0.368,9.646,0.2655650861841594,5.274996646223468,0.24907268170426067,0,0.05
1757328212.9965572,-0.552,-0.298,9.388,0.26699545876287856,3.822796921280089,0.2620551378446116,0,0.05
1757328213.0234845,-0.552,-0.298,9.388,0.26699545876287856,3.822796921280089,0.2620551378446116,0,0.05
1757328213.050164,-0.954,-0.143,9.79,0.27122290648099767,5.6274757523899135,0.28220551378446124,0,0.05
1757328213.0772333,-0.954,-0.143,9.79,0.27122290648099767,5.6274757523899135,0.28220551378446124,0,0.05
1757328213.1040049,-0.593,-0.318,9.645,0.27283875732747354,3.9907778053456053,0.3003007518796993,0,0.05
1757328213.1309402,-0.593,-0.318,9.645,0.27283875732747354,3.9907778053456053,0.3003007518796993,0,0.05
1757328213.157683,-0.622,0.087,9.575,0.274605530716335,3.7528377932237333,0.30175438596491233,0,0.05
1757328213.1847048,-0.622,0.087,9.575,0.274605530716335,3.7528377932237333,0.30175438596491233,0,0.05
1757328213.2114966,-0.368,-0.065,9.771,0.27522128823911857,2.1902360280624698,0.3144862155388471,0,0.05
1757328213.2388058,-0.368,-0.065,9.771,0.27522128823911857,2.1902360280624698,0.3144862155388471,0,0.05
1757328213.2644746,-0.673,-0.095,9.937,0.27727077018683377,3.912828599860146,0.3297744360902255,0,0.05
1757328213.2916012,-0.673,-0.095,9.937,0.27727077018683377,3.912828599860146,0.3297744360902255,0,0.05
1757328213.3184674,-0.65,0.013,9.683,0.2791689989952323,3.841152726014498,0.3309273182957394,0,0.05
1757328213.345454,-0.65,0.013,9.683,0.2791689989952323,3.841152726014498,0.3309273182957394,0,0.05
1757328213.3724954,-0.52,-0.092,9.863,0.28037712103522283,3.0647520932792576,0.33744360902255643,0,0.05
1757328213.3996053,-0.52,-0.092,9.863,0.28037712103522283,3.0647520932792576,0.33744360902255643,0,0.05
1757328213.4265254,-0.567,-0.064,9.894,0.2818067644681369,3.300670161492936,0.3397994987468672,0,0.05
1757328213.4531083,-0.567,-0.064,9.894,0.2818067644681369,3.300670161492936,0.3397994987468672,0,0.05
1757328213.479069,-0.502,-0.052,9.752,0.28292236125834946,2.962531398015727,0.34305764411027573,0,0.05
1757328213.5057948,-0.502,-0.052,9.752,0.28292236125834946,2.962531398015727,0.34305764411027573,0,0.05
1757328213.5328317,-0.561,0.02,9.874,0.28430945288540793,3.2538755258670986,0.34601503759398494,0,0.05
1757328213.5597003,-0.561,0.02,9.874,0.28430945288540793,3.2538755258670986,0.34601503759398494,0,0.05
1757328213.5870106,-0.706,0.282,9.615,0.2864925042649458,4.520845330274736,0.35328320802005014,0,0.05
1757328213.614192,-0.706,0.282,9.615,0.2864925042649458,4.520845330274736,0.35328320802005014,0,0.05
1757328213.6409917,-0.864,0.286,9.576,0.2897312461575382,5.429098340668228,0.361203007518797,0,0.05
1757328213.6669185,-0.864,0.286,9.576,0.2897312461575382,5.429098340668228,0.361203007518797,0,0.05
1757328213.6925304,-0.505,0.052,9.593,0.2908294302507915,3.029318185463302,0.37919799498746876,0,0.05
1757328213.7196996,-0.505,0.052,9.593,0.2908294302507915,3.029318185463302,0.37919799498746876,0,0.05
1757328213.7465167,-0.697,0.077,9.789,0.2929100203134062,4.097415003643593,0.38882205513784474,0,0.05
1757328213.774764,-0.697,0.077,9.789,0.2929100203134062,4.097415003643593,0.38882205513784474,0,0.05
1757328213.801824,-0.766,0.115,9.758,0.2954034021469624,4.538589163768218,0.392280701754386,0,0.05
1757328213.8285327,-0.766,0.115,9.758,0.2954034021469624,4.538589163768218,0.392280701754386,0,0.05
1757328213.854381,-0.505,0.476,9.596,0.2964805769354883,4.136382236839696,0.40536340852130326,0,0.05
1757328213.8803885,-0.505,0.476,9.596,0.2964805769354883,4.136382236839696,0.40536340852130326,0,0.05
1757328213.9072294,-0.418,0.218,9.791,0.2972163227348054,2.7566347722637015,0.4097243107769424,0,0.05
1757328213.93421,-0.418,0.218,9.791,0.2972163227348054,2.7566347722637015,0.4097243107769424,0,0.05
1757328213.961165,-0.552,-0.046,9.698,0.2984950627732392,3.2689681589768824,0.4164411027568923,0,0.05
1757328213.9883065,-0.552,-0.046,9.698,0.2984950627732392,3.2689681589768824,0.4164411027568923,0,0.05
1757328214.0152013,-0.609,0.199,9.525,0.3000441717480945,3.8481412842281784,0.4192982456140351,0,0.05
1757328214.0422676,-0.609,0.199,9.525,0.3000441717480945,3.8481412842281784,0.4192982456140351,0,0.05
1757328214.0692022,-0.655,0.031,9.608,0.30182622069661214,3.9043060675593533,0.42160401002506265,0,0.05
1757328214.0960994,-0.655,0.031,9.608,0.30182622069661214,3.9043060675593533,0.42160401002506265,0,0.05
1757328214.1215627,-0.639,0.059,9.639,0.30351255328239723,3.8088552886349842,0.42240601503759395,0,0.05
1757328214.1489642,-0.639,0.059,9.639,0.30351255328239723,3.8088552886349842,0.42240601503759395,0,0.05
1757328214.1758146,-0.34,-0.156,9.526,0.3039882728001197,2.2488148084522823,0.4373934837092731,0,0.05
1757328214.2027814,-0.34,-0.156,9.526,0.3039882728001197,2.2488148084522823,0.4373934837092731,0,0.05
1757328214.2297275,-0.512,-0.014,9.608,0.30506430469656726,3.0514833414926894,0.4460150375939849,0,0.05
1757328214.2571301,-0.512,-0.014,9.608,0.30506430469656726,3.0514833414926894,0.4460150375939849,0,0.05
1757328214.2839427,-0.521,0.105,9.707,0.3061745131456895,3.1339155260797846,0.4464661654135338,0,0.05
1757328214.3109767,-0.521,0.105,9.707,0.3061745131456895,3.1339155260797846,0.4464661654135338,0,0.05
1757328214.3378434,-0.591,0.067,9.64,0.30759719602103003,3.5306600772490753,0.4499749373433583,0,0.05
1757328214.3648336,-0.591,0.067,9.64,0.30759719602103003,3.5306600772490753,0.4499749373433583,0,0.05
1757328214.3919053,-0.619,-0.051,9.69,0.30915034772744476,3.667455755536783,0.4513784461152882,0,0.05
1757328214.418757,-0.619,-0.051,9.69,0.30915034772744476,3.667455755536783,0.4513784461152882,0,0.05
1757328214.445541,-0.609,-0.144,9.853,0.3106463262296852,3.634142644408618,0.4518796992481203,0,0.05
1757328214.4726274,-0.609,-0.144,9.853,0.3106463262296852,3.634142644408618,0.4518796992481203,0,0.05
1757328214.4997811,-0.627,-0.134,9.555,0.3122242183111361,3.838903506773683,0.4527819548872181,0,0.05
1757328214.5270553,-0.627,-0.134,9.555,0.3122242183111361,3.838903506773683,0.4527819548872181,0,0.05
1757328214.5542216,-0.559,0.309,9.526,0.3134727500118631,3.835944850368643,0.4561904761904763,0,0.05
1757328214.5815954,-0.559,0.309,9.526,0.3134727500118631,3.835944850368643,0.4561904761904763,0,0.05
1757328214.6086297,-0.329,0.336,9.792,0.31390407372316786,2.7494662580360485,0.4677192982456141,0,0.05
1757328214.6358736,-0.329,0.336,9.792,0.31390407372316786,2.7494662580360485,0.4677192982456141,0,0.05
1757328214.6630592,-0.622,0.101,9.662,0.3154409255312316,3.731493683033879,0.482406015037594,0,0.05
1757328214.690479,-0.622,0.101,9.662,0.3154409255312316,3.731493683033879,0.482406015037594,0,0.05
1757328214.7182338,-0.816,0.183,9.615,0.31806857358123264,4.970814410667989,0.4921303258145363,0,0.05
1757328214.7459724,-0.816,0.183,9.615,0.31806857358123264,4.970814410667989,0.4921303258145363,0,0.05
1757328214.7732732,-0.798,-0.034,9.882,0.3205614254710008,4.620951868110135,0.4930325814536341,0,0.05
1757328214.8006148,-0.798,-0.034,9.882,0.3205614254710008,4.620951868110135,0.4930325814536341,0,0.05
1757328214.828546,-0.802,-0.21,9.676,0.32305980483495617,4.897132453824534,0.49323308270676686,0,0.05
1757328214.8542671,-0.802,-0.21,9.676,0.32305980483495617,4.897132453824534,0.49323308270676686,0,0.05
1757328214.879963,-0.746,-0.36,9.761,0.3252059770360932,4.85051488679081,0.49604010025062656,0,0.05
1757328214.9068158,-0.746,-0.36,9.761,0.3252059770360932,4.85051488679081,0.49604010025062656,0,0.05
1757328214.9322972,-0.599,-0.077,9.968,0.32658219486065065,3.4671273472328625,0.5034085213032582,0,0.05
1757328214.9574215,-0.599,-0.077,9.968,0.32658219486065065,3.4671273472328625,0.5034085213032582,0,0.05
1757328214.9844444,-0.65,-0.046,9.668,0.3281953381753007,3.8559182897649937,0.5059649122807018,0,0.05
1757328215.0116947,-0.65,-0.046,9.668,0.3281953381753007,3.8559182897649937,0.5059649122807018,0,0.05
1757328215.0388706,-0.673,-0.133,9.583,0.32991590216296035,4.094634884675404,0.5071177944862156,0,0.05
1757328215.065297,-0.673,-0.133,9.583,0.32991590216296035,4.094634884675404,0.5071177944862156,0,0.05
1757328215.0925267,-0.718,-0.024,9.93,0.33186339433568146,4.137941289970879,0.5093734335839599,0,0.05
1757328215.1194792,-0.718,-0.024,9.93,0.33186339433568146,4.137941289970879,0.5093734335839599,0,0.05
1757328215.146517,-0.889,-0.007,9.839,0.3348269926394824,5.163083239358261,0.5179448621553886,0,0.05
1757328215.1749163,-0.889,-0.007,9.839,0.3348269926394824,5.163083239358261,0.5179448621553886,0,0.05
1757328215.2017179,-0.911,0.171,9.517,0.3379111088733249,5.5627877812333875,0.519047619047619,0,0.05
1757328215.2288797,-0.911,0.171,9.517,0.3379111088733249,5.5627877812333875,0.519047619047619,0,0.05
1757328215.256097,-0.959,0.387,9.51,0.34129623496311823,6.206106573081577,0.5214536340852131,0,0.05
1757328215.2832685,-0.959,0.387,9.51,0.34129623496311823,6.206106573081577,0.5214536340852131,0,0.05
1757328215.3108563,-0.573,0.44,9.471,0.34249663137029535,4.362066631094729,0.5408020050125314,0,0.05
1757328215.3384995,-0.573,0.44,9.471,0.34249663137029535,4.362066631094729,0.5408020050125314,0,0.05
1757328215.3654344,-0.674,0.427,9.372,0.344150595669977,4.86608208963558,0.5458646616541354,0,0.05
1757328215.3928924,-0.674,0.427,9.372,0.344150595669977,4.86608208963558,0.5458646616541354,0,0.05
1757328215.4198637,-0.674,0.427,9.372,0.344150595669977,4.86608208963558,0.5458646616541354,0,0.05
1757328215.447304,-0.816,0.394,9.526,0.3465606332231057,5.433794209670355,0.5529824561403509,0,0.05
1757328215.4744134,-0.824,0.327,9.625,0.3490010207721462,5.262393471595311,0.5533834586466165,0,0.05
1757328215.501248,-0.824,0.327,9.625,0.3490010207721462,5.262393471595311,0.5533834586466165,0,0.05
1757328215.5282044,-0.755,0.215,9.453,0.3510367146040425,4.7471840140897825,0.556842105263158,0,0.05
1757328215.5555484,-0.755,0.215,9.453,0.3510367146040425,4.7471840140897825,0.556842105263158,0,0.05
1757328215.5829725,-0.586,0.073,9.659,0.35225738459257316,3.498579740653893,0.5653132832080201,0,0.05
1757328215.610762,-0.586,0.073,9.659,0.35225738459257316,3.498579740653893,0.5653132832080201,0,0.05
1757328215.638236,-0.575,0.297,9.7,0.3534286738508917,3.817057424951643,0.5658646616541353,0,0.05
1757328215.6652784,-0.575,0.297,9.7,0.3534286738508917,3.817057424951643,0.5658646616541353,0,0.05
1757328215.692898,-0.55,0.176,9.514,0.3544969358118628,3.4734359114213977,0.5671177944862156,0,0.05
1757328215.7201324,-0.55,0.176,9.514,0.3544969358118628,3.4734359114213977,0.5671177944862156,0,0.05
1757328215.7475944,-0.535,-0.144,9.64,0.3555047679005164,3.2893470810523855,0.5678696741854636,0,0.05
1757328215.7750173,-0.535,-0.144,9.64,0.3555047679005164,3.2893470810523855,0.5678696741854636,0,0.05
1757328215.8024886,-0.83,0.061,9.682,0.3579188315805694,4.912914127712984,0.58265664160401,0,0.05
1757328215.830481,-0.83,0.061,9.682,0.3579188315805694,4.912914127712984,0.58265664160401,0,0.05
1757328215.8576686,-0.797,0.164,9.464,0.3601304104071191,4.914106986915617,0.5843107769423559,0,0.05
1757328215.8846898,-0.797,0.164,9.464,0.3601304104071191,4.914106986915617,0.5843107769423559,0,0.05
1757328215.912026,-0.512,-0.134,9.811,0.36103915646367224,3.0877716961116253,0.5985964912280702,0,0.05
1757328215.9390986,-0.512,-0.134,9.811,0.36103915646367224,3.0877716961116253,0.5985964912280702,0,0.05
1757328215.9669633,-0.413,-0.018,10.011,0.361629223100125,2.364616090834898,0.6035588972431077,0,0.05
1757328215.9940886,-0.413,-0.018,10.011,0.361629223100125,2.364616090834898,0.6035588972431077,0,0.05
1757328216.0216918,-0.345,0.098,9.803,0.3620404086562714,2.095267226194859,0.6069674185463659,0,0.05
1757328216.0498214,-0.345,0.098,9.803,0.3620404086562714,2.095267226194859,0.6069674185463659,0,0.05
1757328216.0767403,-0.408,-0.058,9.765,0.3626146956481494,2.4165590087624946,0.610125313283208,0,0.05
1757328216.1039019,-0.408,-0.058,9.765,0.3626146956481494,2.4165590087624946,0.610125313283208,0,0.05
1757328216.131105,-0.643,-0.008,9.859,0.3640371409622925,3.731810785511286,0.6219047619047618,0,0.05
1757328216.1587946,-0.643,-0.008,9.859,0.3640371409622925,3.731810785511286,0.6219047619047618,0,0.05
1757328216.1868434,-0.704,-0.095,9.774,0.36573498602129934,4.156986282388752,0.6249624060150376,0,0.05
1757328216.2145693,-0.704,-0.095,9.774,0.36573498602129934,4.156986282388752,0.6249624060150376,0,0.05
1757328216.241769,-0.71,-0.192,9.807,0.3674538474420972,4.2890228978536,0.6252631578947367,0,0.05
1757328216.2696302,-0.71,-0.192,9.807,0.3674538474420972,4.2890228978536,0.6252631578947367,0,0.05
1757328216.2967782,-0.505,-0.325,9.948,0.36832036666467416,3.4546423173464156,0.6355388471177944,0,0.05
1757328216.3240647,-0.505,-0.325,9.948,0.36832036666467416,3.4546423173464156,0.6355388471177944,0,0.05
1757328216.3513017,-0.582,0.01,9.839,0.3694681346205651,3.3857340366219884,0.6393984962406015,0,0.05
1757328216.3784792,-0.582,0.01,9.839,0.3694681346205651,3.3857340366219884,0.6393984962406015,0,0.05
1757328216.4055068,-0.56,-0.038,9.793,0.3705276001865448,3.2803305059577297,0.640501253132832,0,0.05
1757328216.432618,-0.56,-0.038,9.793,0.3705276001865448,3.2803305059577297,0.640501253132832,0,0.05
1757328216.4599612,-0.56,-0.184,9.912,0.3715840450019349,3.403298675690692,0.6405012531328319,0,0.05
1757328216.4869468,-0.56,-0.184,9.912,0.3715840450019349,3.403298675690692,0.6405012531328319,0,0.05
1757328216.5142217,-0.811,-0.076,9.66,0.3737900547098598,4.819908920977211,0.6530827067669173,0,0.05
1757328216.5418322,-0.811,-0.076,9.66,0.3737900547098598,4.819908920977211,0.6530827067669173,0,0.05
1757328216.5689428,-0.631,-0.194,9.706,0.3751191910579889,3.890954238887204,0.6621052631578948,0,0.05
1757328216.5951831,-0.631,-0.194,9.706,0.3751191910579889,3.890954238887204,0.6621052631578948,0,0.05
1757328216.6221726,-0.53,-0.209,9.874,0.3760540619379081,3.3022488884393453,0.6671679197994987,0,0.05
1757328216.649566,-0.53,-0.209,9.874,0.3760540619379081,3.3022488884393453,0.6671679197994987,0,0.05
1757328216.6766777,-0.277,0.059,9.827,0.37630902194871707,1.6508048554847263,0.6798496240601504,0,0.05
1757328216.7037423,-0.277,0.059,9.827,0.37630902194871707,1.6508048554847263,0.6798496240601504,0,0.05
1757328216.7308197,-0.375,-0.134,9.817,0.3767758518005102,2.3229046267877136,0.6847619047619048,0,0.05
1757328216.75815,-0.375,-0.134,9.817,0.3767758518005102,2.3229046267877136,0.6847619047619048,0,0.05
1757328216.7852228,-0.394,0.058,9.85,0.3772905147230712,2.3152693247764735,0.6857142857142857,0,0.05
1757328216.8126695,-0.394,0.058,9.85,0.3772905147230712,2.3152693247764735,0.6857142857142857,0,0.05
1757328216.839072,-0.538,-0.065,9.892,0.37824825511824905,3.1356940198238763,0.6929323308270677,0,0.05
1757328216.8656557,-0.538,-0.065,9.892,0.37824825511824905,3.1356940198238763,0.6929323308270677,0,0.05
1757328216.8928,-0.601,0.215,9.893,0.3794400413767635,3.6916238300879516,0.6960902255639098,0,0.05
1757328216.9201577,-0.601,0.215,9.893,0.3794400413767635,3.6916238300879516,0.6960902255639098,0,0.05
1757328216.9473953,-0.555,-0.35,9.938,0.38045342356193884,3.777399922101373,0.6983959899749372,0,0.05
1757328216.9747245,-0.555,-0.35,9.938,0.38045342356193884,3.777399922101373,0.6983959899749372,0,0.05
1757328217.0022113,-0.502,-0.094,9.844,0.38128049714088447,2.96994843836528,0.7010526315789473,0,0.05
1757328217.0294611,-0.502,-0.094,9.844,0.38128049714088447,2.96994843836528,0.7010526315789473,0,0.05
1757328217.0565128,-0.425,0.085,9.679,0.38187220375408315,2.5639391669856986,0.7049122807017543,0,0.05
1757328217.083853,-0.425,0.085,9.679,0.38187220375408315,2.5639391669856986,0.7049122807017543,0,0.05
1757328217.1112452,-0.452,0.085,9.814,0.3825403769538583,2.6831435122318177,0.7062656641604009,0,0.05
1757328217.1385841,-0.452,0.085,9.814,0.3825403769538583,2.6831435122318177,0.7062656641604009,0,0.05
1757328217.1658545,-0.56,0.004,9.819,0.3835637365549564,3.2642562370295276,0.7116791979949875,0,0.05
1757328217.1929457,-0.56,0.004,9.819,0.3835637365549564,3.2642562370295276,0.7116791979949875,0,0.05
1757328217.219983,-0.909,-0.209,9.565,0.38624712620290136,5.569508670774071,0.729172932330827,0,0.05
1757328217.2480307,-0.909,-0.209,9.565,0.38624712620290136,5.569508670774071,0.729172932330827,0,0.05
1757328217.2755666,-0.702,-0.15,9.839,0.3878386939179741,4.17286762700684,0.739548872180451,0,0.05
1757328217.3030782,-0.702,-0.15,9.839,0.3878386939179741,4.17286762700684,0.739548872180451,0,0.05
1757328217.330293,-0.476,-0.188,9.784,0.3885682597691171,2.9942971279371102,0.750877192982456,0,0.05
1757328217.3571887,-0.476,-0.188,9.784,0.3885682597691171,2.9942971279371102,0.750877192982456,0,0.05
1757328217.3834796,-0.473,0.064,9.597,0.3892873167725864,2.8472796182062354,0.7510275689223057,0,0.05
1757328217.4104269,-0.473,0.064,9.597,0.3892873167725864,2.8472796182062354,0.7510275689223057,0,0.05
1757328217.4374747,-0.365,-0.147,9.699,0.3897148669219587,2.3232221318056716,0.7564411027568922,0,0.05
1757328217.4642887,-0.365,-0.147,9.699,0.3897148669219587,2.3232221318056716,0.7564411027568922,0,0.05
1757328217.4917626,-0.545,-0.164,9.82,0.3906664050056006,3.3169974016582673,0.7654636591478697,0,0.05
1757328217.5178366,-0.545,-0.164,9.82,0.3906664050056006,3.3169974016582673,0.7654636591478697,0,0.05
1757328217.5438044,-0.674,-0.009,9.715,0.39211724012085974,3.9690172089682156,0.7719298245614035,0,0.05
1757328217.5699139,-0.674,-0.009,9.715,0.39211724012085974,3.9690172089682156,0.7719298245614035,0,0.05
1757328217.5962584,-0.592,-0.085,9.732,0.39323286993841194,3.5166366480403877,0.7760401002506265,0,0.05
1757328217.622656,-0.592,-0.085,9.732,0.39323286993841194,3.5166366480403877,0.7760401002506265,0,0.05
1757328217.6482127,-0.232,-0.107,9.831,0.3934039272808547,1.4886547336412081,0.7940852130325814,0,0.05
1757328217.674366,-0.232,-0.107,9.831,0.3934039272808547,1.4886547336412081,0.7940852130325814,0,0.05
1757328217.7005134,-0.342,-0.03,9.726,0.3937753928320052,2.0216160537559307,0.7995989974937344,0,0.05
1757328217.727413,-0.342,-0.03,9.726,0.3937753928320052,2.0216160537559307,0.7995989974937344,0,0.05
1757328217.7533774,-0.51,-0.13,9.785,0.39460019006584374,3.078813605661912,0.8080200501253132,0,0.05
1757328217.7801797,-0.51,-0.13,9.785,0.39460019006584374,3.078813605661912,0.8080200501253132,0,0.05
1757328217.806462,-0.478,-0.186,9.787,0.39532331072174326,2.9999901461171405,0.809624060150376,0,0.05
1757328217.8344574,-0.478,-0.186,9.787,0.39532331072174326,2.9999901461171405,0.809624060150376,0,0.05
1757328217.8608594,-0.685,-0.148,9.707,0.3968042117972036,4.129358037163274,0.8199999999999998,0,0.05
1757328217.887216,-0.685,-0.148,9.707,0.3968042117972036,4.129358037163274,0.8199999999999998,0,0.05
1757328217.9126027,-0.82,-0.0,9.877,0.3989167613675816,4.745878386546136,0.826766917293233,0,0.05
1757328217.9401217,-0.82,-0.0,9.877,0.3989167613675816,4.745878386546136,0.826766917293233,0,0.05
1757328217.9676383,-0.746,0.009,10.009,0.40065680138991777,4.2628494529979095,0.8304761904761904,0,0.05
1757328217.995026,-0.746,0.009,10.009,0.40065680138991777,4.2628494529979095,0.8304761904761904,0,0.05
1757328218.0227036,-0.518,-0.208,9.957,0.4014930665652895,3.208707514251038,0.8419047619047618,0,0.05
1757328218.050231,-0.518,-0.208,9.957,0.4014930665652895,3.208707514251038,0.8419047619047618,0,0.05
1757328218.0778663,-0.71,0.094,9.803,0.4030594652157421,4.178537521449958,0.8515288220551378,0,0.05
1757328218.1055746,-0.71,0.094,9.803,0.4030594652157421,4.178537521449958,0.8515288220551378,0,0.05
1757328218.1329758,-0.602,-0.119,9.861,0.4041818186163252,3.5609180393467534,0.8569423558897242,0,0.05
1757328218.1612158,-0.602,-0.119,9.861,0.4041818186163252,3.5609180393467534,0.8569423558897242,0,0.05
1757328218.1885178,-0.586,-0.068,9.843,0.4052424366968494,3.4298730484944584,0.8577443609022555,0,0.05
1757328218.2157722,-0.586,-0.068,9.843,0.4052424366968494,3.4298730484944584,0.8577443609022555,0,0.05
1757328218.2431839,-0.723,0.087,9.7,0.4068516375781226,4.293356716152487,0.8646115288220552,0,0.05
1757328218.2703028,-0.723,0.087,9.7,0.4068516375781226,4.293356716152487,0.8646115288220552,0,0.05
1757328218.2975585,-0.596,-0.037,9.507,0.4079415338011073,3.5941029442288555,0.8709774436090226,0,0.05
1757328218.3248806,-0.596,-0.037,9.507,0.4079415338011073,3.5941029442288555,0.8709774436090226,0,0.05
1757328218.3519018,-0.438,-0.164,9.521,0.40852895246236837,2.8122583420856064,0.8788972431077696,0,0.05
1757328218.3794463,-0.438,-0.164,9.521,0.40852895246236837,2.8122583420856064,0.8788972431077696,0,0.05
1757328218.4065282,-0.373,0.119,9.468,0.4089544320581451,2.367957644674102,0.882155388471178,0,0.05
1757328218.4339955,-0.373,0.119,9.468,0.4089544320581451,2.367957644674102,0.882155388471178,0,0.05
1757328218.4610393,-0.537,-0.024,9.603,0.4098349057852442,3.2038363104979464,0.8903759398496242,0,0.05
1757328218.4881818,-0.537,-0.024,9.603,0.4098349057852442,3.2038363104979464,0.8903759398496242,0,0.05
1757328218.5150652,-0.56,0.091,9.703,0.4107902749579157,3.346340046642876,0.8915288220551377,0,0.05
1757328218.5419538,-0.56,0.091,9.703,0.4107902749579157,3.346340046642876,0.8915288220551377,0,0.05
1757328218.5689495,-0.575,0.118,9.446,0.4117951098544032,3.5558391976998496,0.8922807017543859,0,0.05
1757328218.5959382,-0.575,0.118,9.446,0.4117951098544032,3.5558391976998496,0.8922807017543859,0,0.05
1757328218.623206,-0.626,0.114,9.737,0.412982932456052,3.7388605969876876,0.8948370927318294,0,0.05
1757328218.650343,-0.626,0.114,9.737,0.412982932456052,3.7388605969876876,0.8948370927318294,0,0.05
1757328218.6776075,-0.611,0.102,9.768,0.41411134372291714,3.628656357799002,0.8955889724310776,0,0.05
1757328218.7049527,-0.611,0.102,9.768,0.41411134372291714,3.628656357799002,0.8955889724310776,0,0.05
1757328218.7321868,-0.519,-0.071,9.782,0.4149236164645247,3.0653070545819148,0.9002005012531327,0,0.05
1757328218.7602232,-0.519,-0.071,9.782,0.4149236164645247,3.0653070545819148,0.9002005012531327,0,0.05
1757328218.7879148,-0.483,0.146,9.876,0.4156258293224809,2.9248092658778932,0.9020050125313283,0,0.05
1757328218.815456,-0.483,0.146,9.876,0.4156258293224809,2.9248092658778932,0.9020050125313283,0,0.05
1757328218.8428917,-0.576,0.012,9.839,0.41662245498772627,3.3511414626604537,0.9066666666666667,0,0.05
1757328218.8704412,-0.576,0.012,9.839,0.41662245498772627,3.3511414626604537,0.9066666666666667,0,0.05
1757328218.8977673,-0.607,0.13,9.772,0.4177264565478227,3.6348218187318757,0.9082205513784462,0,0.05
1757328218.9252188,-0.707,0.121,9.89,0.41921953079502394,4.1481559874862395,0.9132330827067671,0,0.05
1757328218.9522305,-0.707,0.121,9.89,0.41921953079502394,4.1481559874862395,0.9132330827067671,0,0.05
1757328218.979698,-0.476,-0.031,9.913,0.4198945760545139,2.754917991594283,0.9248120300751881,0,0.05
1757328219.0070221,-0.476,-0.031,9.913,0.4198945760545139,2.754917991594283,0.9248120300751881,0,0.05
1757328219.034807,-0.382,-0.102,9.825,0.420328758235741,2.3044865724642154,0.9295238095238095,0,0.05
1757328219.0622494,-0.382,-0.102,9.825,0.420328758235741,2.3044865724642154,0.9295238095238095,0,0.05
1757328219.0894256,-0.382,-0.102,9.825,0.420328758235741,2.3044865724642154,0.9295238095238095,0,0.05
1757328219.1166012,-0.283,0.148,9.851,0.4205668644817373,1.8568439860767885,0.9344862155388471,0,0.05
1757328219.1445208,-0.616,0.087,9.825,0.4216931674808118,3.6230987916588497,0.9511779448621553,0,0.05
1757328219.172165,-0.616,0.087,9.825,0.4216931674808118,3.6230987916588497,0.9511779448621553,0,0.05
1757328219.1994224,-0.458,-0.152,9.677,0.42231450069823556,2.8548099024203477,0.9590977443609022,0,0.05
1757328219.2273273,-0.458,-0.152,9.677,0.42231450069823556,2.8548099024203477,0.9590977443609022,0,0.05
1757328219.254869,-0.458,-0.152,9.677,0.42231450069823556,2.8548099024203477,0.9590977443609022,0,0.05
1757328219.281903,-0.713,-0.251,9.784,0.42381654049836237,4.417769623585456,0.9718796992481202,0,0.05
1757328219.3096814,-0.578,-0.13,9.895,0.42480074152477654,3.426354985792478,0.9786466165413533,0,0.05
1757328219.3370333,-0.578,-0.13,9.895,0.42480074152477654,3.426354985792478,0.9786466165413533,0,0.05
1757328219.36453,-0.622,-0.317,9.7,0.4259376480190499,4.116550499644037,0.9808521303258145,0,0.05
1757328219.3917665,-0.622,-0.317,9.7,0.4259376480190499,4.116550499644037,0.9808521303258145,0,0.05
1757328219.418977,-0.585,0.012,9.54,0.4269407950758512,3.5097629226620644,0.982706766917293,0,0.05
1757328219.4466586,-0.585,0.012,9.54,0.4269407950758512,3.5097629226620644,0.982706766917293,0,0.05
1757328219.4742196,-0.391,-0.027,9.722,0.42738816665883483,2.308562587400859,0.9924310776942354,0,0.05
1757328219.501699,-0.391,-0.027,9.722,0.42738816665883483,2.308562587400859,0.9924310776942354,0,0.05
1757328219.5290556,-0.518,-0.026,9.527,0.42817222586244424,3.1161195572737395,0.998796992481203,0,0.05
1757328219.554517,-0.518,-0.026,9.527,0.42817222586244424,3.1161195572737395,0.998796992481203,0,0.05
1757328219.581783,-0.727,0.067,9.737,0.429712435821911,4.288017083100584,1.0092731829573935,0,0.05
1757328219.6095476,-0.727,0.067,9.737,0.429712435821911,4.288017083100584,1.0092731829573935,0,0.05
1757328219.6370435,-0.808,-0.118,9.814,0.4316073881434376,4.756322021465992,1.0133333333333334,0,0.05
1757328219.6641393,-0.808,-0.118,9.814,0.4316073881434376,4.756322021465992,1.0133333333333334,0,0.05
1757328219.6912894,-0.691,-0.265,9.819,0.4329880367862373,4.3103124464129765,1.0191979949874685,0,0.05
1757328219.7186456,-0.691,-0.265,9.819,0.4329880367862373,4.3103124464129765,1.0191979949874685,0,0.05
1757328219.7458959,-0.466,-0.165,9.831,0.43361449468393,2.8786774781913236,1.0304761904761905,0,0.05
1757328219.7734423,-0.466,-0.165,9.831,0.43361449468393,2.8786774781913236,1.0304761904761905,0,0.05
1757328219.8005364,-0.481,-0.19,9.871,0.4342809372975056,2.999126669557396,1.0312280701754386,0,0.05
1757328219.8276474,-0.481,-0.19,9.871,0.4342809372975056,2.999126669557396,1.0312280701754386,0,0.05
1757328219.8547153,-0.607,-0.046,9.841,0.4353401601047163,3.5396685181843552,1.0375438596491229,0,0.05
1757328219.8825245,-0.607,-0.046,9.841,0.4353401601047163,3.5396685181843552,1.0375438596491229,0,0.05
1757328219.909652,-0.601,-0.031,9.78,0.4363760505573146,3.521177993414713,1.037844611528822,0,0.05
1757328219.937357,-0.601,-0.031,9.78,0.4363760505573146,3.521177993414713,1.037844611528822,0,0.05
1757328219.9646015,-0.71,-0.179,9.868,0.43781766467332034,4.2436333139031115,1.0433082706766919,0,0.05
1757328219.9918697,-0.71,-0.179,9.868,0.43781766467332034,4.2436333139031115,1.0433082706766919,0,0.05
1757328220.019341,-0.57,-0.02,9.798,0.43874429625922207,3.331481532551101,1.050325814536341,0,0.05
1757328220.0470042,-0.57,-0.02,9.798,0.43874429625922207,3.331481532551101,1.050325814536341,0,0.05
1757328220.0741208,-0.782,-0.199,9.656,0.44048310694055,4.776938491613057,1.060952380952381,0,0.05
1757328220.101916,-0.782,-0.199,9.656,0.44048310694055,4.776938491613057,1.060952380952381,0,0.05
1757328220.1289015,-0.581,-0.128,9.771,0.44143999592243566,3.484301143963015,1.0710275689223059,0,0.05
1757328220.156323,-0.581,-0.128,9.771,0.44143999592243566,3.484301143963015,1.0710275689223059,0,0.05
1757328220.1835315,-0.462,-0.022,9.708,0.4420439797124263,2.7277112840366686,1.0769924812030078,0,0.05
1757328220.2112339,-0.462,-0.022,9.708,0.4420439797124263,2.7277112840366686,1.0769924812030078,0,0.05
1757328220.2381058,-0.533,-0.059,9.553,0.4428465902544582,3.212913953641263,1.0805513784461152,0,0.05
1757328220.26515,-0.533,-0.059,9.553,0.4428465902544582,3.212913953641263,1.0805513784461152,0,0.05
1757328220.2931304,-0.605,0.047,9.839,0.4438785475780509,3.5292616606087917,1.0841604010025063,0,0.05
1757328220.3204575,-0.605,0.047,9.839,0.4438785475780509,3.5292616606087917,1.0841604010025063,0,0.05
1757328220.3481305,-0.746,-0.165,9.831,0.445442987373244,4.443886518572713,1.0912280701754384,0,0.05
1757328220.3760478,-0.746,-0.165,9.831,0.445442987373244,4.443886518572713,1.0912280701754384,0,0.05
1757328220.4032643,-0.716,0.077,9.589,0.44687928459484444,4.294818497631264,1.0927318295739348,0,0.05
1757328220.4307003,-0.716,0.077,9.589,0.44687928459484444,4.294818497631264,1.0927318295739348,0,0.05
1757328220.4583483,-0.492,-0.126,9.835,0.4475558680209656,2.9561197339202443,1.1039598997493734,0,0.05
1757328220.4858806,-0.492,-0.126,9.835,0.4475558680209656,2.9561197339202443,1.1039598997493734,0,0.05
1757328220.5137367,-0.405,-0.008,9.834,0.4480137469989063,2.358776067058465,1.1083208020050124,0,0.05
1757328220.5414348,-0.405,-0.008,9.834,0.4480137469989063,2.358776067058465,1.1083208020050124,0,0.05
1757328220.568943,-0.587,-0.107,9.783,0.4489740972483825,3.4901887681356247,1.1174436090225564,0,0.05
1757328220.5970201,-0.587,-0.107,9.783,0.4489740972483825,3.4901887681356247,1.1174436090225564,0,0.05
1757328220.6241422,-0.523,-0.184,9.876,0.449734991411609,3.213122465349259,1.1206516290726813,0,0.05
1757328220.6519904,-0.523,-0.184,9.876,0.449734991411609,3.213122465349259,1.1206516290726813,0,0.05
1757328220.6793969,-0.584,-0.133,9.838,0.4506819305230686,3.4839588877779186,1.1237092731829574,0,0.05
1757328220.7066383,-0.584,-0.133,9.838,0.4506819305230686,3.4839588877779186,1.1237092731829574,0,0.05
1757328220.73391,-0.567,-0.06,9.872,0.45157272393270165,3.305494371655276,1.1245614035087719,0,0.05
1757328220.76144,-0.615,-0.298,9.818,0.45261847896434804,3.981728146966272,1.1269674185463658,0,0.05
1757328220.7890701,-0.615,-0.298,9.818,0.45261847896434804,3.981728146966272,1.1269674185463658,0,0.05
1757328220.8162324,-0.469,-0.112,9.824,0.4532255398805323,2.809972288569877,1.1342857142857143,0,0.05
1757328220.8433335,-0.469,-0.112,9.824,0.4532255398805323,2.809972288569877,1.1342857142857143,0,0.05
1757328220.8705518,-0.417,0.172,9.618,0.45370487378911856,2.6851783503956064,1.136892230576441,0,0.05
1757328220.8980744,-0.417,0.172,9.618,0.45370487378911856,2.6851783503956064,1.136892230576441,0,0.05
1757328220.9241517,-0.531,0.011,9.735,0.45448103920845806,3.122798976060402,1.1426065162907268,0,0.05
1757328220.9514873,-0.531,0.011,9.735,0.45448103920845806,3.122798976060402,1.1426065162907268,0,0.05
1757328220.97797,-0.47,0.004,9.98,0.4550881947491058,2.6964035678451146,1.1456641604010023,0,0.05
1757328221.0055363,-0.47,0.004,9.98,0.4550881947491058,2.6964035678451146,1.1456641604010023,0,0.05
1757328221.0330951,-0.77,0.189,9.838,0.45671382177464265,4.6075775490937865,1.160701754385965,0,0.05
1757328221.0605714,-0.77,0.189,9.838,0.45671382177464265,4.6075775490937865,1.160701754385965,0,0.05
1757328221.0876875,-0.565,0.095,9.723,0.4575866885083088,3.3722737110785177,1.1709774436090226,0,0.05
1757328221.1153781,-0.565,0.095,9.723,0.4575866885083088,3.3722737110785177,1.1709774436090226,0,0.05
1757328221.1423485,-0.544,0.008,9.992,0.45839439078156263,3.116645614733627,1.17203007518797,0,0.05
1757328221.1678593,-0.544,0.008,9.992,0.45839439078156263,3.116645614733627,1.17203007518797,0,0.05
1757328221.1931257,-0.474,0.326,9.742,0.45900665300189275,3.379503953580157,1.1755388471177945,0,0.05
1757328221.2184653,-0.474,0.326,9.742,0.45900665300189275,3.379503953580157,1.1755388471177945,0,0.05
1757328221.244593,-0.474,0.326,9.742,0.45900665300189275,3.379503953580157,1.1755388471177945,0,0.05
1757328221.2701578,-0.706,0.214,9.677,0.4603620287339085,4.35948021562916,1.1871679197994986,0,0.05
1757328221.2978234,-0.706,0.214,9.677,0.4603620287339085,4.35948021562916,1.1871679197994986,0,0.05
1757328221.3244114,-0.491,-0.027,9.854,0.4610161602373609,2.8568476811909855,1.1979448621553885,0,0.05
1757328221.352145,-0.491,-0.027,9.854,0.4610161602373609,2.8568476811909855,1.1979448621553885,0,0.05
1757328221.3793511,-0.591,0.147,9.73,0.4619622305989961,3.5815101373152807,1.2029573934837092,0,0.05
1757328221.4066973,-0.591,0.147,9.73,0.4619622305989961,3.5815101373152807,1.2029573934837092,0,0.05
1757328221.4338598,-0.573,0.038,9.565,0.4628497866478929,3.435771033445059,1.2038596491228069,0,0.05
1757328221.4611554,-0.573,0.038,9.565,0.4628497866478929,3.435771033445059,1.2038596491228069,0,0.05
1757328221.4883766,-0.561,-0.324,9.724,0.4636989621510922,3.811573458409077,1.2044611528822056,0,0.05
1757328221.5160065,-0.437,0.075,9.785,0.46421347459977935,2.5944777651404363,1.2106766917293232,0,0.05
1757328221.5444887,-0.437,0.075,9.785,0.46421347459977935,2.5944777651404363,1.2106766917293232,0,0.05
1757328221.5722325,-0.395,0.252,9.618,0.4646334173302648,2.788949275887456,1.212781954887218,0,0.05
1757328221.600854,-0.395,0.252,9.618,0.4646334173302648,2.788949275887456,1.212781954887218,0,0.05
1757328221.6281767,-0.599,0.094,9.776,0.4655976965149205,3.549074325934873,1.2230075187969924,0,0.05
1757328221.6557193,-0.599,0.094,9.776,0.4655976965149205,3.549074325934873,1.2230075187969924,0,0.05
1757328221.6830206,-0.601,-0.086,9.72,0.46656641274313776,3.5741142761104125,1.2231077694235588,0,0.05
1757328221.7101183,-0.601,-0.086,9.72,0.46656641274313776,3.5741142761104125,1.2231077694235588,0,0.05
1757328221.7371802,-0.923,0.237,9.735,0.46884330004810776,5.59076980502068,1.239248120300752,0,0.05
1757328221.7645514,-0.923,0.237,9.735,0.46884330004810776,5.59076980502068,1.239248120300752,0,0.05
1757328221.792091,-0.642,0.12,9.648,0.4699409005396317,3.872713377294241,1.2533333333333334,0,0.05
1757328221.8196006,-0.642,0.12,9.648,0.4699409005396317,3.872713377294241,1.2533333333333334,0,0.05
1757328221.8473282,-0.551,-0.198,9.669,0.47074775889004505,3.465250763008479,1.257894736842105,0,0.05
1757328221.8752878,-0.551,-0.198,9.669,0.47074775889004505,3.465250763008479,1.257894736842105,0,0.05
1757328221.9025033,-0.59,0.086,9.672,0.4716711804848797,3.527560555538671,1.2598496240601502,0,0.05
1757328221.9300156,-0.59,0.086,9.672,0.4716711804848797,3.527560555538671,1.2598496240601502,0,0.05
1757328221.9577217,-0.767,-0.107,9.756,0.473227667196245,4.538600162779624,1.268721804511278,0,0.05
1757328221.9854982,-0.767,-0.107,9.756,0.473227667196245,4.538600162779624,1.268721804511278,0,0.05
1757328222.013112,-0.707,0.11,9.871,0.4745461489676215,4.145872450816319,1.2717293233082705,0,0.05
1757328222.0402448,-0.707,0.11,9.871,0.4745461489676215,4.145872450816319,1.2717293233082705,0,0.05
1757328222.067296,-0.69,0.174,9.867,0.4757985892160673,4.124989079746194,1.272581453634085,0,0.05
1757328222.0946813,-0.69,0.174,9.867,0.4757985892160673,4.124989079746194,1.272581453634085,0,0.05
1757328222.121887,-0.589,-0.012,9.836,0.4767091356372353,3.4276068754527094,1.277644110275689,0,0.05
1757328222.149272,-0.589,-0.012,9.836,0.4767091356372353,3.4276068754527094,1.277644110275689,0,0.05
1757328222.1765702,-0.66,-0.14,9.947,0.47784997645704663,3.8803147506318414,1.2812030075187968,0,0.05
1757328222.204035,-0.66,-0.14,9.947,0.47784997645704663,3.8803147506318414,1.2812030075187968,0,0.05
1757328222.230296,-0.427,-0.023,9.862,0.47832669013969936,2.4828053020375127,1.2928822055137843,0,0.05
1757328222.2559397,-0.427,-0.023,9.862,0.47832669013969936,2.4828053020375127,1.2928822055137843,0,0.05
1757328222.2812583,-0.489,0.022,9.777,0.4789511718327871,2.866173536570727,1.2959899749373434,0,0.05
1757328222.30675,-0.489,0.022,9.777,0.4789511718327871,2.866173536570727,1.2959899749373434,0,0.05
1757328222.3324077,-0.536,-0.468,9.578,0.4797003908691341,4.248770379992505,1.2983458646616541,0,0.05
1757328222.3596063,-0.536,-0.468,9.578,0.4797003908691341,4.248770379992505,1.2983458646616541,0,0.05
1757328222.385087,-0.782,-0.525,9.733,0.48129125797171923,5.527438954674777,1.3106766917293233,0,0.05
1757328222.4126341,-0.782,-0.525,9.733,0.48129125797171923,5.527438954674777,1.3106766917293233,0,0.05
1757328222.4400415,-0.675,0.039,9.567,0.4824731469211525,4.042526111519443,1.3160401002506266,0,0.05
1757328222.467498,-0.675,0.039,9.567,0.4824731469211525,4.042526111519443,1.3160401002506266,0,0.05
1757328222.4950316,-0.487,-0.3,9.732,0.48308721779819436,3.3636227576329754,1.3254636591478695,0,0.05
1757328222.52109,-0.487,-0.3,9.732,0.48308721779819436,3.3636227576329754,1.3254636591478695,0,0.05
1757328222.547424,-0.296,-0.042,9.629,0.48331387317146196,1.7783700084230734,1.3350375939849624,0,0.05
1757328222.57414,-0.296,-0.042,9.629,0.48331387317146196,1.7783700084230734,1.3350375939849624,0,0.05
1757328222.5996783,-0.613,0.045,9.597,0.48428475352833483,3.6645606102460713,1.3509273182957393,0,0.05
1757328222.6254735,-0.613,0.045,9.597,0.48428475352833483,3.6645606102460713,1.3509273182957393,0,0.05
1757328222.6523197,-0.714,-0.185,9.581,0.485598818470556,4.40214029754612,1.3559899749373432,0,0.05
1757328222.6786895,-0.714,-0.185,9.581,0.485598818470556,4.40214029754612,1.3559899749373432,0,0.05
1757328222.7042089,-0.714,-0.185,9.581,0.485598818470556,4.40214029754612,1.3559899749373432,0,0.05
1757328222.7309644,-0.675,-0.16,9.571,0.48677024868001123,4.145535485334183,1.3579448621553882,0,0.05
1757328222.757531,-0.675,-0.16,9.571,0.48677024868001123,4.145535485334183,1.3579448621553882,0,0.05
1757328222.7851298,-0.531,-0.18,9.663,0.4874937717550861,3.320766301027879,1.3651629072681704,0,0.05
1757328222.8120618,-0.531,-0.18,9.663,0.4874937717550861,3.320766301027879,1.3651629072681704,0,0.05
1757328222.8388178,-0.484,-0.093,9.61,0.4880940662413343,2.9358721825804857,1.367518796992481,0,0.05
1757328222.8650472,-0.484,-0.093,9.61,0.4880940662413343,2.9358721825804857,1.367518796992481,0,0.05
1757328222.8911486,-0.487,-0.078,9.507,0.48870107427751786,2.9697444605666727,1.3676691729323307,0,0.05
1757328222.9166727,-0.487,-0.078,9.507,0.48870107427751786,2.9697444605666727,1.3676691729323307,0,0.05
1757328222.9439356,-0.653,0.01,9.593,0.48979052920610866,3.8945985120059863,1.3759899749373432,0,0.05
1757328222.9712713,-0.653,0.01,9.593,0.48979052920610866,3.8945985120059863,1.3759899749373432,0,0.05
1757328222.999276,-0.732,-0.209,9.653,0.4911561080756301,4.509111968633139,1.3799498746867165,0,0.05
1757328223.0268304,-0.732,-0.209,9.653,0.4911561080756301,4.509111968633139,1.3799498746867165,0,0.05
1757328223.054589,-0.712,-0.176,9.621,0.4924445984067649,4.359353577970359,1.3809523809523807,0,0.05
1757328223.0819023,-0.712,-0.176,9.621,0.4924445984067649,4.359353577970359,1.3809523809523807,0,0.05
1757328223.1093721,-0.586,0.147,9.659,0.49331548982370305,3.5791052071184377,1.3872681704260652,0,0.05
1757328223.136878,-0.586,0.147,9.659,0.49331548982370305,3.5791052071184377,1.3872681704260652,0,0.05
1757328223.163911,-0.675,0.159,9.628,0.4944686390459965,4.11971632348219,1.3917293233082706,0,0.05
1757328223.1918285,-0.675,0.159,9.628,0.4944686390459965,4.11971632348219,1.3917293233082706,0,0.05
1757328223.2192852,-0.668,-0.215,9.639,0.49559539444994843,4.1639523134739225,1.392080200501253,0,0.05
1757328223.2469578,-0.668,-0.215,9.639,0.49559539444994843,4.1639523134739225,1.392080200501253,0,0.05
1757328223.2741494,-0.742,-0.115,9.867,0.4969820972630704,4.35170633548476,1.3957894736842107,0,0.05
1757328223.3017766,-0.525,0.009,9.806,0.4976748612296989,3.0650622063006256,1.4066666666666667,0,0.05
1757328223.3292198,-0.525,0.009,9.806,0.4976748612296989,3.0650622063006256,1.4066666666666667,0,0.05
1757328223.3563912,-0.627,-0.125,9.812,0.4986612978766249,3.728057515006636,1.4117794486215538,0,0.05
1757328223.3837225,-0.627,-0.125,9.812,0.4986612978766249,3.728057515006636,1.4117794486215538,0,0.05
1757328223.4110997,-0.674,-0.082,9.802,0.49979873949420883,3.9624631573099443,1.4141353383458646,0,0.05
1757328223.4382882,-0.674,-0.082,9.802,0.49979873949420883,3.9624631573099443,1.4141353383458646,0,0.05
1757328223.465525,-0.806,0.094,9.833,0.5014208511819188,4.717612409762618,1.4207518796992478,0,0.05
1757328223.4930978,-0.806,0.094,9.833,0.5014208511819188,4.717612409762618,1.4207518796992478,0,0.05
1757328223.5204313,-0.906,-0.284,9.977,0.5034629678536446,5.436227814664915,1.425764411027569,0,0.05
1757328223.5481422,-0.906,-0.284,9.977,0.5034629678536446,5.436227814664915,1.425764411027569,0,0.05
1757328223.5752704,-0.589,-0.138,9.853,0.5043235692489495,3.513412164078877,1.4416541353383459,0,0.05
1757328223.6029103,-0.589,-0.138,9.853,0.5043235692489495,3.513412164078877,1.4416541353383459,0,0.05
1757328223.6303554,-0.745,-0.142,9.929,0.5056973650316956,4.367972677196164,1.449473684210526,0,0.05
1757328223.6581495,-0.745,-0.142,9.929,0.5056973650316956,4.367972677196164,1.449473684210526,0,0.05
1757328223.6854663,-0.696,-0.067,10.019,0.5068933467703044,3.992150434513024,1.4519298245614034,0,0.05
1757328223.7128317,-0.696,-0.067,10.019,0.5068933467703044,3.992150434513024,1.4519298245614034,0,0.05
1757328223.740021,-0.705,-0.068,9.811,0.5081175331554698,4.129111116686728,1.4523809523809523,0,0.05
1757328223.7671797,-0.705,-0.068,9.811,0.5081175331554698,4.129111116686728,1.4523809523809523,0,0.05
1757328223.794445,-0.785,0.095,9.923,0.509631229419862,4.556063484463058,1.456390977443609,0,0.05
1757328223.8219266,-0.785,0.095,9.923,0.509631229419862,4.556063484463058,1.456390977443609,0,0.05
1757328223.8491955,-0.853,-0.093,10.002,0.5114127613777348,4.903303342976585,1.459799498746867,0,0.05
1757328223.8764515,-0.853,-0.093,10.002,0.5114127613777348,4.903303342976585,1.459799498746867,0,0.05
1757328223.903776,-0.588,-0.224,9.71,0.5122571351382038,3.707663626421908,1.4730827067669172,0,0.05
1757328223.931217,-0.588,-0.224,9.71,0.5122571351382038,3.707663626421908,1.4730827067669172,0,0.05
1757328223.9589512,-0.702,-0.238,9.963,0.5134582577970677,4.254968897283937,1.478796992481203,0,0.05
1757328223.986742,-0.702,-0.238,9.963,0.5134582577970677,4.254968897283937,1.478796992481203,0,0.05
1757328224.014231,-0.674,-0.022,9.947,0.5145629917706869,3.8784446517666535,1.480200501253133,0,0.05
1757328224.0415487,-0.674,-0.022,9.947,0.5145629917706869,3.8784446517666535,1.480200501253133,0,0.05
1757328224.0689542,-0.59,-0.308,9.921,0.5154079185460775,3.837966297429064,1.4844110275689222,0,0.05
1757328224.0968149,-0.59,-0.308,9.921,0.5154079185460775,3.837966297429064,1.4844110275689222,0,0.05
1757328224.1244345,-0.704,0.101,9.774,0.5166085195774456,4.161810121223558,1.490125313283208,0,0.05
1757328224.151872,-0.704,0.101,9.774,0.5166085195774456,4.161810121223558,1.490125313283208,0,0.05
1757328224.1791408,-0.83,0.037,9.982,0.5182727201966162,4.7578897655604955,1.4964411027568922,0,0.05
1757328224.2066767,-0.83,0.037,9.982,0.5182727201966162,4.7578897655604955,1.4964411027568922,0,0.05
1757328224.2343867,-0.76,-0.105,9.906,0.5196639418893714,4.428713018408588,1.4999498746867168,0,0.05
1757328224.2616687,-0.76,-0.105,9.906,0.5196639418893714,4.428713018408588,1.4999498746867168,0,0.05
1757328224.2889385,-0.635,-0.084,9.73,0.5206329561216808,3.7663814917915843,1.506215538847118,0,0.05
1757328224.3170748,-0.635,-0.084,9.73,0.5206329561216808,3.7663814917915843,1.506215538847118,0,0.05
1757328224.3450708,-0.707,0.02,9.883,0.5218316754471695,4.0934280324944,1.5098245614035086,0,0.05
1757328224.3724344,-0.707,0.02,9.883,0.5218316754471695,4.0934280324944,1.5098245614035086,0,0.05
1757328224.3998709,-0.781,-0.227,9.719,0.5232907413665944,4.783568269158816,1.5135338345864662,0,0.05
1757328224.4272225,-0.781,-0.227,9.719,0.5232907413665944,4.783568269158816,1.5135338345864662,0,0.05
1757328224.4544117,-0.723,0.21,9.772,0.5245379133103726,4.4056308078430355,1.516441102756892,0,0.05
1757328224.4817903,-0.723,0.21,9.772,0.5245379133103726,4.4056308078430355,1.516441102756892,0,0.05
1757328224.508983,-0.667,0.286,9.811,0.5255970367115858,4.230528157060555,1.519248120300752,0,0.05
1757328224.536452,-0.667,0.286,9.811,0.5255970367115858,4.230528157060555,1.519248120300752,0,0.05
1757328224.5636687,-0.617,-0.3,9.664,0.5265016310516046,4.060735729304759,1.521754385964912,0,0.05
1757328224.5909667,-0.617,-0.3,9.664,0.5265016310516046,4.060735729304759,1.521754385964912,0,0.05
1757328224.6182008,-0.65,-0.124,9.224,0.527503760650102,4.103321373041637,1.5234085213032582,0,0.05
1757328224.645528,-0.65,-0.124,9.224,0.527503760650102,4.103321373041637,1.5234085213032582,0,0.05
1757328224.6730826,-0.626,-0.013,9.578,0.5284315542243858,3.7402294542249366,1.524611528822055,0,0.05
1757328224.7003725,-0.626,-0.013,9.578,0.5284315542243858,3.7402294542249366,1.524611528822055,0,0.05
1757328224.7274783,-0.69,0.068,9.755,0.5295565668557042,4.065496039095246,1.5278195488721802,0,0.05
1757328224.7549338,-0.69,0.068,9.755,0.5295565668557042,4.065496039095246,1.5278195488721802,0,0.05
1757328224.7828803,-0.502,-0.013,9.574,0.5301510798819522,3.002484045744764,1.5372431077694235,0,0.05
1757328224.810617,-0.502,-0.013,9.574,0.5301510798819522,3.002484045744764,1.5372431077694235,0,0.05
1757328224.8383465,-0.694,-0.064,9.813,0.5312854764625136,4.062473663543314,1.5468671679197996,0,0.05
1757328224.8661053,-0.704,-0.097,9.902,0.5324502770212445,4.104990596110542,1.5473684210526315,0,0.05
1757328224.8933887,-0.704,-0.097,9.902,0.5324502770212445,4.104990596110542,1.5473684210526315,0,0.05
1757328224.9211118,-0.761,-0.292,9.624,0.5338081115906727,4.8410740352443336,1.5502255639097744,0,0.05
1757328224.9483368,-0.761,-0.292,9.624,0.5338081115906727,4.8410740352443336,1.5502255639097744,0,0.05
1757328224.9757454,-0.692,-0.26,9.845,0.5349282755659865,4.294113150352573,1.553684210526316,0,0.05
1757328225.0030968,-0.692,-0.26,9.845,0.5349282755659865,4.294113150352573,1.553684210526316,0,0.05
1757328225.0304177,-0.696,-0.099,9.973,0.5360590452552778,4.032161012633815,1.5538847117794485,0,0.05
1757328225.0580955,-0.696,-0.099,9.973,0.5360590452552778,4.032161012633815,1.5538847117794485,0,0.05
1757328225.0853515,-0.634,-0.215,9.687,0.5369955213965941,3.953393706395058,1.5569924812030076,0,0.05
1757328225.1127117,-0.634,-0.215,9.687,0.5369955213965941,3.953393706395058,1.5569924812030076,0,0.05
1757328225.1399872,-0.827,-0.012,9.577,0.5385851952105627,4.935920257990507,1.5666666666666664,0,0.05
1757328225.1676257,-0.827,-0.012,9.577,0.5385851952105627,4.935920257990507,1.5666666666666664,0,0.05
1757328225.1950717,-0.735,-0.024,10.041,0.539837545007755,4.188800706372913,1.571278195488722,0,0.05
1757328225.2226226,-0.735,-0.024,10.041,0.539837545007755,4.188800706372913,1.571278195488722,0,0.05
1757328225.2501166,-0.718,-0.226,9.83,0.5410299298560107,4.378856323621951,1.5721303258145363,0,0.05
1757328225.2776582,-0.718,-0.226,9.83,0.5410299298560107,4.378856323621951,1.5721303258145363,0,0.05
1757328225.3049042,-0.775,-0.362,9.681,0.5424158437029656,5.049325775747034,1.5749874686716794,0,0.05
1757328225.3321614,-0.775,-0.362,9.681,0.5424158437029656,5.049325775747034,1.5749874686716794,0,0.05
1757328225.359524,-0.627,-0.183,9.986,0.5433210560985098,3.742247249169897,1.582406015037594,0,0.05
1757328225.3870294,-0.627,-0.183,9.986,0.5433210560985098,3.742247249169897,1.582406015037594,0,0.05
1757328225.4143605,-0.714,0.126,9.736,0.5444926629441392,4.258911298209805,1.586766917293233,0,0.05
1757328225.4426303,-0.714,0.126,9.736,0.5444926629441392,4.258911298209805,1.586766917293233,0,0.05
1757328225.46998,-0.683,0.019,9.54,0.5455625376618156,4.096585316376598,1.5883208020050126,0,0.05
1757328225.4975305,-0.683,0.019,9.54,0.5455625376618156,4.096585316376598,1.5883208020050126,0,0.05
1757328225.524993,-0.81,0.142,9.819,0.5470637371458649,4.787415947554051,1.5946867167919798,0,0.05
1757328225.552411,-0.81,0.142,9.819,0.5470637371458649,4.787415947554051,1.5946867167919798,0,0.05
1757328225.5796854,-0.796,0.156,9.678,0.5485095919854092,4.7909350623164375,1.5953884711779447,0,0.05
1757328225.6073685,-0.796,0.156,9.678,0.5485095919854092,4.7909350623164375,1.5953884711779447,0,0.05
1757328225.634624,-0.735,-0.023,9.527,0.5497393336846109,4.413733156668232,1.5984461152882206,0,0.05
1757328225.662179,-0.735,-0.023,9.527,0.5497393336846109,4.413733156668232,1.5984461152882206,0,0.05
1757328225.690625,-0.649,-0.076,9.67,0.5506962297855325,3.8657937837186114,1.6027568922305764,0,0.05
1757328225.7179103,-0.649,-0.076,9.67,0.5506962297855325,3.8657937837186114,1.6027568922305764,0,0.05
1757328225.745206,-0.627,-0.054,9.806,0.5515878533833029,3.672043595730301,1.6038596491228068,0,0.05
1757328225.7724752,-0.627,-0.054,9.806,0.5515878533833029,3.672043595730301,1.6038596491228068,0,0.05
1757328225.7998316,-0.539,-0.044,9.648,0.552245835203852,3.208205171691057,1.6082706766917292,0,0.05
1757328225.827528,-0.539,-0.044,9.648,0.552245835203852,3.208205171691057,1.6082706766917292,0,0.05
1757328225.8549438,-0.74,-0.014,9.795,0.5534839315644132,4.321187398608095,1.6183458646616542,0,0.05
1757328225.8826442,-0.74,-0.014,9.795,0.5534839315644132,4.321187398608095,1.6183458646616542,0,0.05
1757328225.909968,-0.679,-0.064,9.786,0.5545241789137783,3.9866325983056194,1.6214035087719296,0,0.05
1757328225.9372754,-0.679,-0.064,9.786,0.5545241789137783,3.9866325983056194,1.6214035087719296,0,0.05
1757328225.9649324,-0.759,0.043,9.638,0.5558212549912067,4.509984834874932,1.6254135338345863,0,0.05
1757328225.99281,-0.759,0.043,9.638,0.5558212549912067,4.509984834874932,1.6254135338345863,0,0.05
1757328226.0200899,-0.607,-0.223,9.734,0.5566492522226182,3.800792732350986,1.633032581453634,0,0.05
1757328226.0473998,-0.607,-0.223,9.734,0.5566492522226182,3.800792732350986,1.633032581453634,0,0.05
1757328226.0746841,-0.539,-0.309,9.902,0.5573012582975208,3.590257078449876,1.6364411027568921,0,0.05
1757328226.1021843,-0.539,-0.309,9.902,0.5573012582975208,3.590257078449876,1.6364411027568921,0,0.05
1757328226.1294632,-0.63,0.138,9.645,0.5581907760792899,3.8255316662893706,1.6410025062656641,0,0.05
1757328226.1568077,-0.63,0.138,9.645,0.5581907760792899,3.8255316662893706,1.6410025062656641,0,0.05
1757328226.1844196,-0.592,0.106,9.688,0.5589750464018944,3.5522686484822144,1.6429072681704258,0,0.05
1757328226.21188,-0.592,0.106,9.688,0.5589750464018944,3.5522686484822144,1.6429072681704258,0,0.05
1757328226.2393506,-0.66,-0.219,9.869,0.559948303417378,4.030490713393555,1.6463157894736842,0,0.05
1757328226.266981,-0.66,-0.219,9.869,0.559948303417378,4.030490713393555,1.6463157894736842,0,0.05
1757328226.2945414,-0.666,-0.158,9.616,0.5609376012534728,4.071555385864311,1.6466165413533835,0,0.05
1757328226.3220584,-0.666,-0.158,9.616,0.5609376012534728,4.071555385864311,1.6466165413533835,0,0.05
1757328226.3498592,-0.68,-0.189,9.568,0.5619670742134275,4.2187428298348975,1.6473182957393484,0,0.05
1757328226.377019,-0.633,-0.105,9.755,0.5628576329765813,3.763292856063383,1.649674185463659,0,0.05
1757328226.4043329,-0.633,-0.105,9.755,0.5628576329765813,3.763292856063383,1.649674185463659,0,0.05
1757328226.431685,-0.495,-0.208,9.621,0.5634015242258402,3.1942300543115243,1.656591478696742,0,0.05
1757328226.4594967,-0.495,-0.208,9.621,0.5634015242258402,3.1942300543115243,1.656591478696742,0,0.05
1757328226.4873996,-0.563,-0.051,9.613,0.5641043343212317,3.3654784702313276,1.6599999999999997,0,0.05
1757328226.5146801,-0.563,-0.051,9.613,0.5641043343212317,3.3654784702313276,1.6599999999999997,0,0.05
1757328226.5419512,-0.626,-0.108,9.868,0.564972025856148,3.6833072150487447,1.663157894736842,0,0.05
1757328226.5696561,-0.626,-0.108,9.868,0.564972025856148,3.6833072150487447,1.663157894736842,0,0.05
1757328226.5973332,-0.577,-0.12,9.776,0.5657081513466109,3.4499013210778164,1.665614035087719,0,0.1
1757328226.625231,-0.577,-0.12,9.776,0.5657081513466109,3.4499013210778164,1.665614035087719,0,0.1
1757328226.6525416,-0.731,-0.076,9.6,0.5668876564188005,4.377811561255135,1.6733333333333336,0,0.1
1757328226.680111,-0.731,-0.076,9.6,0.5668876564188005,4.377811561255135,1.6733333333333336,0,0.1
1757328226.7074132,-0.731,-0.12,9.818,0.5680647124228014,4.314883868470637,1.673333333333333,0,0.1
1757328226.7351289,-0.731,-0.12,9.818,0.5680647124228014,4.314883868470637,1.673333333333333,0,0.1
1757328226.7632358,-0.51,-0.167,9.758,0.5686367623536136,3.147838910600877,1.6844110275689221,0,0.1
1757328226.7907705,-0.51,-0.167,9.758,0.5686367623536136,3.147838910600877,1.6844110275689221,0,0.1
1757328226.8181443,-0.757,0.043,9.926,0.5698950692890754,4.368186609388473,1.6967919799498747,0,0.1
1757328226.8459747,-0.757,0.043,9.926,0.5698950692890754,4.368186609388473,1.6967919799498747,0,0.1
1757328226.8738167,-0.551,-0.002,9.86,0.5705605949415014,3.1985173062336876,1.7071177944862155,0,0.1
1757328226.9012861,-0.551,-0.002,9.86,0.5705605949415014,3.1985173062336876,1.7071177944862155,0,0.1
1757328226.9286287,-0.751,-0.245,9.986,0.5717948889243415,4.523024658080117,1.717142857142857,0,0.1
1757328226.9561543,-0.751,-0.245,9.986,0.5717948889243415,4.523024658080117,1.717142857142857,0,0.1
1757328226.98373,-0.484,-0.287,9.881,0.5723067665160007,3.259308914250995,1.7305263157894737,0,0.1
1757328227.0113652,-0.484,-0.287,9.881,0.5723067665160007,3.259308914250995,1.7305263157894737,0,0.1
1757328227.03894,-0.637,-0.263,9.756,0.573192339010214,4.04062450178214,1.7381954887218045,0,0.1
1757328227.067081,-0.637,-0.263,9.756,0.573192339010214,4.04062450178214,1.7381954887218045,0,0.1
1757328227.0945413,-0.512,0.026,9.645,0.5737637296832208,3.0425737335714476,1.7444611528822054,0,0.1
1757328227.122049,-0.512,0.026,9.645,0.5737637296832208,3.0425737335714476,1.7444611528822054,0,0.1
1757328227.149433,-0.629,0.019,9.446,0.5746250255601474,3.8113789038182384,1.750325814536341,0,0.1
1757328227.1774487,-0.629,0.019,9.446,0.5746250255601474,3.8113789038182384,1.750325814536341,0,0.1
1757328227.2048864,-0.744,-0.116,9.53,0.5758278909535383,4.517694619581395,1.75609022556391,0,0.1
1757328227.232667,-0.744,-0.116,9.53,0.5758278909535383,4.517694619581395,1.75609022556391,0,0.1
1757328227.25997,-0.691,-0.224,9.756,0.5768634695489047,4.258200100813216,1.7587468671679198,0,0.1
1757328227.2872794,-0.691,-0.224,9.756,0.5768634695489047,4.258200100813216,1.7587468671679198,0,0.1
1757328227.3150775,-0.506,0.041,9.553,0.5774180050015759,3.0419079852311577,1.7680200501253134,0,0.1
1757328227.3427713,-0.506,0.041,9.553,0.5774180050015759,3.0419079852311577,1.7680200501253134,0,0.1
1757328227.370029,-0.676,0.065,9.517,0.5784064250161819,4.081616146759372,1.7765413533834586,0,0.1
1757328227.397723,-0.676,0.065,9.517,0.5784064250161819,4.081616146759372,1.7765413533834586,0,0.1
1757328227.4249547,-0.694,-0.155,9.754,0.5794463586044872,4.169672721816105,1.7774436090225565,0,0.1
1757328227.4521859,-0.694,-0.155,9.754,0.5794463586044872,4.169672721816105,1.7774436090225565,0,0.1
1757328227.4797192,-0.671,-0.225,9.818,0.580416820052624,4.122967009862839,1.7785964912280703,0,0.1
1757328227.506094,-0.671,-0.225,9.818,0.580416820052624,4.122967009862839,1.7785964912280703,0,0.1
1757328227.532012,-0.515,-0.153,9.611,0.5809877343799953,3.1994554089745995,1.7864160401002505,0,0.1
1757328227.5587568,-0.515,-0.153,9.611,0.5809877343799953,3.1994554089745995,1.7864160401002505,0,0.1
1757328227.5852654,-0.6,-0.317,9.955,0.5817617618063257,3.8995965935555823,1.7906766917293233,0,0.1
1757328227.6114984,-0.6,-0.317,9.955,0.5817617618063257,3.8995965935555823,1.7906766917293233,0,0.1
1757328227.6371284,-0.557,-0.114,10.006,0.5824279955496645,3.2520806726103175,1.792832080200501,0,0.1
1757328227.6638477,-0.557,-0.114,10.006,0.5824279955496645,3.2520806726103175,1.792832080200501,0,0.1
1757328227.6905403,-0.821,-0.062,9.7,0.583872822196752,4.851646758314042,1.806065162907268,0,0.1
1757328227.7176716,-0.821,-0.062,9.7,0.583872822196752,4.851646758314042,1.806065162907268,0,0.1
1757328227.7450507,-0.586,-0.089,10.012,0.5846075286035923,3.388010737792956,1.8178446115288218,0,0.1
1757328227.7734942,-0.586,-0.089,10.012,0.5846075286035923,3.388010737792956,1.8178446115288218,0,0.1
1757328227.8005033,-0.522,-0.049,9.954,0.5851898602163234,3.0150837196903826,1.821052631578947,0,0.1
1757328227.8286211,-0.522,-0.049,9.954,0.5851898602163234,3.0150837196903826,1.821052631578947,0,0.1
1757328227.8559773,-0.613,0.01,9.77,0.5859919752010262,3.5906844969828766,1.8256140350877192,0,0.1
1757328227.8838913,-0.613,0.01,9.77,0.5859919752010262,3.5906844969828766,1.8256140350877192,0,0.1
1757328227.9101694,-0.681,-0.101,9.939,0.5869804064021217,3.9624022822595566,1.8290225563909774,0,0.1
1757328227.9377258,-0.681,-0.101,9.939,0.5869804064021217,3.9624022822595566,1.8290225563909774,0,0.1
1757328227.9651427,-0.698,-0.245,9.967,0.5880170129341497,4.24470168710678,1.8298746867167917,0,0.1
1757328227.9927533,-0.698,-0.245,9.967,0.5880170129341497,4.24470168710678,1.8298746867167917,0,0.1
1757328228.020683,-0.557,0.043,9.729,0.5886761673450013,3.286421579863443,1.8369423558897244,0,0.1
1757328228.048376,-0.557,0.043,9.729,0.5886761673450013,3.286421579863443,1.8369423558897244,0,0.1
1757328228.0758355,-0.589,-0.031,9.726,0.5894123620183072,3.4703462400700276,1.8385463659147867,0,0.1
1757328228.1034172,-0.589,-0.031,9.726,0.5894123620183072,3.4703462400700276,1.8385463659147867,0,0.1
1757328228.1309998,-0.58,-0.061,9.848,0.5901253532089601,3.3891000813275256,1.8389974937343359,0,0.1
1757328228.158949,-0.58,-0.061,9.848,0.5901253532089601,3.3891000813275256,1.8389974937343359,0,0.1
1757328228.1871567,-0.613,-0.201,9.86,0.5909207688006912,3.743368240342357,1.8406516290726815,0,0.1
1757328228.214504,-0.613,-0.201,9.86,0.5909207688006912,3.743368240342357,1.8406516290726815,0,0.1
1757328228.2421906,-0.448,-0.027,9.771,0.5913451741580378,2.629927495923646,1.848922305764411,0,0.1
1757328228.270349,-0.71,-0.061,9.958,0.5924097948211188,4.093229714116413,1.8620551378446115,0,0.1
1757328228.298469,-0.71,-0.061,9.958,0.5924097948211188,4.093229714116413,1.8620551378446115,0,0.1
1757328228.32655,-0.641,-0.035,9.857,0.5932761309036458,3.7262282180724178,1.8655137844611527,0,0.1
1757328228.3542633,-0.641,-0.035,9.857,0.5932761309036458,3.7262282180724178,1.8655137844611527,0,0.1
1757328228.3821504,-0.809,-0.105,9.76,0.5946534873352716,4.777937547972548,1.873934837092732,0,0.1
1757328228.4101253,-0.809,-0.105,9.76,0.5946534873352716,4.777937547972548,1.873934837092732,0,0.1
1757328228.437566,-0.646,-0.298,9.898,0.5955300664114282,4.111078212102493,1.8821052631578947,0,0.1
1757328228.4655821,-0.646,-0.298,9.898,0.5955300664114282,4.111078212102493,1.8821052631578947,0,0.1
1757328228.493342,-0.578,-0.129,9.817,0.5962308864860995,3.452241748666482,1.885513784461153,0,0.1
1757328228.521422,-0.578,-0.129,9.817,0.5962308864860995,3.452241748666482,1.885513784461153,0,0.1
1757328228.5474036,-0.488,-0.072,9.671,0.5967299472960947,2.9199209123266825,1.8900250626566417,0,0.1
1757328228.5751112,-0.488,-0.072,9.671,0.5967299472960947,2.9199209123266825,1.8900250626566417,0,0.1
1757328228.6029637,-0.558,-0.22,9.803,0.5973818209487128,3.5013167722041314,1.893533834586466,0,0.1
1757328228.6308815,-0.558,-0.22,9.803,0.5973818209487128,3.5013167722041314,1.893533834586466,0,0.1
1757328228.6584182,-0.841,-0.326,10.049,0.5988599523260844,5.128986360550253,1.907719298245614,0,0.1
1757328228.6864994,-0.841,-0.326,10.049,0.5988599523260844,5.128986360550253,1.907719298245614,0,0.1
1757328228.7148252,-0.71,-0.258,9.732,0.5999112371843022,4.4385466889715,1.9142857142857141,0,0.1
1757328228.7428665,-0.71,-0.258,9.732,0.5999112371843022,4.4385466889715,1.9142857142857141,0,0.1
1757328228.7706363,-0.745,-0.45,9.88,0.6010665978075974,5.0343627180995085,1.9160401002506267,0,0.1
1757328228.7987595,-0.745,-0.45,9.88,0.6010665978075974,5.0343627180995085,1.9160401002506267,0,0.1
1757328228.8267891,-0.552,-0.234,9.74,0.6016999376765797,3.5224215947637516,1.9257142857142857,0,0.1
1757328228.8551838,-0.552,-0.234,9.74,0.6016999376765797,3.5224215947637516,1.9257142857142857,0,0.1
1757328228.8827977,-0.65,-0.226,9.708,0.6025770199733808,4.054729184762125,1.93062656641604,0,0.1
1757328228.9105804,-0.65,-0.226,9.708,0.6025770199733808,4.054729184762125,1.93062656641604,0,0.1
1757328228.9381607,-0.603,-0.207,9.845,0.6033308275730654,3.705175369069293,1.9329824561403508,0,0.1
1757328228.9661133,-0.603,-0.207,9.845,0.6033308275730654,3.705175369069293,1.9329824561403508,0,0.1
1757328228.9942698,-0.587,-0.126,9.785,0.6040442947334242,3.5110516020228264,1.933784461152882,0,0.1
1757328229.0218732,-0.587,-0.126,9.785,0.6040442947334242,3.5110516020228264,1.933784461152882,0,0.1
1757328229.0499654,-0.775,-0.074,9.718,0.6052859427576358,4.580276849441788,1.9432080200501252,0,3.1
1757328229.0784369,-0.796,-0.333,9.778,0.606593036969598,5.042929743231715,1.9176942355889721,0,3.1
1757328229.1068296,-0.796,-0.333,9.778,0.606593036969598,5.042929743231715,1.9176942355889721,0,3.1
1757328229.1345172,-0.703,0.222,9.877,0.6070324414724472,4.268644541977202,1.9223558897243107,0,3.1
1757328229.1630042,-0.703,0.222,9.877,0.6070324414724472,4.268644541977202,1.9223558897243107,0,3.1
1757328229.190876,-0.6,0.139,9.894,0.607195302188678,3.5620019831001817,1.9272681704260652,0,3.1
1757328229.2185433,-0.6,0.139,9.894,0.607195302188678,3.5620019831001817,1.9272681704260652,0,3.1
1757328229.2462387,-0.718,-0.083,9.889,0.6076889685521698,4.1802830049056245,1.9323809523809523,0,3.1
1757328229.2737987,-0.718,-0.083,9.889,0.6076889685521698,4.1802830049056245,1.9323809523809523,0,3.1
1757328229.301873,-0.725,-0.189,9.847,0.6082369953398099,4.351089584329281,1.9316791979949874,0,3.1
1757328229.3295171,-0.725,-0.189,9.847,0.6082369953398099,4.351089584329281,1.9316791979949874,0,3.1
1757328229.3572235,-0.725,-0.189,9.847,0.6082369953398099,4.351089584329281,1.9316791979949874,0,3.1
1757328229.3851514,-0.72,0.125,9.831,0.608812682604428,4.251162941997734,1.9316290726817043,0,3.1
1757328229.4129717,-0.62,0.12,9.636,0.6091008065172793,3.749581583448002,1.936441102756892,0,3.1
1757328229.440659,-0.62,0.12,9.636,0.6091008065172793,3.749581583448002,1.936441102756892,0,3.1
1757328229.4682293,-0.711,-0.112,9.879,0.609629055245893,4.1671110592859835,1.939548872180451,0,3.1
1757328229.4958541,-0.711,-0.112,9.879,0.609629055245893,4.1671110592859835,1.939548872180451,0,3.1
1757328229.5229232,-0.823,-0.151,9.995,0.610447856086005,4.785393873437548,1.9438095238095237,0,3.1
1757328229.548465,-0.823,-0.151,9.995,0.610447856086005,4.785393873437548,1.9438095238095237,0,3.1
1757328229.5766246,-0.609,-0.183,10.009,0.6105788216929899,3.6352818945661367,1.9542857142857142,0,3.1
1757328229.6049209,-0.609,-0.183,10.009,0.6105788216929899,3.6352818945661367,1.9542857142857142,0,3.1
1757328229.6328871,-0.609,-0.183,10.009,0.6105788216929899,3.6352818945661367,1.9542857142857142,0,3.1
1757328229.6616807,-0.766,-0.287,9.956,0.6111627320116959,4.696961291627793,1.9619047619047618,0,3.1
1757328229.689636,-0.742,-0.062,9.949,0.6116832963225332,4.280052239944731,1.9616040100250625,0,3.1
1757328229.717383,-0.742,-0.062,9.949,0.6116832963225332,4.280052239944731,1.9616040100250625,0,3.1
1757328229.7452476,-0.742,-0.062,9.949,0.6116832963225332,4.280052239944731,1.9616040100250625,0,3.1
1757328229.772726,-0.869,-0.055,10.029,0.6126857820286024,4.962096220566758,1.9668671679197993,0,3.1
1757328229.8009288,-0.799,-0.304,9.979,0.6134938548999492,4.896444886596027,1.970175438596491,0,3.1
1757328229.82878,-0.799,-0.304,9.979,0.6134938548999492,4.896444886596027,1.970175438596491,0,3.1
1757328229.856526,-0.605,-0.124,9.93,0.6137383257545516,3.558813977473891,1.9786466165413534,0,3.1
1757328229.8846233,-0.605,-0.124,9.93,0.6137383257545516,3.558813977473891,1.9786466165413534,0,3.1
1757328229.9127522,-0.711,-0.128,9.929,0.6142148911415287,4.161483951017116,1.9822556390977446,0,3.1
1757328229.9405587,-0.711,-0.128,9.929,0.6142148911415287,4.161483951017116,1.9822556390977446,0,3.1
1757328229.9688244,-0.795,-0.171,9.996,0.6148739159372432,4.650816142041729,1.986315789473684,0,3.1
1757328229.9968226,-0.948,-0.242,9.843,0.6160802971204322,5.67659169564303,1.9938847117794485,0,3.1
1757328230.0258138,-0.948,-0.242,9.843,0.6160802971204322,5.67659169564303,1.9938847117794485,0,3.1
1757328230.0536172,-0.948,-0.242,9.843,0.6160802971204322,5.67659169564303,1.9938847117794485,0,3.1
1757328230.081,-0.848,0.085,9.871,0.6169249893625642,4.93460633359306,1.9978947368421052,0,3.1
1757328230.109218,-0.848,0.085,9.871,0.6169249893625642,4.93460633359306,1.9978947368421052,0,3.1
1757328230.137025,-0.639,-0.031,9.832,0.6171831130223833,3.722890727730991,2.007669172932331,0,3.1
1757328230.165102,-0.724,-0.143,9.864,0.6177052654786099,4.27868188000367,2.0116791979949875,0,3.1
1757328230.1925986,-0.724,-0.143,9.864,0.6177052654786099,4.27868188000367,2.0116791979949875,0,3.1
1757328230.2201593,-0.753,-0.158,9.813,0.6183239563529784,4.483159637051905,2.012431077694236,0,3.1
1757328230.2481487,-0.753,-0.158,9.813,0.6183239563529784,4.483159637051905,2.012431077694236,0,3.1
1757328230.2758965,-0.624,-0.147,9.882,0.6185538719464942,3.7117833687206896,2.0176942355889724,0,3.1
1757328230.3037195,-0.624,-0.147,9.882,0.6185538719464942,3.7117833687206896,2.0176942355889724,0,3.1
1757328230.331305,-0.646,-0.157,9.672,0.6187880735760831,3.9320382984326265,2.0185964912280703,0,3.1
1757328230.3591485,-0.646,-0.157,9.672,0.6187880735760831,3.9320382984326265,2.0185964912280703,0,3.1
1757328230.3871884,-0.646,-0.157,9.672,0.6187880735760831,3.9320382984326265,2.0185964912280703,0,3.1
1757328230.4147508,-0.708,0.057,9.699,0.6191827819796025,4.188487844524218,2.0211027568922306,0,3.1
1757328230.4424553,-0.818,-0.094,9.939,0.6199422755386181,4.7357785701329345,2.0261654135338345,0,3.1
1757328230.4700544,-0.818,-0.094,9.939,0.6199422755386181,4.7357785701329345,2.0261654135338345,0,3.1
1757328230.498757,-0.563,-0.323,9.74,0.6200107156332058,3.8125602994519276,2.037593984962406,0,3.1
1757328230.5268068,-0.563,-0.323,9.74,0.6200107156332058,3.8125602994519276,2.037593984962406,0,3.1
1757328230.5541828,-0.645,-0.045,9.858,0.6203352218760434,3.7525487281318624,2.041704260651629,0,3.1
1757328230.5818083,-0.645,-0.045,9.858,0.6203352218760434,3.7525487281318624,2.041704260651629,0,3.1
1757328230.6092227,-0.558,-0.007,10.004,0.6204487368026468,3.1927687842037757,2.0459147869674186,0,3.1
1757328230.636929,-0.558,-0.007,10.004,0.6204487368026468,3.1927687842037757,2.0459147869674186,0,3.1
1757328230.66493,-0.656,-0.009,9.847,0.6207957111643089,3.8117291162559446,2.0494736842105263,0,3.1
1757328230.6927528,-0.656,-0.009,9.847,0.6207957111643089,3.8117291162559446,2.0494736842105263,0,3.1
1757328230.7204964,-0.905,-0.083,9.807,0.6218676024685641,5.294382534838509,2.061152882205514,0,3.1
1757328230.7489588,-0.905,-0.083,9.807,0.6218676024685641,5.294382534838509,2.061152882205514,0,3.1
1757328230.77641,-0.77,-0.095,10.086,0.62244884327951,4.3986607553429895,2.0671679197994988,0,3.1
1757328230.804787,-0.686,-0.127,9.803,0.6228168370395907,4.070744552409713,2.0710275689223057,0,3.1
1757328230.833015,-0.686,-0.127,9.803,0.6228168370395907,4.070744552409713,2.0710275689223057,0,3.1
1757328230.8605433,-0.746,-0.197,9.918,0.6233718793785937,4.44837864465509,2.072781954887218,0,3.1
1757328230.8880727,-0.746,-0.197,9.918,0.6233718793785937,4.44837864465509,2.072781954887218,0,3.1
1757328230.9155765,-0.693,-0.198,10.028,0.623825362180795,4.110884863590671,2.075187969924812,0,3.1
1757328230.9434087,-0.693,-0.198,10.028,0.623825362180795,4.110884863590671,2.075187969924812,0,3.1
1757328230.9710991,-0.691,-0.187,9.901,0.624283014745716,4.135369043823121,2.075288220551378,0,3.1
1757328230.9988258,-0.691,-0.187,9.901,0.624283014745716,4.135369043823121,2.075288220551378,0,3.1
1757328231.0264246,-0.651,0.031,9.818,0.6246329182007622,3.797831857722203,2.077142857142857,0,3.1
1757328231.0540874,-0.651,0.031,9.818,0.6246329182007622,3.797831857722203,2.077142857142857,0,3.1
1757328231.081666,-0.827,0.124,9.779,0.6255086450241915,4.887718898834297,2.083809523809524,0,3.1
1757328231.109525,-0.827,0.124,9.779,0.6255086450241915,4.887718898834297,2.083809523809524,0,3.1
1757328231.1371748,-0.954,-0.073,9.753,0.6267456042925231,5.602902893763185,2.0895739348370928,0,3.1
1757328231.1656115,-0.954,-0.073,9.753,0.6267456042925231,5.602902893763185,2.0895739348370928,0,3.1
1757328231.1934428,-0.698,0.027,9.701,0.6271116806438866,4.118483554778448,2.1022055137844613,0,3.1
1757328231.2213862,-0.698,0.027,9.701,0.6271116806438866,4.118483554778448,2.1022055137844613,0,3.1
1757328231.2489254,-0.595,0.095,9.928,0.627203364149141,3.47305542597127,2.1065664160401,0,3.1
1757328231.2769976,-0.595,0.095,9.928,0.627203364149141,3.47305542597127,2.1065664160401,0,3.1
1757328231.305123,-0.552,0.213,9.747,0.6272316298625253,3.473748654120208,2.107719298245614,0,3.1
1757328231.3328338,-0.552,0.213,9.747,0.6272316298625253,3.473748654120208,2.107719298245614,0,3.1
1757328231.360793,-0.645,0.054,9.707,0.6275238461604468,3.8147987161842876,2.1112781954887216,0,3.1
1757328231.3887768,-0.645,0.054,9.707,0.6275238461604468,3.8147987161842876,2.1112781954887216,0,3.1
1757328231.4164228,-0.955,0.1,9.805,0.6288471336501423,5.593243570749628,2.126365914786967,0,3.1
1757328231.4451368,-0.955,0.1,9.805,0.6288471336501423,5.593243570749628,2.126365914786967,0,3.1
1757328231.4730308,-0.731,0.082,9.727,0.6294001350492388,4.324646582256638,2.1365914786967415,0,3.1
1757328231.5016274,-0.731,0.082,9.727,0.6294001350492388,4.324646582256638,2.1365914786967415,0,3.1
1757328231.5295117,-0.69,-0.261,9.855,0.6297960701687492,4.280992038025023,2.138095238095238,0,3.1
1757328231.5573797,-0.69,-0.261,9.855,0.6297960701687492,4.280992038025023,2.138095238095238,0,3.1
1757328231.585165,-0.947,0.185,9.698,0.631002527728693,5.681935166521561,2.150375939849624,0,3.1
1757328231.6131394,-0.947,0.185,9.698,0.631002527728693,5.681935166521561,2.150375939849624,0,3.1
1757328231.6408877,-0.592,0.088,9.922,0.6310997128029769,3.4519550708076476,2.167769423558897,0,3.1
1757328231.6688077,-0.592,0.088,9.922,0.6310997128029769,3.4519550708076476,2.167769423558897,0,3.1
1757328231.6963794,-0.819,0.055,9.912,0.6318481205954481,4.7340459283686185,2.1778446115288217,0,3.1
1757328231.72478,-0.819,0.055,9.912,0.6318481205954481,4.7340459283686185,2.1778446115288217,0,3.1
1757328231.7524722,-0.645,-0.076,9.828,0.6321463813864634,3.7807703705058215,2.185864661654135,0,3.1
1757328231.7814028,-0.614,-0.031,9.946,0.6323954735764639,3.5370661454724273,2.1868671679197993,0,3.1
1757328231.8098378,-0.614,-0.031,9.946,0.6323954735764639,3.5370661454724273,2.1868671679197993,0,3.1
1757328231.8376493,-0.612,-0.264,9.84,0.6326176056671202,3.8750159440639007,2.18641604010025,0,3.1
1757328231.865381,-0.612,-0.264,9.84,0.6326176056671202,3.8750159440639007,2.18641604010025,0,3.1
1757328231.8930926,-0.652,0.099,9.615,0.6329170344523838,3.923655870588781,2.1876691729323303,0,3.1
1757328231.9210317,-0.652,0.099,9.615,0.6329170344523838,3.923655870588781,2.1876691729323303,0,3.1
1757328231.9486866,-0.577,0.029,9.737,0.6330029107358037,3.395566589037776,2.1912280701754385,0,3.1
1757328231.9768043,-0.577,0.029,9.737,0.6330029107358037,3.395566589037776,2.1912280701754385,0,3.1
1757328232.0050204,-0.515,-0.012,9.818,0.6329635514782822,3.003493093009836,2.193483709273183,0,3.1
1757328232.0328174,-0.515,-0.012,9.818,0.6329635514782822,3.003493093009836,2.193483709273183,0,3.1
1757328232.060515,-0.515,-0.012,9.818,0.6329635514782822,3.003493093009836,2.193483709273183,0,3.1
1757328232.0882707,-0.529,-0.061,9.663,0.6329883391500984,3.1542463991265173,2.193734335839599,0,3.1
1757328232.11617,-0.691,-0.142,9.806,0.6334214868474229,4.114746067487552,2.2011027568922303,0,3.1
1757328232.1449354,-0.691,-0.142,9.806,0.6334214868474229,4.114746067487552,2.2011027568922303,0,3.1
1757328232.1728015,-0.497,-0.217,9.795,0.6334293015009647,3.1689913805229772,2.21062656641604,0,3.1
1757328232.2006943,-0.497,-0.217,9.795,0.6334293015009647,3.1689913805229772,2.21062656641604,0,3.1
1757328232.2282128,-0.523,-0.174,9.547,0.6334971980995654,3.304238096889043,2.211077694235589,0,3.1
1757328232.2558239,-0.523,-0.174,9.547,0.6334971980995654,3.304238096889043,2.211077694235589,0,3.1
1757328232.283467,-0.616,-0.128,9.646,0.6337406804048482,3.73181819119236,2.2146365914786963,0,3.1
1757328232.311147,-0.616,-0.128,9.646,0.6337406804048482,3.73181819119236,2.2146365914786963,0,3.1
1757328232.3393936,-0.676,-0.219,9.932,0.6340920516770416,4.092278133429521,2.2174937343358394,0,3.1
1757328232.3674304,-0.676,-0.219,9.932,0.6340920516770416,4.092278133429521,2.2174937343358394,0,3.1
1757328232.395214,-0.704,-0.057,9.75,0.6345130948215333,4.143349472214869,2.2187969924812028,0,3.1
1757328232.422762,-0.704,-0.057,9.75,0.6345130948215333,4.143349472214869,2.2187969924812028,0,3.1
1757328232.4504144,-0.68,-0.176,9.744,0.6348642728961836,4.123099334091958,2.219899749373434,0,3.1
1757328232.479372,-0.68,-0.176,9.744,0.6348642728961836,4.123099334091958,2.219899749373434,0,3.1
1757328232.5057466,-0.589,-0.044,9.844,0.6349921613689417,3.4336371886165478,2.2233583959899748,0,3.1
1757328232.5317702,-0.589,-0.044,9.844,0.6349921613689417,3.4336371886165478,2.2233583959899748,0,3.1
1757328232.5582843,-0.78,0.029,9.705,0.6356794337557257,4.598200124285964,2.232781954887218,0,3.1
1757328232.5848427,-0.78,0.029,9.705,0.6356794337557257,4.598200124285964,2.232781954887218,0,3.1
1757328232.6111455,-0.835,-0.032,9.798,0.6365463965807991,4.874619649384241,2.234987468671679,0,3.1
1757328232.6370833,-0.835,-0.032,9.798,0.6365463965807991,4.874619649384241,2.234987468671679,0,3.1
1757328232.6638968,-0.675,-0.008,9.855,0.636916128701417,3.9185231882981686,2.2420050125313282,0,3.1
1757328232.6899443,-0.675,-0.008,9.855,0.636916128701417,3.9185231882981686,2.2420050125313282,0,3.1
1757328232.7162642,-0.504,-0.07,9.746,0.6368487045601962,2.988694499201109,2.2495739348370924,0,3.1
1757328232.7430096,-0.504,-0.07,9.746,0.6368487045601962,2.988694499201109,2.2495739348370924,0,3.1
1757328232.7694876,-0.718,0.014,9.683,0.6372514888174056,4.241557071244154,2.2597994987468666,0,3.1
1757328232.7964954,-0.718,0.014,9.683,0.6372514888174056,4.241557071244154,2.2597994987468666,0,3.1
1757328232.8244672,-0.651,-0.22,9.955,0.6374958352805139,3.948721136143737,2.2623057644110274,0,3.1
1757328232.8522966,-0.651,-0.22,9.955,0.6374958352805139,3.948721136143737,2.2623057644110274,0,3.1
1757328232.879522,-0.693,-0.29,9.696,0.6378865984640216,4.430340910886162,2.263358395989975,0,3.1
1757328232.90588,-0.693,-0.29,9.696,0.6378865984640216,4.430340910886162,2.263358395989975,0,3.1
1757328232.9320982,-0.662,-0.105,9.484,0.6382375889901817,4.0426188222161485,2.2639097744360903,0,3.1
1757328232.9599297,-0.662,-0.105,9.484,0.6382375889901817,4.0426188222161485,2.2639097744360903,0,3.1
1757328232.9875963,-0.549,-0.342,9.716,0.638359553856602,3.808662223679612,2.266516290726817,0,3.1
1757328233.01548,-0.549,-0.342,9.716,0.638359553856602,3.808662223679612,2.266516290726817,0,3.1
1757328233.0430553,-0.52,-0.186,9.578,0.6382966943357924,3.300002529168697,2.263107769423559,0,3.1
1757328233.0708032,-0.52,-0.186,9.578,0.6382966943357924,3.300002529168697,2.263107769423559,0,3.1
1757328233.099052,-0.485,-0.051,9.344,0.6383554730712347,2.9876217047629092,2.2600000000000002,0,3.1
1757328233.1269443,-0.485,-0.051,9.344,0.6383554730712347,2.9876217047629092,2.2600000000000002,0,3.1
1757328233.1547508,-0.464,-0.044,9.572,0.6385288638738268,2.7876546366710824,2.2586466165413532,0,3.1
1757328233.1828787,-0.397,-0.057,9.532,0.6386516832358622,2.40937186114289,2.246616541353383,0,3.1
1757328233.2117941,-0.397,-0.057,9.532,0.6386516832358622,2.40937186114289,2.246616541353383,0,3.1
1757328233.2395267,-0.676,-0.212,9.716,0.6388057999110528,4.170464634250688,2.2558897243107765,0,3.1
1757328233.2672648,-0.676,-0.212,9.716,0.6388057999110528,4.170464634250688,2.2558897243107765,0,3.1
1757328233.2951143,-0.653,-0.147,9.95,0.6386565352362724,3.8485174232924537,2.239498746867168,0,3.1
1757328233.3229375,-0.653,-0.147,9.95,0.6386565352362724,3.8485174232924537,2.239498746867168,0,3.1
1757328233.350605,-0.402,0.027,9.897,0.638720578578771,2.331217119322451,2.244611528822055,0,3.1
1757328233.3783362,-0.402,0.027,9.897,0.638720578578771,2.331217119322451,2.244611528822055,0,3.1
1757328233.4061503,-0.531,-0.064,9.566,0.6391859119223452,3.200122620860466,2.2471679197994985,0,3.1
1757328233.4336507,-0.531,-0.064,9.566,0.6391859119223452,3.200122620860466,2.2471679197994985,0,3.1
1757328233.461719,-0.58,-0.038,9.576,0.6396813816268221,3.473474391851754,2.237593984962406,0,3.1
1757328233.4899523,-0.58,-0.038,9.576,0.6396813816268221,3.473474391851754,2.237593984962406,0,3.1
1757328233.5180662,-0.697,-0.132,9.671,0.6400858008892246,4.195258266000328,2.2403007518796993,0,3.1
1757328233.545919,-0.697,-0.132,9.671,0.6400858008892246,4.195258266000328,2.2403007518796993,0,3.1
1757328233.5739634,-0.454,-0.071,9.478,0.6398061581447931,2.775675785676066,2.250927318295739,0,3.1
1757328233.6024854,-0.454,-0.071,9.478,0.6398061581447931,2.775675785676066,2.250927318295739,0,3.1
1757328233.6304684,-0.803,-0.034,9.476,0.6403098722493665,4.848014340251038,2.268220551378446,0,3.1
1757328233.6585975,-0.803,-0.034,9.476,0.6403098722493665,4.848014340251038,2.268220551378446,0,3.1
1757328233.6862545,-0.543,-0.103,9.567,0.6401204300754664,3.3062841774088865,2.2680701754385963,0,3.1
1757328233.7141519,-0.543,-0.103,9.567,0.6401204300754664,3.3062841774088865,2.2680701754385963,0,3.1
1757328233.7416868,-0.664,-0.144,9.356,0.6407237957965976,4.1535425614323085,2.266917293233082,0,3.1
1757328233.7692354,-0.664,-0.144,9.356,0.6407237957965976,4.1535425614323085,2.266917293233082,0,3.1
1757328233.7969792,-0.635,-0.219,9.427,0.6410089098444732,4.07561893698596,2.265463659147869,0,3.1
1757328233.8247826,-0.635,-0.219,9.427,0.6410089098444732,4.07561893698596,2.265463659147869,0,3.1
1757328233.8526282,-0.552,-0.13,9.579,0.6412099344208572,3.388102623479428,2.26796992481203,0,3.1
1757328233.8801668,-0.552,-0.13,9.579,0.6412099344208572,3.388102623479428,2.26796992481203,0,3.1
1757328233.9078195,-0.617,-0.132,9.447,0.6414990978169807,3.821090872039244,2.2584461152882205,0,3.1
1757328233.9355323,-0.617,-0.132,9.447,0.6414990978169807,3.821090872039244,2.2584461152882205,0,3.1
1757328233.9631517,-0.634,-0.088,9.288,0.6412238766608741,3.9422784827665414,2.2526315789473683,0,3.1
1757328233.9907444,-0.634,-0.088,9.288,0.6412238766608741,3.9422784827665414,2.2526315789473683,0,3.1
1757328234.0183694,-0.623,-0.064,9.538,0.6412693213463436,3.756729893995165,2.243809523809524,0,3.1
1757328234.0459104,-0.623,-0.064,9.538,0.6412693213463436,3.756729893995165,2.243809523809524,0,3.1
1757328234.0734663,-0.562,0.028,9.424,0.641545968734899,3.417013541940726,2.2440100250626562,0,3.1
1757328234.1008592,-0.562,0.028,9.424,0.641545968734899,3.417013541940726,2.2440100250626562,0,3.1
1757328234.1290188,-0.509,0.063,9.354,0.6417982023190779,3.138410644141495,2.238295739348371,0,3.1
1757328234.1567402,-0.509,0.063,9.354,0.6417982023190779,3.138410644141495,2.238295739348371,0,3.1
1757328234.1843464,-0.637,-0.055,9.571,0.6420475313401649,3.8218425223715027,2.2441102756892226,0,3.1
1757328234.2120688,-0.665,0.118,9.325,0.6423920395677394,4.142566354542781,2.237644110275689,0,3.1
1757328234.2399764,-0.665,0.118,9.325,0.6423920395677394,4.142566354542781,2.237644110275689,0,3.1
1757328234.2680545,-0.665,0.118,9.325,0.6423920395677394,4.142566354542781,2.237644110275689,0,3.1
1757328234.2965252,-0.641,0.205,9.308,0.6423128326602233,4.135378288430186,2.237243107769423,0,3.1
1757328234.3239145,-0.834,-0.11,9.562,0.6428690885398053,5.02768768508478,2.242155388471178,0,3.1
1757328234.351275,-0.834,-0.11,9.562,0.6428690885398053,5.02768768508478,2.242155388471178,0,3.1
1757328234.379173,-0.708,0.403,9.688,0.6432660899658865,4.806678293731622,2.246065162907268,0,3.1
1757328234.4074268,-0.708,0.403,9.688,0.6432660899658865,4.806678293731622,2.246065162907268,0,3.1
1757328234.4350138,-0.611,0.18,9.671,0.6433082017975521,3.7682368063724,2.2468671679197993,0,3.1
1757328234.4626317,-0.611,0.18,9.671,0.6433082017975521,3.7682368063724,2.2468671679197993,0,3.1
1757328234.490334,-0.724,-0.087,9.838,0.6434440088306053,4.239103973812986,2.2456641604010024,0,3.1
1757328234.5179071,-0.724,-0.087,9.838,0.6434440088306053,4.239103973812986,2.2456641604010024,0,3.1
1757328234.5458972,-0.608,0.201,9.768,0.6428841653050726,3.7507863353064668,2.2384962406015037,0,3.1
1757328234.571774,-0.608,0.201,9.768,0.6428841653050726,3.7507863353064668,2.2384962406015037,0,3.1
1757328234.5987303,-0.823,0.233,9.749,0.6436082756615238,5.01411266473018,2.2291228070175437,0,3.1
1757328234.6264377,-0.823,0.233,9.749,0.6436082756615238,5.01411266473018,2.2291228070175437,0,3.1
1757328234.6545205,-0.628,0.031,9.602,0.6426058531479464,3.746532097347238,2.220802005012531,0,3.1
1757328234.6827393,-0.628,0.031,9.602,0.6426058531479464,3.746532097347238,2.220802005012531,0,3.1
1757328234.7106607,-0.503,0.076,9.636,0.6424139494905134,3.0219857341131156,2.225614035087719,0,3.1
1757328234.7390633,-0.503,0.076,9.636,0.6424139494905134,3.0219857341131156,2.225614035087719,0,3.1
1757328234.7670124,-0.708,0.171,9.623,0.6426364699423773,4.3284220521655765,2.223157894736842,0,3.1
1757328234.794658,-0.708,0.171,9.623,0.6426364699423773,4.3284220521655765,2.223157894736842,0,3.1
1757328234.8221433,-0.636,-0.036,9.718,0.6431596322064997,3.7503914615127707,2.2114786967418545,0,3.1
1757328234.8497362,-0.636,-0.036,9.718,0.6431596322064997,3.7503914615127707,2.2114786967418545,0,3.1
1757328234.877228,-0.696,-0.103,9.739,0.643220825222567,4.132073035280364,2.213333333333333,0,3.1
1757328234.9051187,-0.696,-0.103,9.739,0.643220825222567,4.132073035280364,2.213333333333333,0,3.1
1757328234.932652,-0.635,0.111,9.524,0.6431833661561841,3.8721387717312097,2.209874686716792,0,3.1
1757328234.9607108,-0.635,0.111,9.524,0.6431833661561841,3.8721387717312097,2.209874686716792,0,3.1
1757328234.9884703,-0.564,-0.153,9.41,0.6432760546608276,3.553645944282283,2.211077694235589,0,3.1
1757328235.0161173,-0.564,-0.153,9.41,0.6432760546608276,3.553645944282283,2.211077694235589,0,3.1
1757328235.0445716,-0.465,-0.285,9.573,0.6430714754208897,3.260711282813893,2.212781954887218,0,3.1
1757328235.0720978,-0.571,0.043,9.551,0.6432153721732714,3.430981168315947,2.2151378446115286,0,3.1
1757328235.0996156,-0.571,0.043,9.551,0.6432153721732714,3.430981168315947,2.2151378446115286,0,3.1
1757328235.1272643,-0.509,-0.123,9.614,0.6431072344485016,3.1176778315340283,2.210977443609022,0,3.1
1757328235.1548421,-0.509,-0.123,9.614,0.6431072344485016,3.1176778315340283,2.210977443609022,0,3.1
1757328235.1830833,-0.634,-0.121,9.697,0.6429196800534263,3.8080546301807674,2.2093233082706765,0,3.1
1757328235.2112467,-0.634,-0.121,9.697,0.6429196800534263,3.8080546301807674,2.2093233082706765,0,3.1
1757328235.2388592,-0.54,-0.052,9.615,0.6420346369161091,3.229320946839228,2.1960401002506265,0,3.1
1757328235.266407,-0.54,-0.052,9.615,0.6420346369161091,3.229320946839228,2.1960401002506265,0,3.1
1757328235.2946415,-0.723,-0.02,9.623,0.6425556279420483,4.298339676308034,2.1955889724310778,0,3.1
1757328235.3223035,-0.723,-0.02,9.623,0.6425556279420483,4.298339676308034,2.1955889724310778,0,3.1
1757328235.3506455,-0.64,-0.398,9.629,0.6424073571340851,4.475408005284604,2.1962907268170424,0,3.1
1757328235.37966,-0.64,-0.398,9.629,0.6424073571340851,4.475408005284604,2.1962907268170424,0,3.1
1757328235.4072847,-0.539,-0.162,9.737,0.6418306825012341,3.308133941165909,2.1882706766917295,0,3.1
1757328235.4350202,-0.539,-0.162,9.737,0.6418306825012341,3.308133941165909,2.1882706766917295,0,3.1
1757328235.4625194,-0.598,-0.161,9.767,0.6420304295747983,3.6280835541700336,2.1868671679197993,0,3.1
1757328235.490123,-0.598,-0.161,9.767,0.6420304295747983,3.6280835541700336,2.1868671679197993,0,3.1
1757328235.517618,-0.6,-0.159,9.811,0.6423910510740323,3.6200928360452354,2.1802506265664157,0,3.1
1757328235.545359,-0.6,-0.159,9.811,0.6423910510740323,3.6200928360452354,2.1802506265664157,0,3.1
1757328235.5729823,-0.835,-0.024,9.509,0.6431543865978059,5.020420711560432,2.189172932330827,0,3.1
1757328235.6005075,-0.835,-0.024,9.509,0.6431543865978059,5.020420711560432,2.189172932330827,0,3.1
1757328235.6280463,-0.68,0.1,9.518,0.6433322333755709,4.130272354736192,2.1946365914786963,0,3.1
1757328235.6554534,-0.68,0.1,9.518,0.6433322333755709,4.130272354736192,2.1946365914786963,0,3.1
1757328235.6832404,-0.908,-0.052,9.568,0.6441001164415359,5.429944632136828,2.2052631578947364,0,3.1
1757328235.7108483,-0.908,-0.052,9.568,0.6441001164415359,5.429944632136828,2.2052631578947364,0,3.1
1757328235.7383993,-0.686,-0.014,9.591,0.6442209617049107,4.091984769381918,2.2014035087719295,0,3.1
1757328235.765984,-0.686,-0.014,9.591,0.6442209617049107,4.091984769381918,2.2014035087719295,0,3.1
1757328235.794152,-0.438,0.056,9.721,0.6443688830941482,2.600807996481729,2.205213032581453,0,3.1
1757328235.8222754,-0.438,0.056,9.721,0.6443688830941482,2.600807996481729,2.205213032581453,0,3.1
1757328235.8502736,-0.71,-0.016,9.596,0.644838078512738,4.232626650454395,2.218395989974937,0,3.1
1757328235.8780494,-0.71,-0.016,9.596,0.644838078512738,4.232626650454395,2.218395989974937,0,3.1
1757328235.9061816,-0.71,-0.016,9.596,0.644838078512738,4.232626650454395,2.218395989974937,0,3.1
1757328235.9345012,-0.549,-0.113,9.546,0.6448961524927871,3.3603553503170507,2.222957393483709,0,3.1
1757328235.962444,-0.539,0.081,9.707,0.6447822481272263,3.2138083127851256,2.2220551378446114,0,3.1
1757328235.9906669,-0.743,-0.115,9.757,0.6451095779013051,4.406344516633259,2.2317794486215536,0,3.1
1757328236.0189016,-0.743,-0.115,9.757,0.6451095779013051,4.406344516633259,2.2317794486215536,0,3.1
1757328236.0466988,-0.743,-0.115,9.757,0.6451095779013051,4.406344516633259,2.2317794486215536,0,3.1
1757328236.0741873,-0.735,0.287,9.37,0.6454376247942166,4.813512205430145,2.2312781954887217,0,3.1
1757328236.1020558,-0.587,0.05,9.591,0.6453435732228221,3.5149677553813583,2.235288220551378,0,3.1
1757328236.1296847,-0.587,0.05,9.591,0.6453435732228221,3.5149677553813583,2.235288220551378,0,3.1
1757328236.1572165,-0.424,0.013,9.684,0.6450864786987867,2.508188654996226,2.231929824561403,0,3.1
1757328236.185243,-0.424,0.013,9.684,0.6450864786987867,2.508188654996226,2.231929824561403,0,3.1
1757328236.212802,-0.587,-0.078,9.532,0.6455442548733588,3.5548363972102783,2.2254135338345864,0,3.1
1757328236.2404082,-0.587,-0.078,9.532,0.6455442548733588,3.5548363972102783,2.2254135338345864,0,3.1
1757328236.2679422,-0.683,-0.03,9.652,0.6456983796634462,4.051537398416359,2.220501253132832,0,3.1
1757328236.2955422,-0.683,-0.03,9.652,0.6456983796634462,4.051537398416359,2.220501253132832,0,3.1
1757328236.3238926,-0.51,-0.063,9.765,0.6449124029664804,3.0123725088794027,2.228270676691729,0,3.1
1757328236.3519073,-0.51,-0.063,9.765,0.6449124029664804,3.0123725088794027,2.228270676691729,0,3.1
1757328236.3795547,-0.577,0.042,9.537,0.6443231487382709,3.4713812051070345,2.2314285714285713,0,3.1
1757328236.4070406,-0.577,0.042,9.537,0.6443231487382709,3.4713812051070345,2.2314285714285713,0,3.1
1757328236.4347098,-0.647,-0.094,9.739,0.643887282449343,3.8405838988776413,2.232130325814536,0,3.1
1757328236.462366,-0.647,-0.094,9.739,0.643887282449343,3.8405838988776413,2.232130325814536,0,3.1
1757328236.4900026,-0.743,-0.125,9.844,0.643878610453865,4.376779114131834,2.2295739348370924,0,3.1
1757328236.5176036,-0.743,-0.125,9.844,0.643878610453865,4.376779114131834,2.2295739348370924,0,3.1
1757328236.545076,-0.526,-0.226,9.54,0.643719156542665,3.434206579892549,2.237894736842105,0,3.1
1757328236.5727024,-0.526,-0.226,9.54,0.643719156542665,3.434206579892549,2.237894736842105,0,3.1
1757328236.6003282,-0.495,-0.174,9.574,0.6433744360790223,3.1368869979080505,2.238295739348371,0,3.1
1757328236.6279225,-0.495,-0.174,9.574,0.6433744360790223,3.1368869979080505,2.238295739348371,0,3.1
1757328236.6553738,-0.479,-0.065,9.696,0.6429400788564981,2.8540946041769564,2.2368421052631575,0,3.1
1757328236.6829767,-0.479,-0.065,9.696,0.6429400788564981,2.8540946041769564,2.2368421052631575,0,3.1
1757328236.7105703,-0.676,-0.362,9.542,0.6428262401302548,4.594591990331203,2.238145363408521,0,3.1
1757328236.7381556,-0.676,-0.362,9.542,0.6428262401302548,4.594591990331203,2.238145363408521,0,3.1
1757328236.765719,-0.715,-0.139,9.499,0.6422832980858213,4.384875132773681,2.2389974937343355,0,3.1
1757328236.7935712,-0.715,-0.139,9.499,0.6422832980858213,4.384875132773681,2.2389974937343355,0,3.1
1757328236.8216243,-0.527,-0.195,9.756,0.6412077315503923,3.296444051779958,2.2460150375939847,0,3.1
1757328236.848966,-0.527,-0.195,9.756,0.6412077315503923,3.296444051779958,2.2460150375939847,0,3.1
1757328236.8765135,-0.54,-0.18,9.638,0.6399821501417051,3.379901497496729,2.227318295739348,0,3.1
1757328236.90397,-0.54,-0.18,9.638,0.6399821501417051,3.379901497496729,2.227318295739348,0,3.1
1757328236.9316409,-0.69,-0.134,9.633,0.6402707083726382,4.17330551212304,2.2297744360902256,0,3.1
1757328236.9590764,-0.69,-0.134,9.633,0.6402707083726382,4.17330551212304,2.2297744360902256,0,3.1
1757328236.9868524,-0.693,-0.189,9.754,0.640321413432348,4.211810772568877,2.2228070175438592,0,3.1
1757328237.0144832,-0.693,-0.189,9.754,0.640321413432348,4.211810772568877,2.2228070175438592,0,3.1
1757328237.0419445,-0.585,-0.008,9.604,0.6396893269392573,3.4860257829140004,2.22781954887218,0,3.1
1757328237.0693412,-0.585,-0.008,9.604,0.6396893269392573,3.4860257829140004,2.22781954887218,0,3.1
1757328237.0968268,-0.564,-0.064,9.437,0.6389837517496043,3.4420972791720588,2.2254135338345864,0,3.1
1757328237.1247222,-0.564,-0.064,9.437,0.6389837517496043,3.4420972791720588,2.2254135338345864,0,3.1
1757328237.1526952,-0.817,-0.211,9.612,0.6391743854379648,5.016952524840946,2.2296240601503756,0,3.1
1757328237.1806347,-0.817,-0.211,9.612,0.6391743854379648,5.016952524840946,2.2296240601503756,0,3.1
1757328237.2083488,-0.696,-0.128,9.754,0.6394501114238702,4.149652806912572,2.2351378446115286,0,3.1
1757328237.2349274,-0.696,-0.128,9.754,0.6394501114238702,4.149652806912572,2.2351378446115286,0,3.1
1757328237.2620928,-0.497,-0.037,9.545,0.6392866375891177,2.9888840461830735,2.2438596491228067,0,3.1
1757328237.2887661,-0.604,-0.128,9.844,0.6394084727308514,3.588880264904414,2.248471177944862,0,3.1
1757328237.3142269,-0.604,-0.128,9.844,0.6394084727308514,3.588880264904414,2.248471177944862,0,3.1
1757328237.3415077,-0.504,-0.0,9.76,0.63934550322967,2.956090756832724,2.2386967418546364,0,3.1
1757328237.367084,-0.504,-0.0,9.76,0.63934550322967,2.956090756832724,2.2386967418546364,0,3.1
1757328237.39271,-0.504,-0.0,9.76,0.63934550322967,2.956090756832724,2.2386967418546364,0,3.1
1757328237.4181883,-0.429,-0.091,9.528,0.638357677951789,2.6352933509821725,2.2408020050125312,0,3.1
1757328237.444475,-0.429,-0.091,9.528,0.638357677951789,2.6352933509821725,2.2408020050125312,0,3.1
1757328237.4701052,-0.737,-0.228,9.722,0.638177424389174,4.537036331536222,2.241954887218045,0,3.1
1757328237.495775,-0.737,-0.228,9.722,0.638177424389174,4.537036331536222,2.241954887218045,0,3.1
1757328237.5216694,-0.641,-0.162,9.761,0.638468689522047,3.8749694934714918,2.2418045112781955,0,3.1
1757328237.548162,-0.641,-0.162,9.761,0.638468689522047,3.8749694934714918,2.2418045112781955,0,3.1
1757328237.5739944,-0.459,-0.087,9.522,0.6385472163434744,2.80881721337313,2.2475187969924812,0,3.1
1757328237.6011367,-0.459,-0.087,9.522,0.6385472163434744,2.80881721337313,2.2475187969924812,0,3.1
1757328237.6277187,-0.603,-0.112,9.577,0.6390258269428553,3.66423028835651,2.251578947368421,0,3.1
1757328237.653571,-0.603,-0.112,9.577,0.6390258269428553,3.66423028835651,2.251578947368421,0,3.1
1757328237.6809282,-0.766,0.052,9.737,0.6398474329869582,4.508447295958229,2.24796992481203,0,3.1
1757328237.706926,-0.766,0.052,9.737,0.6398474329869582,4.508447295958229,2.24796992481203,0,3.1
1757328237.732981,-0.589,-0.113,10.009,0.6397174513017446,3.4290764163144436,2.253784461152882,0,3.1
1757328237.7598822,-0.589,-0.113,10.009,0.6397174513017446,3.4290764163144436,2.253784461152882,0,3.1
1757328237.7857313,-0.617,-0.241,10.131,0.6394928459334006,3.7408565893520898,2.2548872180451127,0,3.1
1757328237.812566,-0.617,-0.241,10.131,0.6394928459334006,3.7408565893520898,2.2548872180451127,0,3.1
1757328237.8391893,-0.585,-0.239,10.063,0.6391763547722961,3.5933531877105356,2.2462155388471174,0,3.1
1757328237.8665342,-0.585,-0.239,10.063,0.6391763547722961,3.5933531877105356,2.2462155388471174,0,3.1
1757328237.8928218,-0.673,-0.124,9.887,0.6395632670033513,3.959409356823947,2.2467669172932325,0,3.1
1757328237.918429,-0.673,-0.124,9.887,0.6395632670033513,3.959409356823947,2.2467669172932325,0,3.1
1757328237.944902,-0.538,0.009,9.695,0.6394669440244741,3.1766731462279867,2.252431077694235,0,3.1
1757328237.9716887,-0.538,0.009,9.695,0.6394669440244741,3.1766731462279867,2.252431077694235,0,3.1
1757328237.9989634,-0.617,-0.1,9.675,0.6395980730114812,3.696443943129645,2.256390977443609,0,3.1
1757328238.026766,-0.617,-0.1,9.675,0.6395980730114812,3.696443943129645,2.256390977443609,0,3.1
1757328238.0539904,-0.578,0.25,9.586,0.6396381047123444,3.758626685782785,2.2457644110275687,0,3.1
1757328238.0816457,-0.578,0.25,9.586,0.6396381047123444,3.758626685782785,2.2457644110275687,0,3.1
1757328238.1089506,-0.623,0.225,9.511,0.6391110427773878,3.983880597408851,2.2389974937343355,0,3.1
1757328238.1345477,-0.623,0.225,9.511,0.6391110427773878,3.983880597408851,2.2389974937343355,0,3.1
1757328238.1620836,-0.596,-0.026,9.607,0.6390270436374348,3.5533391814423227,2.235288220551378,0,3.1
1757328238.189752,-0.596,-0.026,9.607,0.6390270436374348,3.5533391814423227,2.235288220551378,0,3.1
1757328238.2172449,-0.496,0.021,9.453,0.6389588034451048,3.006247699628112,2.2276190476190476,0,3.1
1757328238.2429633,-0.496,0.021,9.453,0.6389588034451048,3.006247699628112,2.2276190476190476,0,3.1
1757328238.2702756,-0.347,0.054,9.466,0.6390442492503943,2.1246263870185707,2.230175438596491,0,3.1
1757328238.2978275,-0.347,0.054,9.466,0.6390442492503943,2.1246263870185707,2.230175438596491,0,3.1
1757328238.3258913,-0.525,0.126,9.577,0.639308260935208,3.2266637533171885,2.2381453634085213,0,3.1
1757328238.3521338,-0.525,0.126,9.577,0.639308260935208,3.2266637533171885,2.2381453634085213,0,3.1
1757328238.3776965,-0.446,-0.008,9.597,0.6393936600405106,2.6612114923898385,2.2348872180451127,0,3.1
1757328238.403542,-0.446,-0.008,9.597,0.6393936600405106,2.6612114923898385,2.2348872180451127,0,3.1
1757328238.4291902,-0.506,-0.057,9.51,0.639328344827601,3.0648999123163034,2.2347368421052627,0,3.1
1757328238.4556994,-0.506,-0.057,9.51,0.639328344827601,3.0648999123163034,2.2347368421052627,0,3.1
1757328238.4816358,-0.425,-0.058,9.552,0.6389751892679402,2.5711805919636657,2.236491228070175,0,0.05
1757328238.5078518,-0.425,-0.058,9.552,0.6389751892679402,2.5711805919636657,2.236491228070175,0,0.05
1757328238.5351832,-0.483,-0.254,9.724,0.6388289696781134,3.212094830964265,2.236741854636591,0,0.05
1757328238.5609884,-0.483,-0.254,9.724,0.6388289696781134,3.212094830964265,2.236741854636591,0,0.05
1757328238.5910466,-0.663,-0.061,9.608,0.6391958737351172,3.964056967518237,2.2419047619047614,0,0.05
1757328238.6206152,-0.663,-0.061,9.608,0.6391958737351172,3.964056967518237,2.2419047619047614,0,0.05
1757328238.6505103,-0.549,-0.171,9.824,0.6394320174967781,3.3497937319537012,2.246265664160401,0,0.05
1757328238.679519,-0.549,-0.171,9.824,0.6394320174967781,3.3497937319537012,2.246265664160401,0,0.05
1757328238.7078383,-0.507,-0.288,9.942,0.639535118269513,3.3565000061141244,2.2429573934837093,0,0.05
1757328238.735277,-0.507,-0.288,9.942,0.639535118269513,3.3565000061141244,2.2429573934837093,0,0.05
1757328238.7611477,-0.553,0.023,9.836,0.6395198902301632,3.2206742060842206,2.2277694235588967,0,0.05
1757328238.7878854,-0.553,0.023,9.836,0.6395198902301632,3.2206742060842206,2.2277694235588967,0,0.05
1757328238.8153963,-0.791,0.112,9.757,0.6391276789499889,4.68085859757087,2.2293233082706765,0,0.05
1757328238.8429074,-0.791,0.112,9.757,0.6391276789499889,4.68085859757087,2.2293233082706765,0,0.05
1757328238.8705623,-0.631,-0.072,9.98,0.6389425502343697,3.6412056826528025,2.2260150375939847,0,0.05
1757328238.8985422,-0.631,-0.072,9.98,0.6389425502343697,3.6412056826528025,2.2260150375939847,0,0.05
1757328238.9261575,-0.492,0.073,9.838,0.6389728495796985,2.894275691294986,2.232832080200501,0,0.05
1757328238.9536715,-0.492,0.073,9.838,0.6389728495796985,2.894275691294986,2.232832080200501,0,0.05
1757328238.9811842,-0.507,0.073,9.739,0.6390380289935803,3.0107312617178033,2.2281704260651627,0,0.05
1757328239.0088105,-0.507,0.073,9.739,0.6390380289935803,3.0107312617178033,2.2281704260651627,0,0.05
1757328239.036388,-0.479,0.05,9.875,0.6392262060491575,2.7920958417809842,2.2205513784461153,0,0.05
1757328239.064142,-0.479,0.05,9.875,0.6392262060491575,2.7920958417809842,2.2205513784461153,0,0.05
1757328239.0916498,-0.638,0.223,9.825,0.6394413108331366,3.9351081612791043,2.2220551378446114,0,0.05
1757328239.1194007,-0.638,0.223,9.825,0.6394413108331366,3.9351081612791043,2.2220551378446114,0,0.05
1757328239.1469314,-0.575,0.221,9.655,0.6391995482632946,3.6506360048291,2.221102756892231,0,0.05
1757328239.1745114,-0.575,0.221,9.655,0.6391995482632946,3.6506360048291,2.221102756892231,0,0.05
1757328239.202194,-0.571,0.012,9.791,0.6391517855720971,3.3383796455344834,2.2032581453634084,0,0.05
1757328239.2299664,-0.571,0.012,9.791,0.6391517855720971,3.3383796455344834,2.2032581453634084,0,0.05
1757328239.2574792,-0.555,-0.005,9.776,0.6396487375896243,3.249421712772421,2.198546365914787,0,0.05
1757328239.2849712,-0.815,0.17,9.749,0.6407173011555096,4.881080062938876,2.203157894736842,0,0.05
1757328239.3128061,-0.815,0.17,9.749,0.6407173011555096,4.881080062938876,2.203157894736842,0,0.05
1757328239.340688,-0.462,0.126,9.783,0.6406262717060548,2.802367190617662,2.2192481203007515,0,0.05
1757328239.3683867,-0.462,0.126,9.783,0.6406262717060548,2.802367190617662,2.2192481203007515,0,0.05
1757328239.396213,-0.584,-0.016,9.805,0.6408458863096493,3.4098686803173184,2.214987468671679,0,0.05
1757328239.4240253,-0.584,-0.016,9.805,0.6408458863096493,3.4098686803173184,2.214987468671679,0,0.05
1757328239.4523988,-0.656,0.303,9.636,0.6407700269987666,4.288538486986134,2.2118295739348373,0,0.05
1757328239.480049,-0.656,0.303,9.636,0.6407700269987666,4.288538486986134,2.2118295739348373,0,0.05
1757328239.5077853,-0.725,0.135,9.623,0.6404836375739821,4.382315781326719,2.211578947368421,0,0.05
1757328239.5353816,-0.725,0.135,9.623,0.6404836375739821,4.382315781326719,2.211578947368421,0,0.05
1757328239.562946,-0.852,0.173,9.61,0.6408141384208061,5.169297871799445,2.2065162907268165,0,0.05
1757328239.5906162,-0.852,0.173,9.61,0.6408141384208061,5.169297871799445,2.2065162907268165,0,0.05
1757328239.618397,-0.552,0.297,9.522,0.6408850989061923,3.7663136924422522,2.211929824561403,0,0.05
1757328239.6460497,-0.552,0.297,9.522,0.6408850989061923,3.7663136924422522,2.211929824561403,0,0.05
1757328239.6738513,-0.588,0.156,9.52,0.6405761625287035,3.6563133040476234,2.2083208020050122,0,0.05
1757328239.7016249,-0.588,0.156,9.52,0.6405761625287035,3.6563133040476234,2.2083208020050122,0,0.05
1757328239.7294745,-0.558,0.038,9.607,0.6404765569480276,3.331837745453001,2.209022556390977,0,0.05
1757328239.7577407,-0.558,0.038,9.607,0.6404765569480276,3.331837745453001,2.209022556390977,0,0.05
1757328239.7854931,-0.747,0.221,9.438,0.6408952742063246,4.718456904310984,2.211629072681704,0,0.05
1757328239.8134449,-0.747,0.221,9.438,0.6408952742063246,4.718456904310984,2.211629072681704,0,0.05
