timestamp,ax,ay,az,rms,tilt_now,jerk,tilt_crosses,freq
1757332160.922953,-0.102,-0.25,9.781,0.0050999999999999995,1.581265407330127,0.005112781954887217,0,2.1
1757332160.9537876,-0.107,-0.25,9.766,0.007391380114701178,1.594996958395455,0.005363408521303258,0,0.05
1757332160.9815896,-0.109,-0.249,9.778,0.009183408953106683,1.5923190529334383,0.005463659147869673,0,0.05
1757332161.0080705,-0.11,-0.24,9.787,0.010704438331832268,1.545197957938303,0.005513784461152881,0,0.05
1757332161.0350246,-0.143,-0.24,9.787,0.012872742520535397,1.635079216327911,0.007167919799498745,0,0.05
1757332161.0613914,-0.151,-0.221,9.773,0.01492347144601416,1.5688088597535008,0.00756892230576441,0,0.05
1757332161.0867,-0.147,-0.221,9.768,0.016635278777345452,1.5565053774943312,0.007769423558897242,0,0.05
1757332161.1119785,-0.139,-0.224,9.762,0.018028727076529836,1.5468967200168202,0.008170426065162906,0,0.05
1757332161.1374364,-0.129,-0.224,9.767,0.019147780550236103,1.5160152293573896,0.008671679197994987,0,0.05
1757332161.162757,-0.117,-0.239,9.764,0.0200214884561563,1.5611141861592468,0.009273182957393482,0,0.05
1757332161.1878722,-0.117,-0.253,9.772,0.020858631306967388,1.6339032861282643,0.009273182957393482,0,0.05
1757332161.2131236,-0.115,-0.247,9.766,0.021636658706926076,1.598065977099455,0.009373433583959898,0,0.05
1757332161.238075,-0.118,-0.238,9.754,0.022426658244152204,1.560042552841231,0.009523809523809521,0,0.05
1757332161.2635176,-0.127,-0.234,9.755,0.023308313967337922,1.563380639797482,0.009974937343358393,0,0.05
1757332161.288689,-0.158,-0.22,9.75,0.024610719209320155,1.591284504056271,0.011528822055137842,0,0.05
1757332161.3136115,-0.183,-0.213,9.742,0.026256618213319094,1.6511143210476096,0.012781954887218042,0,0.05
1757332161.3388908,-0.183,-0.213,9.742,0.026256618213319094,1.6511143210476096,0.012781954887218042,0,0.05
1757332161.3639083,-0.188,-0.215,9.762,0.027888528107449486,1.6758013380844796,0.013032581453634083,0,0.05
1757332161.3892326,-0.188,-0.215,9.762,0.027888528107449486,1.6758013380844796,0.013032581453634083,0,0.05
1757332161.4142005,-0.178,-0.215,9.769,0.029274220741123066,1.636621295393488,0.013533834586466164,0,0.05
1757332161.4393508,-0.178,-0.215,9.769,0.029274220741123066,1.636621295393488,0.013533834586466164,0,0.05
1757332161.465069,-0.165,-0.217,9.763,0.030414511339161773,1.5994174620850634,0.014185463659147867,0,0.05
1757332161.4904823,-0.165,-0.217,9.763,0.030414511339161773,1.5994174620850634,0.014185463659147867,0,0.05
1757332161.5154932,-0.153,-0.227,9.771,0.031361839869497456,1.6048006011652076,0.014786967418546364,0,0.05
1757332161.540768,-0.153,-0.227,9.771,0.031361839869497456,1.6048006011652076,0.014786967418546364,0,0.05
1757332161.5659406,-0.153,-0.227,9.771,0.031361839869497456,1.6048006011652076,0.014786967418546364,0,0.05
1757332161.5917945,-0.124,-0.224,9.772,0.0319688129276018,1.5008344877693458,0.016240601503759396,0,0.05
1757332161.617146,-0.124,-0.224,9.772,0.0319688129276018,1.5008344877693458,0.016240601503759396,0,0.05
1757332161.6424143,-0.129,-0.22,9.77,0.03261299587587746,1.4952818469367446,0.01649122807017544,0,0.05
1757332161.667316,-0.129,-0.22,9.77,0.03261299587587746,1.4952818469367446,0.01649122807017544,0,0.05
1757332161.6928165,-0.135,-0.202,9.764,0.033304203938842314,1.4254039720017626,0.016791979949874688,0,0.05
1757332161.717961,-0.135,-0.202,9.764,0.033304203938842314,1.4254039720017626,0.016791979949874688,0,0.05
1757332161.7435694,-0.146,-0.201,9.763,0.03409486764895855,1.457632483856932,0.017343358395989973,0,0.05
1757332161.768675,-0.146,-0.201,9.763,0.03409486764895855,1.457632483856932,0.017343358395989973,0,0.05
1757332161.7944407,-0.161,-0.196,9.745,0.0350323065184124,1.4909845574847573,0.018095238095238098,0,0.05
1757332161.8197148,-0.161,-0.196,9.745,0.0350323065184124,1.4909845574847573,0.018095238095238098,0,0.05
1757332161.845086,-0.175,-0.187,9.763,0.036108517000840674,1.5026983423111355,0.018796992481203006,0,0.05
1757332161.8701363,-0.175,-0.187,9.763,0.036108517000840674,1.5026983423111355,0.018796992481203006,0,0.05
1757332161.8958201,-0.17,-0.199,9.769,0.037095484900456555,1.5346774093477369,0.019047619047619042,0,0.05
1757332161.9209142,-0.17,-0.199,9.769,0.037095484900456555,1.5346774093477369,0.019047619047619042,0,0.05
1757332161.946212,-0.164,-0.21,9.774,0.03799098577294356,1.561563637867332,0.019348370927318292,0,0.05
1757332161.971322,-0.164,-0.21,9.774,0.03799098577294356,1.561563637867332,0.019348370927318292,0,0.05
1757332161.9964654,-0.164,-0.21,9.774,0.03799098577294356,1.561563637867332,0.019348370927318292,0,0.05
1757332162.0216267,-0.152,-0.222,9.749,0.038743709166779584,1.5808316755574543,0.019949874686716787,0,0.05
1757332162.0466928,-0.152,-0.222,9.749,0.038743709166779584,1.5808316755574543,0.019949874686716787,0,0.05
1757332162.0716422,-0.121,-0.224,9.751,0.039213231185404755,1.4956131763794809,0.021503759398496237,0,0.05
1757332162.0969477,-0.121,-0.224,9.751,0.039213231185404755,1.4956131763794809,0.021503759398496237,0,0.05
1757332162.122272,-0.1,-0.243,9.762,0.03953071590548292,1.5419051768055063,0.022556390977443604,0,0.05
1757332162.1475756,-0.1,-0.243,9.762,0.03953071590548292,1.5419051768055063,0.022556390977443604,0,0.05
1757332162.17273,-0.096,-0.234,9.774,0.03982106854417646,1.4823417783267885,0.022756892230576437,0,0.05
1757332162.1977296,-0.096,-0.234,9.774,0.03982106854417646,1.4823417783267885,0.022756892230576437,0,0.05
1757332162.2230775,-0.1,-0.221,9.785,0.040133745152925865,1.4200802357995177,0.02295739348370927,0,0.05
1757332162.2484415,-0.1,-0.221,9.785,0.040133745152925865,1.4200802357995177,0.02295739348370927,0,0.05
1757332162.2736626,-0.111,-0.219,9.782,0.040515675978564154,1.4377971718450633,0.02350877192982456,0,0.05
1757332162.2989576,-0.111,-0.219,9.782,0.040515675978564154,1.4377971718450633,0.02350877192982456,0,0.05
1757332162.3246188,-0.111,-0.219,9.782,0.040515675978564154,1.4377971718450633,0.02350877192982456,0,0.05
1757332162.3498456,-0.134,-0.216,9.771,0.041065922612307154,1.4901921417352084,0.024661654135338346,0,0.05
1757332162.3748746,-0.134,-0.216,9.771,0.041065922612307154,1.4901921417352084,0.024661654135338346,0,0.05
1757332162.4000964,-0.154,-0.22,9.761,0.04178157488654539,1.5759215594875748,0.025664160401002507,0,0.05
1757332162.425645,-0.154,-0.22,9.761,0.04178157488654539,1.5759215594875748,0.025664160401002507,0,0.05
1757332162.4507718,-0.153,-0.224,9.756,0.04247614036138406,1.5926986248116644,0.025714285714285714,0,0.05
1757332162.4760275,-0.153,-0.224,9.756,0.04247614036138406,1.5926986248116644,0.025714285714285714,0,0.05
1757332162.5014482,-0.142,-0.228,9.764,0.043065444384099885,1.5757869190202416,0.02626566416040101,0,0.05
1757332162.5267549,-0.142,-0.228,9.764,0.043065444384099885,1.5757869190202416,0.02626566416040101,0,0.05
1757332162.551973,-0.147,-0.237,9.746,0.043688156289777215,1.6391024994500718,0.026516290726817042,0,0.05
1757332162.5772138,-0.147,-0.237,9.746,0.043688156289777215,1.6391024994500718,0.026516290726817042,0,0.05
1757332162.6021707,-0.126,-0.252,9.743,0.04414006116896532,1.656397110829767,0.027568922305764416,0,0.05
1757332162.6272047,-0.126,-0.252,9.743,0.04414006116896532,1.656397110829767,0.027568922305764416,0,0.05
1757332162.6527827,-0.118,-0.251,9.74,0.04453262848743604,1.6310981089186243,0.027969924812030075,0,0.05
1757332162.6778324,-0.118,-0.251,9.74,0.04453262848743604,1.6310981089186243,0.027969924812030075,0,0.05
1757332162.7027442,-0.118,-0.244,9.752,0.04492176532595307,1.5919983650311187,0.027969924812030075,0,0.05
1757332162.7277274,-0.118,-0.244,9.752,0.04492176532595307,1.5919983650311187,0.027969924812030075,0,0.05
1757332162.7527866,-0.118,-0.244,9.752,0.04492176532595307,1.5919983650311187,0.027969924812030075,0,0.05
1757332162.7778127,-0.119,-0.24,9.756,0.045314098247675634,1.572845164111088,0.02802005012531328,0,0.05
1757332162.8031971,-0.119,-0.24,9.756,0.045314098247675634,1.572845164111088,0.02802005012531328,0,0.05
1757332162.828156,-0.123,-0.233,9.761,0.04572953094008291,1.5461759978324525,0.028220551378446115,0,0.05
1757332162.853139,-0.123,-0.233,9.761,0.04572953094008291,1.5461759978324525,0.028220551378446115,0,0.05
1757332162.8784008,-0.135,-0.226,9.771,0.04622502028122865,1.5432927706727635,0.028822055137844606,0,0.05
1757332162.9036963,-0.135,-0.226,9.771,0.04622502028122865,1.5432927706727635,0.028822055137844606,0,0.05
1757332162.929005,-0.155,-0.216,9.773,0.046870193086864916,1.5582566211499878,0.029824561403508767,0,0.05
1757332162.9543371,-0.155,-0.216,9.773,0.046870193086864916,1.5582566211499878,0.029824561403508767,0,0.05
1757332162.979514,-0.161,-0.225,9.757,0.04755646643727854,1.6242438031003823,0.03012531328320802,0,0.05
1757332163.0047164,-0.161,-0.225,9.757,0.04755646643727854,1.6242438031003823,0.03012531328320802,0,0.05
1757332163.03009,-0.161,-0.225,9.757,0.04755646643727854,1.6242438031003823,0.03012531328320802,0,0.05
1757332163.0550983,-0.157,-0.226,9.765,0.0482,1.614191672167917,0.03032581453634085,0,0.05
1757332163.0801327,-0.157,-0.226,9.765,0.0482,1.614191672167917,0.03032581453634085,0,0.05
1757332163.105511,-0.143,-0.227,9.785,0.04872743067308188,1.5705540868322225,0.03102756892230576,0,0.05
1757332163.1309469,-0.143,-0.227,9.785,0.04872743067308188,1.5705540868322225,0.03102756892230576,0,0.05
1757332163.1565485,-0.124,-0.232,9.794,0.04912028603336915,1.5385484494723722,0.03197994987468671,0,0.05
1757332163.1820958,-0.124,-0.232,9.794,0.04912028603336915,1.5385484494723722,0.03197994987468671,0,0.05
1757332163.2078989,-0.095,-0.234,9.773,0.049349417423106424,1.480279593317647,0.033433583959899746,0,0.05
1757332163.2336957,-0.095,-0.234,9.773,0.049349417423106424,1.480279593317647,0.033433583959899746,0,0.05
1757332163.2593284,-0.098,-0.231,9.758,0.04959208606219343,1.473044007028894,0.03358395989974937,0,0.05
1757332163.2846072,-0.098,-0.231,9.758,0.04959208606219343,1.473044007028894,0.03358395989974937,0,0.05
1757332163.3101597,-0.092,-0.23,9.758,0.04980496963155384,1.4542041544026418,0.03388471177944862,0,0.05
1757332163.335405,-0.092,-0.23,9.758,0.04980496963155384,1.4542041544026418,0.03388471177944862,0,0.05
1757332163.3605285,-0.117,-0.227,9.755,0.050147357856620924,1.49961546900737,0.03513784461152882,0,0.05
1757332163.3858125,-0.117,-0.227,9.755,0.050147357856620924,1.49961546900737,0.03513784461152882,0,0.05
1757332163.4109674,-0.139,-0.223,9.751,0.050626672811868646,1.5436549150631151,0.0362406015037594,0,0.05
1757332163.4360495,-0.139,-0.223,9.751,0.050626672811868646,1.5436549150631151,0.0362406015037594,0,0.05
1757332163.4611344,-0.162,-0.213,9.754,0.05127055685283709,1.5715452301525816,0.03739348370927318,0,0.05
1757332163.4861896,-0.162,-0.213,9.754,0.05127055685283709,1.5715452301525816,0.03739348370927318,0,0.05
1757332163.5110302,-0.162,-0.213,9.754,0.05127055685283709,1.5715452301525816,0.03739348370927318,0,0.05
1757332163.535976,-0.162,-0.211,9.754,0.051906454319284805,1.5622174912845688,0.03739348370927318,0,0.05
1757332163.560969,-0.162,-0.211,9.754,0.051906454319284805,1.5622174912845688,0.03739348370927318,0,0.05
1757332163.586023,-0.161,-0.215,9.744,0.05252696926341743,1.5789977821602887,0.03744360902255638,0,0.05
1757332163.6110036,-0.161,-0.215,9.744,0.05252696926341743,1.5789977821602887,0.03744360902255638,0,0.05
1757332163.6362762,-0.155,-0.219,9.744,0.053095621288388746,1.577246804169286,0.037744360902255636,0,0.05
1757332163.6612542,-0.155,-0.219,9.744,0.053095621288388746,1.577246804169286,0.037744360902255636,0,0.05
1757332163.686479,-0.126,-0.22,9.754,0.05346807458661664,1.4889034255758744,0.03919799498746867,0,0.05
1757332163.7113426,-0.126,-0.22,9.754,0.05346807458661664,1.4889034255758744,0.03919799498746867,0,0.05
1757332163.7366626,-0.119,-0.231,9.745,0.05379811799682215,1.527427265718661,0.039548872180451125,0,0.05
1757332163.7617404,-0.119,-0.231,9.745,0.05379811799682215,1.527427265718661,0.039548872180451125,0,0.05
1757332163.786959,-0.117,-0.225,9.75,0.054115247389252503,1.4899540198235686,0.03964912280701754,0,0.05
1757332163.8129025,-0.117,-0.225,9.75,0.054115247389252503,1.4899540198235686,0.03964912280701754,0,0.05
1757332163.8379562,-0.111,-0.226,9.747,0.05439910385291287,1.479753735677247,0.039949874686716784,0,0.05
1757332163.8630052,-0.111,-0.226,9.747,0.05439910385291287,1.479753735677247,0.039949874686716784,0,0.05
1757332163.8880723,-0.111,-0.226,9.747,0.05439910385291287,1.479753735677247,0.039949874686716784,0,0.05
1757332163.9137235,-0.113,-0.215,9.748,0.05469172697949846,1.427319446245853,0.0400501253132832,0,0.05
1757332163.9388041,-0.113,-0.215,9.748,0.05469172697949846,1.427319446245853,0.0400501253132832,0,0.05
1757332163.963936,-0.148,-0.208,9.763,0.055190080630490114,1.4978129893464136,0.041804511278195476,0,0.05
1757332163.9894738,-0.148,-0.208,9.763,0.055190080630490114,1.4978129893464136,0.041804511278195476,0,0.05
1757332164.0166461,-0.172,-0.215,9.78,0.055856109782189446,1.6126104257828728,0.04300751879699248,0,0.05
1757332164.0438132,-0.172,-0.215,9.78,0.055856109782189446,1.6126104257828728,0.04300751879699248,0,0.05
1757332164.0707493,-0.141,-0.194,9.757,0.05629926731317203,1.4080465076663073,0.044561403508771934,0,0.05
1757332164.0975935,-0.141,-0.194,9.757,0.05629926731317203,1.4080465076663073,0.044561403508771934,0,0.05
1757332164.123935,-0.107,-0.212,9.804,0.05655289559341767,1.3875448083939055,0.046265664160400996,0,0.05
1757332164.1500833,-0.107,-0.212,9.804,0.05655289559341767,1.3875448083939055,0.046265664160400996,0,0.05
1757332164.1767142,0.181,0.145,9.799,0.05727244101660065,1.355796248575457,0.0607017543859649,0,0.05
1757332164.2034445,0.181,0.145,9.799,0.05727244101660065,1.355796248575457,0.0607017543859649,0,0.05
1757332164.2302773,0.289,-0.316,9.86,0.05906720748435632,2.486825515298105,0.06611528822055138,0,0.05
1757332164.2578397,0.289,-0.316,9.86,0.05906720748435632,2.486825515298105,0.06611528822055138,0,0.05
1757332164.284723,0.042,-0.513,9.799,0.05910452605342505,3.0068374783737024,0.07849624060150376,0,0.05
1757332164.3120189,0.042,-0.513,9.799,0.05910452605342505,3.0068374783737024,0.07849624060150376,0,0.05
1757332164.338814,-0.147,-0.106,9.675,0.0595597808928139,1.0731378266812366,0.08796992481203007,0,0.05
1757332164.3658628,-0.147,-0.106,9.675,0.0595597808928139,1.0731378266812366,0.08796992481203007,0,0.05
1757332164.3908749,-0.067,-0.34,9.844,0.059653918563661854,2.0161523092670413,0.0919799498746867,0,0.05
1757332164.4160254,-0.067,-0.34,9.844,0.059653918563661854,2.0161523092670413,0.0919799498746867,0,0.05
1757332164.443182,0.022,-0.174,9.773,0.05966405953335726,1.028114024548432,0.09644110275689222,0,0.05
1757332164.4699388,0.022,-0.174,9.773,0.05966405953335726,1.028114024548432,0.09644110275689222,0,0.05
1757332164.4974349,-0.052,-0.216,9.663,0.05972068318430391,1.3171090049238197,0.10015037593984963,0,0.05
1757332164.52466,-0.052,-0.216,9.663,0.05972068318430391,1.3171090049238197,0.10015037593984963,0,0.05
1757332164.5515769,-0.129,-0.319,9.794,0.060067982320034685,2.0121643801809523,0.10401002506265664,0,0.05
1757332164.57771,-0.129,-0.319,9.794,0.060067982320034685,2.0121643801809523,0.10401002506265664,0,0.05
1757332164.604661,-0.149,-0.187,9.686,0.060528216560543066,1.4140803003145193,0.10501253132832078,0,0.05
1757332164.6305747,-0.149,-0.187,9.686,0.060528216560543066,1.4140803003145193,0.10501253132832078,0,0.05
1757332164.656373,-0.118,-0.124,9.554,0.06081508858827717,1.0264191436648131,0.10656641604010023,0,0.05
1757332164.682115,-0.118,-0.124,9.554,0.06081508858827717,1.0264191436648131,0.10656641604010023,0,0.05
1757332164.7075498,-0.185,-0.139,9.652,0.06151453080370523,1.3733639731782346,0.10992481203007518,0,0.05
1757332164.7328,-0.185,-0.139,9.652,0.06151453080370523,1.3733639731782346,0.10992481203007518,0,0.05
1757332164.7587323,-0.114,-0.005,9.61,0.06177805030915107,0.6803008359362428,0.11348370927318294,0,0.05
1757332164.7849166,-0.114,-0.005,9.61,0.06177805030915107,0.6803008359362428,0.11348370927318294,0,0.05
1757332164.8105237,-0.215,0.007,9.581,0.06270637926080568,1.2861965892371345,0.11854636591478696,0,0.05
1757332164.8360631,-0.215,0.007,9.581,0.06270637926080568,1.2861965892371345,0.11854636591478696,0,0.05
1757332164.8627782,-0.215,0.007,9.581,0.06270637926080568,1.2861965892371345,0.11854636591478696,0,0.05
1757332164.888991,-0.029,-0.19,9.796,0.06272314166238806,1.124015916387363,0.12786967418546366,0,0.05
1757332164.9156623,-0.029,-0.19,9.796,0.06272314166238806,1.124015916387363,0.12786967418546366,0,0.05
1757332164.9416692,-0.021,-0.504,10.061,0.06273192966902899,2.8702859791166424,0.1282706766917293,0,0.05
1757332164.9677033,-0.021,-0.504,10.061,0.06273192966902899,2.8702859791166424,0.1282706766917293,0,0.05
1757332164.993615,-0.338,-0.586,9.782,0.06496849236360654,3.956088819265313,0.14416040100250627,0,0.05
1757332165.0206082,-0.338,-0.586,9.782,0.06496849236360654,3.956088819265313,0.14416040100250627,0,0.05
1757332165.0464833,-0.14,-0.184,9.629,0.06534451009840077,1.3754861827038338,0.15408521303258144,0,0.05
1757332165.0736392,-0.14,-0.184,9.629,0.06534451009840077,1.3754861827038338,0.15408521303258144,0,0.05
1757332165.0995982,-0.042,-0.453,9.657,0.06537824561733054,2.697219374054703,0.15899749373433583,0,0.05
1757332165.1269324,-0.042,-0.453,9.657,0.06537824561733054,2.697219374054703,0.15899749373433583,0,0.05
1757332165.1535006,-0.056,-0.096,9.507,0.0654381769305961,0.6697735567302323,0.15969924812030076,0,0.05
1757332165.1798146,-0.056,-0.096,9.507,0.0654381769305961,0.6697735567302323,0.15969924812030076,0,0.05
1757332165.2060056,-0.272,-0.35,9.483,0.06683647956019229,2.6762364206771556,0.17052631578947366,0,0.05
1757332165.2315724,-0.272,-0.35,9.483,0.06683647956019229,2.6762364206771556,0.17052631578947366,0,0.05
1757332165.25878,-0.268,-0.371,9.788,0.06816652404223059,2.6771221962155356,0.1707268170426065,0,0.05
1757332165.2860568,-0.268,-0.371,9.788,0.06816652404223059,2.6771221962155356,0.1707268170426065,0,0.05
1757332165.3129349,-0.176,-0.426,9.642,0.0687321976951123,2.7368779203587303,0.17533834586466163,0,0.05
1757332165.339634,-0.176,-0.426,9.642,0.0687321976951123,2.7368779203587303,0.17533834586466163,0,0.05
1757332165.3654509,-0.121,-0.198,9.662,0.06899795286818299,1.3757667627762886,0.17809523809523806,0,0.05
1757332165.3928814,-0.121,-0.198,9.662,0.06899795286818299,1.3757667627762886,0.17809523809523806,0,0.05
1757332165.4205463,-0.019,-0.332,9.843,0.06900449260736578,1.9349872345624144,0.1832080200501253,0,0.05
1757332165.447755,-0.019,-0.332,9.843,0.06900449260736578,1.9349872345624144,0.1832080200501253,0,0.05
1757332165.4739156,-0.092,-0.205,9.665,0.06915764599811072,1.3318058921571265,0.18686716791979946,0,0.05
1757332165.5005012,-0.092,-0.205,9.665,0.06915764599811072,1.3318058921571265,0.18686716791979946,0,0.05
1757332165.5278726,-0.216,-0.304,9.786,0.06999585702025514,2.182363927069904,0.19308270676691727,0,0.05
1757332165.555177,-0.216,-0.304,9.786,0.06999585702025514,2.182363927069904,0.19308270676691727,0,0.05
1757332165.582251,-0.146,-0.193,9.855,0.07037549289347819,1.4066880746398862,0.19659147869674184,0,0.05
1757332165.6079967,-0.146,-0.193,9.855,0.07037549289347819,1.4066880746398862,0.19659147869674184,0,0.05
1757332165.6334586,0.027,-0.252,9.65,0.07038844010205085,1.5044390502045477,0.20526315789473687,0,0.05
1757332165.6607962,0.027,-0.252,9.65,0.07038844010205085,1.5044390502045477,0.20526315789473687,0,0.05
1757332165.6879177,-0.027,-0.218,9.522,0.07040138492955944,1.3215378013107442,0.20796992481203005,0,0.05
1757332165.7153053,-0.027,-0.218,9.522,0.07040138492955944,1.3215378013107442,0.20796992481203005,0,0.05
1757332165.7424343,0.091,-0.278,9.765,0.07054826362143862,1.7158076939825972,0.21388471177944862,0,0.05
1757332165.7682858,0.091,-0.278,9.765,0.07054826362143862,1.7158076939825972,0.21388471177944862,0,0.05
1757332165.7941551,0.055,-0.389,9.795,0.07060184133576121,2.29685275368727,0.21568922305764407,0,0.05
1757332165.821156,0.055,-0.389,9.795,0.07060184133576121,2.29685275368727,0.21568922305764407,0,0.05
1757332165.847193,-0.102,-0.432,9.501,0.07078580366146872,2.674863425417936,0.2235588972431078,0,0.05
1757332165.8723679,-0.102,-0.432,9.501,0.07078580366146872,2.674863425417936,0.2235588972431078,0,0.05
1757332165.8988187,-0.464,-0.357,9.659,0.0744907376792578,3.4685267539769673,0.24170426065162903,0,0.05
1757332165.9275537,-0.464,-0.357,9.659,0.0744907376792578,3.4685267539769673,0.24170426065162903,0,0.05
1757332165.9555779,-0.325,-0.184,9.744,0.07624258980386225,2.194978900407277,0.24867167919799496,0,0.05
1757332165.982788,-0.325,-0.184,9.744,0.07624258980386225,2.194978900407277,0.24867167919799496,0,0.05
1757332166.008964,-0.087,-0.33,9.489,0.07636658300591954,2.0597770235930692,0.2606015037593985,0,0.05
1757332166.0356905,-0.087,-0.33,9.489,0.07636658300591954,2.0597770235930692,0.2606015037593985,0,0.05
1757332166.061949,-0.08,-0.108,9.691,0.07647126911461585,0.7945718208533902,0.26095238095238094,0,0.05
1757332166.0892458,-0.08,-0.108,9.691,0.07647126911461585,0.7945718208533902,0.26095238095238094,0,0.05
1757332166.1162298,-0.17,-0.22,9.711,0.07694221857991877,1.6399469692847166,0.2654636591478696,0,0.05
1757332166.1425712,-0.17,-0.22,9.711,0.07694221857991877,1.6399469692847166,0.2654636591478696,0,0.05
1757332166.1698318,-0.145,-0.047,9.575,0.07728303500769106,0.9120300744274347,0.26671679197994985,0,0.05
1757332166.1970818,-0.145,-0.047,9.575,0.07728303500769106,0.9120300744274347,0.26671679197994985,0,0.05
1757332166.2242508,0.032,-0.4,9.775,0.07729959572986136,2.350755110028691,0.27558897243107766,0,0.05
1757332166.2510672,0.032,-0.4,9.775,0.07729959572986136,2.350755110028691,0.27558897243107766,0,0.05
1757332166.2772992,0.164,-0.376,9.783,0.07773331010577127,2.4010553720257675,0.2822055137844612,0,0.05
1757332166.3039927,0.164,-0.376,9.783,0.07773331010577127,2.4010553720257675,0.2822055137844612,0,0.05
1757332166.3301926,0.166,-0.281,9.958,0.07817517188980143,1.8771740560047177,0.28230576441102756,0,0.05
1757332166.3573737,0.166,-0.281,9.958,0.07817517188980143,1.8771740560047177,0.28230576441102756,0,0.05
1757332166.3845296,0.166,-0.094,9.73,0.07861455017997623,1.1232000551787154,0.28230576441102756,0,0.05
1757332166.4123707,0.166,-0.094,9.73,0.07861455017997623,1.1232000551787154,0.28230576441102756,0,0.05
1757332166.4391835,0.149,-0.35,9.846,0.07896676516104734,2.2124966747734875,0.2831578947368421,0,0.05
1757332166.4649537,0.149,-0.35,9.846,0.07896676516104734,2.2124966747734875,0.2831578947368421,0,0.05
1757332166.4920905,0.003,-0.284,9.728,0.07896690762591632,1.6723157850662964,0.2904761904761905,0,0.05
1757332166.5187817,0.003,-0.284,9.728,0.07896690762591632,1.6723157850662964,0.2904761904761905,0,0.05
1757332166.544176,-0.298,-0.402,9.632,0.0803603291431786,2.9739932817421737,0.3055639097744361,0,0.05
1757332166.5715678,-0.298,-0.402,9.632,0.0803603291431786,2.9739932817421737,0.3055639097744361,0,0.05
1757332166.5994453,-0.307,-0.269,9.877,0.08181323242605686,2.3664702891368967,0.306015037593985,0,0.05
1757332166.6266823,-0.307,-0.269,9.877,0.08181323242605686,2.3664702891368967,0.306015037593985,0,0.05
1757332166.6536038,-0.21,-0.241,9.698,0.0824842712279135,1.8878536442807605,0.31087719298245614,0,0.05
1757332166.680557,-0.21,-0.241,9.698,0.0824842712279135,1.8878536442807605,0.31087719298245614,0,0.05
1757332166.7069569,-0.246,-0.411,9.788,0.08339631286813584,2.8016512344934776,0.3126817042606516,0,0.05
1757332166.7329485,-0.246,-0.411,9.788,0.08339631286813584,2.8016512344934776,0.3126817042606516,0,0.05
1757332166.7594097,0.062,-0.588,9.64,0.08345390943508878,3.5097821241348846,0.32812030075187965,0,0.05
1757332166.7856054,0.062,-0.588,9.64,0.08345390943508878,3.5097821241348846,0.32812030075187965,0,0.05
1757332166.8120685,-0.106,-0.348,9.783,0.08362203656931587,2.129590441156426,0.33654135338345864,0,0.05
1757332166.8395782,-0.106,-0.348,9.783,0.08362203656931587,2.129590441156426,0.33654135338345864,0,0.05
1757332166.8670392,-0.108,0.04,9.96,0.0837962111315303,0.662492850126563,0.33664160401002496,0,0.05
1757332166.8941357,-0.108,0.04,9.96,0.0837962111315303,0.662492850126563,0.33664160401002496,0,0.05
1757332166.9212935,0.139,-0.192,9.993,0.08408393128297464,1.3587999034570757,0.3490225563909774,0,0.05
1757332166.9482598,0.139,-0.192,9.993,0.08408393128297464,1.3587999034570757,0.3490225563909774,0,0.05
1757332166.975245,0.083,-0.021,9.942,0.08418628154277868,0.49338975330482615,0.351829573934837,0,0.05
1757332167.0025074,0.083,-0.021,9.942,0.08418628154277868,0.49338975330482615,0.351829573934837,0,0.05
1757332167.028728,0.158,-0.287,9.985,0.08455613520023252,1.8792537361931112,0.3555889724310776,0,0.05
1757332167.056438,0.158,-0.287,9.985,0.08455613520023252,1.8792537361931112,0.3555889724310776,0,0.05
1757332167.083766,0.196,-0.059,9.846,0.0851221475293005,1.1909450174881813,0.3574937343358396,0,0.05
1757332167.1108508,0.196,-0.059,9.846,0.0851221475293005,1.1909450174881813,0.3574937343358396,0,0.05
1757332167.1375887,0.197,-0.087,9.85,0.08569015404350724,1.252486994363837,0.3575438596491229,0,0.05
1757332167.1633942,0.197,-0.087,9.85,0.08569015404350724,1.252486994363837,0.3575438596491229,0,0.05
1757332167.1905901,0.247,-0.058,9.806,0.08657554504593085,1.482128071804148,0.3600501253132831,0,0.05
1757332167.2178268,0.247,-0.058,9.806,0.08657554504593085,1.482128071804148,0.3600501253132831,0,0.05
1757332167.2447097,0.248,0.082,9.752,0.08745904755941492,1.5342863979160628,0.3601002506265664,0,0.05
1757332167.2713587,0.248,0.082,9.752,0.08745904755941492,1.5342863979160628,0.3601002506265664,0,0.05
1757332167.299293,0.22,0.05,9.738,0.08814808562867375,1.3271929553195407,0.36150375939849627,0,0.05
1757332167.3270779,0.22,0.05,9.738,0.08814808562867375,1.3271929553195407,0.36150375939849627,0,0.05
1757332167.3551092,0.089,0.069,9.704,0.08826033933766628,0.664884523407497,0.36807017543859655,0,0.05
1757332167.3824997,0.089,0.069,9.704,0.08826033933766628,0.664884523407497,0.36807017543859655,0,0.05
1757332167.4092832,0.104,0.083,9.66,0.0884133898230353,0.7891617136648017,0.36882205513784466,0,0.05
1757332167.4366198,0.104,0.083,9.66,0.0884133898230353,0.7891617136648017,0.36882205513784466,0,0.05
1757332167.4630637,-0.127,-0.09,9.744,0.08864113040795452,0.9152003211934533,0.38040100250626574,0,0.05
1757332167.4894989,-0.127,-0.09,9.744,0.08864113040795452,0.9152003211934533,0.38040100250626574,0,0.05
1757332167.5166483,-0.083,-0.245,9.774,0.08873822457092546,1.5160287072128127,0.3826065162907269,0,0.05
1757332167.5438256,-0.083,-0.245,9.774,0.08873822457092546,1.5160287072128127,0.3826065162907269,0,0.05
1757332167.5707214,-0.035,-0.229,9.689,0.08875547870413408,1.369653000430893,0.38501253132832086,0,0.05
1757332167.599466,-0.035,-0.229,9.689,0.08875547870413408,1.369653000430893,0.38501253132832086,0,0.05
1757332167.625435,-0.101,-0.149,9.767,0.08889902980347987,1.0558401904985948,0.3883208020050126,0,0.05
1757332167.6526139,-0.101,-0.149,9.767,0.08889902980347987,1.0558401904985948,0.3883208020050126,0,0.05
1757332167.6789656,-0.115,-0.203,9.669,0.08908479107008109,1.3822669655695001,0.38902255639097744,0,0.05
1757332167.7055264,-0.115,-0.203,9.669,0.08908479107008109,1.3822669655695001,0.38902255639097744,0,0.05
1757332167.7321515,-0.089,0.002,9.785,0.08919586593559144,0.5212540663633549,0.39032581453634085,0,0.05
1757332167.7591472,-0.089,0.002,9.785,0.08919586593559144,0.5212540663633549,0.39032581453634085,0,0.05
1757332167.7862458,0.167,-0.023,9.77,0.08958585267775265,0.9885115092753521,0.40315789473684216,0,0.05
1757332167.8134809,0.167,-0.023,9.77,0.08958585267775265,0.9885115092753521,0.40315789473684216,0,0.05
1757332167.8397906,0.286,-0.17,9.644,0.09071998126102099,1.9758737216936502,0.40912280701754383,0,0.05
1757332167.8662057,0.286,-0.17,9.644,0.09071998126102099,1.9758737216936502,0.40912280701754383,0,0.05
1757332167.8920534,0.286,-0.17,9.644,0.09071998126102099,1.9758737216936502,0.40912280701754383,0,0.05
1757332167.918134,0.143,-0.09,9.658,0.0910013049356986,1.0022742661338644,0.4162907268170426,0,0.05
1757332167.9443567,0.069,-0.031,9.704,0.09106667886773955,0.44661877397064753,0.42,0,0.05
1757332167.970774,0.069,-0.031,9.704,0.09106667886773955,0.44661877397064753,0.42,0,0.05
1757332167.9975297,0.025,-0.215,9.732,0.09107525734248573,1.274100646176181,0.4222055137844611,0,0.05
1757332168.0247426,0.025,-0.215,9.732,0.09107525734248573,1.274100646176181,0.4222055137844611,0,0.05
1757332168.05206,0.123,-0.279,9.693,0.09128266538615094,1.8017421901691848,0.42711779448621545,0,0.05
1757332168.0794191,0.123,-0.279,9.693,0.09128266538615094,1.8017421901691848,0.42711779448621545,0,0.05
1757332168.1052957,0.122,-0.192,9.656,0.09148625579834382,1.3495588694407357,0.4271679197994988,0,0.05
1757332168.133122,0.122,-0.192,9.656,0.09148625579834382,1.3495588694407357,0.4271679197994988,0,0.05
1757332168.1600802,0.122,-0.192,9.656,0.09148625579834382,1.3495588694407357,0.4271679197994988,0,0.05
1757332168.1864417,0.016,-0.223,9.659,0.0914897535246434,1.325967173276777,0.4324812030075188,0,0.05
1757332168.2126505,0.058,-0.3,9.745,0.09153570341675427,1.7959252243591959,0.4345864661654135,0,0.05
1757332168.239155,0.058,-0.3,9.745,0.09153570341675427,1.7959252243591959,0.4345864661654135,0,0.05
1757332168.266482,0.058,-0.3,9.745,0.09153570341675427,1.7959252243591959,0.4345864661654135,0,0.05
1757332168.2936049,0.156,-0.177,9.663,0.09186743166106257,1.398670708355951,0.4394987468671679,0,0.05
1757332168.3205569,0.156,-0.177,9.663,0.09186743166106257,1.398670708355951,0.4394987468671679,0,0.05
1757332168.3465326,0.099,-0.311,9.708,0.09200069293217307,1.925524187399656,0.4423558897243108,0,0.05
1757332168.3732922,0.099,-0.311,9.708,0.09200069293217307,1.925524187399656,0.4423558897243108,0,0.05
1757332168.3999817,0.155,-0.353,9.868,0.09232654006297432,2.2373388073312985,0.4451629072681704,0,0.05
1757332168.4277174,0.155,-0.353,9.868,0.09232654006297432,2.2373388073312985,0.4451629072681704,0,0.05
1757332168.4555278,-0.042,-0.026,9.785,0.09235041959839706,0.289236452622049,0.4550375939849624,0,0.05
1757332168.4832158,0.127,-0.16,9.777,0.09256847465525182,1.1969412156976886,0.4635087719298245,0,0.05
1757332168.508518,0.127,-0.16,9.777,0.09256847465525182,1.1969412156976886,0.4635087719298245,0,0.05
1757332168.535187,0.127,-0.16,9.777,0.09256847465525182,1.1969412156976886,0.4635087719298245,0,0.05
1757332168.5620172,0.056,-0.018,9.779,0.0926108120037828,0.3446362832292429,0.46706766917293235,0,0.05
1757332168.5891604,0.056,-0.018,9.779,0.0926108120037828,0.3446362832292429,0.46706766917293235,0,0.05
1757332168.6163805,-0.006,-0.026,9.65,0.09261129790689687,0.15842882784463175,0.47017543859649114,0,0.05
1757332168.6425323,-0.006,-0.026,9.65,0.09261129790689687,0.15842882784463175,0.47017543859649114,0,0.05
1757332168.6698089,-0.12,-0.184,9.755,0.09280545511983658,1.2900235064171877,0.47588972431077686,0,0.05
1757332168.697294,-0.03,-0.156,9.82,0.09281757646049589,0.9267946622591786,0.48040100250626566,0,0.05
1757332168.724624,-0.03,-0.156,9.82,0.09281757646049589,0.9267946622591786,0.48040100250626566,0,0.05
1757332168.751924,-0.03,-0.156,9.82,0.09281757646049589,0.9267946622591786,0.48040100250626566,0,0.05
1757332168.7790458,-0.026,-0.126,9.638,0.09282667989322897,0.7647775944665138,0.48060150375939853,0,0.05
1757332168.805712,-0.026,-0.126,9.638,0.09282667989322897,0.7647775944665138,0.48060150375939853,0,0.05
1757332168.8324497,0.006,-0.051,9.724,0.09282716466638416,0.3025719818869282,0.4822055137844611,0,0.05
1757332168.8598905,0.006,-0.051,9.724,0.09282716466638416,0.3025719818869282,0.4822055137844611,0,0.05
1757332168.8875232,0.053,-0.204,9.708,0.09286498263608302,1.243765076592881,0.4845614035087719,0,0.05
1757332168.9148526,0.053,-0.204,9.708,0.09286498263608302,1.243765076592881,0.4845614035087719,0,0.05
1757332168.942357,-0.053,-0.1,9.488,0.09290278521120883,0.6834157326455965,0.4898746867167921,0,0.05
1757332168.9692287,0.064,-0.055,9.572,0.09295788024691613,0.5051021121051615,0.49573934837092737,0,0.05
1757332168.996473,0.064,-0.055,9.572,0.09295788024691613,0.5051021121051615,0.49573934837092737,0,0.05
1757332169.0237036,0.018,-0.291,9.778,0.09296223695673422,1.7079146992413856,0.4980451127819548,0,0.05
1757332169.0507252,0.018,-0.291,9.778,0.09296223695673422,1.7079146992413856,0.4980451127819548,0,0.05
1757332169.0774722,-0.238,-0.203,9.71,0.09372079545116975,1.8451866249912516,0.510877192982456,0,0.05
1757332169.1035426,-0.238,-0.203,9.71,0.09372079545116975,1.8451866249912516,0.510877192982456,0,0.05
1757332169.1312819,-0.126,-0.366,9.635,0.0939323027504383,2.3005925858257537,0.5164912280701754,0,0.05
1757332169.1587074,-0.126,-0.366,9.635,0.0939323027504383,2.3005925858257537,0.5164912280701754,0,0.05
1757332169.1857896,-0.268,-0.25,9.563,0.09488328356459846,2.1947890662472775,0.523609022556391,0,0.05
1757332169.2137613,-0.268,-0.25,9.563,0.09488328356459846,2.1947890662472775,0.523609022556391,0,0.05
1757332169.2407808,-0.15,-0.257,9.548,0.09517923880763074,1.7850956836704546,0.5295238095238096,0,0.05
1757332169.2680619,-0.15,-0.257,9.548,0.09517923880763074,1.7850956836704546,0.5295238095238096,0,0.05
1757332169.2948425,0.154,-0.289,9.773,0.0954901958318235,1.9191309249895754,0.5447619047619049,0,0.05
1757332169.3214738,0.154,-0.289,9.773,0.0954901958318235,1.9191309249895754,0.5447619047619049,0,0.05
1757332169.3485458,-0.036,-0.197,9.913,0.09550715941750126,1.1573313446852485,0.5542857142857144,0,0.05
1757332169.3750792,-0.036,-0.197,9.913,0.09550715941750126,1.1573313446852485,0.5542857142857144,0,0.05
1757332169.4010575,-0.023,-0.071,9.581,0.09551408273129151,0.4463038219618432,0.5549373433583961,0,0.05
1757332169.428575,-0.023,-0.071,9.581,0.09551408273129151,0.4463038219618432,0.5549373433583961,0,0.05
1757332169.4564233,0.203,0.005,9.648,0.09605187400566426,1.2057269154267674,0.566265664160401,0,0.05
1757332169.4841437,0.203,0.005,9.648,0.09605187400566426,1.2057269154267674,0.566265664160401,0,0.05
1757332169.5116217,-0.05,-0.028,9.701,0.09608440300069518,0.3384563374396807,0.5789473684210527,0,0.05
1757332169.5386865,-0.05,-0.028,9.701,0.09608440300069518,0.3384563374396807,0.5789473684210527,0,0.05
1757332169.5650542,-0.086,-0.183,9.522,0.09618057236261385,1.2164974152060206,0.5807518796992481,0,0.05
1757332169.5917697,-0.086,-0.183,9.522,0.09618057236261385,1.2164974152060206,0.5807518796992481,0,0.05
1757332169.619253,-0.162,-0.244,9.633,0.0965210469276002,1.7414873539793285,0.584561403508772,0,0.05
1757332169.6455462,-0.162,-0.244,9.633,0.0965210469276002,1.7414873539793285,0.584561403508772,0,0.05
1757332169.671482,-0.048,-0.217,9.76,0.09655088036885008,1.3044591112520498,0.5902756892230577,0,0.05
1757332169.6985798,-0.048,-0.217,9.76,0.09655088036885008,1.3044591112520498,0.5902756892230577,0,0.05
1757332169.7247782,0.017,-0.191,9.686,0.09655462184691109,1.1341441449988576,0.5935338345864662,0,0.05
1757332169.750415,0.017,-0.191,9.686,0.09655462184691109,1.1341441449988576,0.5935338345864662,0,0.05
1757332169.7762349,0.017,-0.191,9.686,0.09655462184691109,1.1341441449988576,0.5935338345864662,0,0.05
1757332169.8032773,0.053,-0.176,9.804,0.09659098042778115,1.074064630577471,0.5953383458646616,0,0.05
1757332169.8293598,0.053,-0.176,9.804,0.09659098042778115,1.074064630577471,0.5953383458646616,0,0.05
1757332169.8553584,0.115,-0.171,9.732,0.0967619760029734,1.2130433299841503,0.5984461152882206,0,0.05
1757332169.8818717,0.115,-0.171,9.732,0.0967619760029734,1.2130433299841503,0.5984461152882206,0,0.05
1757332169.9090915,0.033,-0.175,9.558,0.09677604300652098,1.0674090229305941,0.6025563909774436,0,0.05
1757332169.9348187,0.033,-0.175,9.558,0.09677604300652098,1.0674090229305941,0.6025563909774436,0,0.05
1757332169.9606729,0.246,-0.056,9.766,0.09755456165654172,1.4798420137543447,0.6132330827067669,0,0.05
1757332169.9872482,0.246,-0.056,9.766,0.09755456165654172,1.4798420137543447,0.6132330827067669,0,0.05
1757332170.0129023,0.128,0.043,9.78,0.09776427005813523,0.7910159670852936,0.6191478696741854,0,0.05
1757332170.0386357,0.128,0.043,9.78,0.09776427005813523,0.7910159670852936,0.6191478696741854,0,0.05
1757332170.0666242,-0.044,-0.182,9.58,0.09778902034482194,1.1197157471581587,0.6277694235588972,0,0.05
1757332170.0944273,-0.044,-0.182,9.58,0.09778902034482194,1.1197157471581587,0.6277694235588972,0,0.05
1757332170.1211948,-0.004,-0.252,9.783,0.09778922486654651,1.4757397383204425,0.6297744360902257,0,0.05
1757332170.1484752,-0.004,-0.252,9.783,0.09778922486654651,1.4757397383204425,0.6297744360902257,0,0.05
1757332170.1749034,-0.341,-0.398,9.809,0.0992644699779332,3.0584585310524193,0.6466666666666666,0,0.05
1757332170.2009513,-0.341,-0.398,9.809,0.0992644699779332,3.0584585310524193,0.6466666666666666,0,0.05
1757332170.2274811,0.073,-0.255,9.7,0.0993315533956859,1.566343774439825,0.6674185463659147,0,0.05
1757332170.2547503,0.073,-0.255,9.7,0.0993315533956859,1.566343774439825,0.6674185463659147,0,0.05
1757332170.2808924,0.017,-0.378,9.891,0.09933519013924522,2.190792622996241,0.6702255639097745,0,0.05
1757332170.3080487,0.017,-0.378,9.891,0.09933519013924522,2.190792622996241,0.6702255639097745,0,0.05
1757332170.3355372,-0.107,-0.36,9.832,0.09947915610820188,2.18753330958804,0.6764411027568922,0,0.05
1757332170.3628514,-0.107,-0.36,9.832,0.09947915610820188,2.18753330958804,0.6764411027568922,0,0.05
1757332170.3902433,-0.085,-0.324,9.821,0.09956990007025215,1.9534260167067792,0.6775438596491228,0,0.05
1757332170.4175608,-0.085,-0.324,9.821,0.09956990007025215,1.9534260167067792,0.6775438596491228,0,0.05
1757332170.4438012,-0.096,-0.418,9.886,0.09968553054480876,2.484093178776475,0.6780952380952381,0,0.05
1757332170.469328,-0.096,-0.418,9.886,0.09968553054480876,2.484093178776475,0.6780952380952381,0,0.05
1757332170.4963024,0.161,-0.081,9.744,0.10001003699629352,1.0596372568658754,0.6909774436090226,0,0.05
1757332170.5239367,0.161,-0.081,9.744,0.10001003699629352,1.0596372568658754,0.6909774436090226,0,0.05
1757332170.5513055,0.017,-0.13,9.719,0.10001364906851463,0.7728585482570397,0.6981954887218044,0,0.05
1757332170.5790489,0.017,-0.13,9.719,0.10001364906851463,0.7728585482570397,0.6981954887218044,0,0.05
1757332170.606268,0.116,0.003,9.735,0.10018168495288947,0.6829191457965336,0.703157894736842,0,0.05
1757332170.6335,0.116,0.003,9.735,0.10018168495288947,0.6829191457965336,0.703157894736842,0,0.05
1757332170.6610284,-0.196,0.016,9.719,0.10065987283918057,1.159151255219795,0.7187969924812029,0,0.05
1757332170.6879847,-0.196,0.016,9.719,0.10065987283918057,1.159151255219795,0.7187969924812029,0,0.05
1757332170.714423,0.142,-0.009,9.559,0.10090995986521847,0.85277996820357,0.7357393483709271,0,0.05
1757332170.7399974,0.142,-0.009,9.559,0.10090995986521847,0.85277996820357,0.7357393483709271,0,0.05
1757332170.7671123,0.243,-0.147,9.629,0.10163878442799285,1.6894264222634028,0.7408020050125312,0,0.05
1757332170.794961,0.243,-0.147,9.629,0.10163878442799285,1.6894264222634028,0.7408020050125312,0,0.05
1757332170.8227177,0.054,-0.018,9.584,0.10167464039769208,0.3402853295828312,0.7502756892230575,0,0.05
1757332170.8506267,0.054,-0.018,9.584,0.10167464039769208,0.3402853295828312,0.7502756892230575,0,0.05
1757332170.877965,0.167,-0.032,9.549,0.10201693486867756,1.0201532572119858,0.7559398496240601,0,0.05
1757332170.9040253,0.167,-0.032,9.549,0.10201693486867756,1.0201532572119858,0.7559398496240601,0,0.05
1757332170.9307368,0.046,-0.065,9.732,0.10204285864282714,0.4688022819058779,0.7620050125313282,0,0.05
1757332170.9576433,0.046,-0.065,9.732,0.10204285864282714,0.4688022819058779,0.7620050125313282,0,0.05
1757332170.984815,-0.159,-0.031,9.661,0.10235207618802855,0.9606348076735219,0.7722807017543859,0,0.05
1757332171.011082,-0.159,-0.031,9.661,0.10235207618802855,0.9606348076735219,0.7722807017543859,0,0.05
1757332171.0388298,0.11,0.022,9.505,0.1024997439021191,0.6761759240454831,0.7857644110275689,0,0.05
1757332171.0667024,0.11,0.022,9.505,0.1024997439021191,0.6761759240454831,0.7857644110275689,0,0.05
1757332171.0943284,-0.007,-0.015,9.6,0.10250034146284587,0.09879301745581973,0.7916290726817043,0,0.05
1757332171.121942,-0.007,-0.015,9.6,0.10250034146284587,0.09879301745581973,0.7916290726817043,0,0.05
1757332171.1486125,0.344,0.078,9.735,0.10393344023941477,2.0751133634236294,0.8092230576441103,0,0.05
1757332171.1756232,0.344,0.078,9.735,0.10393344023941477,2.0751133634236294,0.8092230576441103,0,0.05
1757332171.2010465,-0.049,-0.184,9.787,0.10396231288308279,1.1145875547167974,0.8289223057644111,0,0.05
1757332171.2278926,-0.049,-0.184,9.787,0.10396231288308279,1.1145875547167974,0.8289223057644111,0,0.05
1757332171.2550402,-0.152,-0.063,9.657,0.10423973570572788,0.9761275541497814,0.8340852130325814,0,0.05
1757332171.2823522,-0.152,-0.063,9.657,0.10423973570572788,0.9761275541497814,0.8340852130325814,0,0.05
1757332171.3091543,0.25,-0.25,9.82,0.10498653485090362,2.061952259354883,0.854235588972431,0,0.05
1757332171.3369265,0.25,-0.25,9.82,0.10498653485090362,2.061952259354883,0.854235588972431,0,0.05
1757332171.3644025,0.427,0.07,9.855,0.10713540497893309,2.514048891166872,0.863107769423559,0,0.05
1757332171.3923714,0.427,0.07,9.855,0.10713540497893309,2.514048891166872,0.863107769423559,0,0.05
1757332171.4196446,0.209,-0.137,9.566,0.10764384562063918,1.4964413888290058,0.8740350877192983,0,0.05
1757332171.4459102,0.209,-0.137,9.566,0.10764384562063918,1.4964413888290058,0.8740350877192983,0,0.05
1757332171.4718564,-0.112,-0.167,9.741,0.10778941274540836,1.1825660222419412,0.8901253132832082,0,0.05
1757332171.4980342,-0.112,-0.167,9.741,0.10778941274540836,1.1825660222419412,0.8901253132832082,0,0.05
1757332171.5252757,-0.216,-0.098,9.796,0.10832911658460065,1.387039628444277,0.8953383458646617,0,0.05
1757332171.5530198,-0.216,-0.098,9.796,0.10832911658460065,1.387039628444277,0.8953383458646617,0,0.05
1757332171.5800848,-0.149,-0.149,9.659,0.10858498975456966,1.2497491488364594,0.8986967418546365,0,0.05
1757332171.6060152,-0.149,-0.149,9.659,0.10858498975456966,1.2497491488364594,0.8986967418546365,0,0.05
1757332171.631625,-0.298,-0.103,9.808,0.10960250909536698,1.8412562216281623,0.9061654135338347,0,0.05
1757332171.6590116,-0.298,-0.103,9.808,0.10960250909536698,1.8412562216281623,0.9061654135338347,0,0.05
1757332171.6849523,-0.195,-0.268,9.671,0.1100353238737452,1.962814976489933,0.9113283208020052,0,0.05
1757332171.7115364,-0.195,-0.268,9.671,0.1100353238737452,1.962814976489933,0.9113283208020052,0,0.05
1757332171.7386475,-0.086,-0.215,9.698,0.110119310295697,1.3678087996942707,0.9167919799498746,0,0.05
1757332171.7662766,-0.086,-0.215,9.698,0.110119310295697,1.3678087996942707,0.9167919799498746,0,0.05
1757332171.794432,-0.143,-0.266,9.766,0.11035118939096217,1.7712377427638615,0.9196491228070174,0,0.05
1757332171.8215783,-0.143,-0.266,9.766,0.11035118939096217,1.7712377427638615,0.9196491228070174,0,0.05
1757332171.848092,-0.034,-0.247,9.73,0.11036428317168556,1.4678704623238386,0.9251127819548871,0,0.05
1757332171.8751006,-0.034,-0.247,9.73,0.11036428317168556,1.4678704623238386,0.9251127819548871,0,0.05
1757332171.9015713,0.214,-0.106,9.76,0.11088176134964668,1.4016689905001725,0.9375438596491227,0,0.05
1757332171.9289289,0.214,-0.106,9.76,0.11088176134964668,1.4016689905001725,0.9375438596491227,0,0.05
1757332171.956281,0.33,-0.027,9.797,0.11210269845101857,1.9356506743113453,0.9433583959899748,0,0.05
1757332171.9830484,0.33,-0.027,9.797,0.11210269845101857,1.9356506743113453,0.9433583959899748,0,0.05
1757332172.0099192,0.195,-0.046,9.814,0.1125258970193084,1.169527262110705,0.950125313283208,0,0.05
1757332172.0373242,0.195,-0.046,9.814,0.1125258970193084,1.169527262110705,0.950125313283208,0,0.05
1757332172.064378,0.187,-0.153,9.89,0.11291368384744162,1.3994731418480661,0.9505263157894737,0,0.05
1757332172.0914388,0.187,-0.153,9.89,0.11291368384744162,1.3994731418480661,0.9505263157894737,0,0.05
1757332172.1177495,0.099,-0.091,9.759,0.11302213278822869,0.7894289774308787,0.9549373433583958,0,0.05
1757332172.1438932,0.099,-0.091,9.759,0.11302213278822869,0.7894289774308787,0.9549373433583958,0,0.05
1757332172.1697845,0.032,-0.155,9.766,0.113033457436283,0.928459774046863,0.9582957393483709,0,0.05
1757332172.197301,0.032,-0.155,9.766,0.113033457436283,0.928459774046863,0.9582957393483709,0,0.05
1757332172.2251115,0.115,-0.275,9.895,0.11317961388872114,1.7254573696451825,0.9624561403508771,0,0.05
1757332172.2522795,0.115,-0.275,9.895,0.11317961388872114,1.7254573696451825,0.9624561403508771,0,0.05
1757332172.279344,0.187,-0.193,9.802,0.1135651685157029,1.5704419421369653,0.9660651629072683,0,0.05
1757332172.3059664,0.187,-0.193,9.802,0.1135651685157029,1.5704419421369653,0.9660651629072683,0,0.05
1757332172.3326225,0.146,-0.115,9.793,0.11379954964761503,1.0872319340187262,0.9681203007518798,0,0.05
1757332172.3589728,0.146,-0.115,9.793,0.11379954964761503,1.0872319340187262,0.9681203007518798,0,0.05
1757332172.386623,0.263,-0.137,9.893,0.11455679813961282,1.716931205454713,0.9739849624060151,0,0.05
1757332172.4126241,0.263,-0.137,9.893,0.11455679813961282,1.716931205454713,0.9739849624060151,0,0.05
1757332172.4390707,0.138,-0.058,9.784,0.11476441085981315,0.8765442652019679,0.9802506265664159,0,0.05
1757332172.4661617,0.138,-0.058,9.784,0.11476441085981315,0.8765442652019679,0.9802506265664159,0,0.05
1757332172.4935822,-0.186,-0.249,9.726,0.11514060969093397,1.8303006057828952,0.9964912280701755,0,0.05
1757332172.5210416,-0.186,-0.249,9.726,0.11514060969093397,1.8303006057828952,0.9964912280701755,0,0.05
1757332172.5475454,-0.195,-0.279,10.007,0.11555268279014555,1.9481810966046822,0.9969423558897244,0,0.05
1757332172.5736747,-0.195,-0.279,10.007,0.11555268279014555,1.9481810966046822,0.9969423558897244,0,0.05
1757332172.599915,-0.141,-0.249,9.724,0.11576754726606242,1.685569209906052,0.9996491228070173,0,0.05
1757332172.6262398,-0.141,-0.249,9.724,0.11576754726606242,1.685569209906052,0.9996491228070173,0,0.05
1757332172.651703,-0.142,-0.104,9.465,0.11598506369356358,1.0653508749570564,0.9996992481203006,0,0.05
1757332172.6770167,-0.142,-0.104,9.465,0.11598506369356358,1.0653508749570564,0.9996992481203006,0,0.05
1757332172.7041261,0.016,-0.089,9.736,0.1159878226366889,0.5321408248237501,1.0076190476190476,0,0.05
1757332172.7308931,0.016,-0.089,9.736,0.1159878226366889,0.5321408248237501,1.0076190476190476,0,0.05
1757332172.7577205,-0.101,-0.179,9.792,0.11609770669569662,1.2024297111280902,1.013483709273183,0,0.05
1757332172.7836518,-0.101,-0.179,9.792,0.11609770669569662,1.2024297111280902,1.013483709273183,0,0.05
1757332172.8110313,0.188,-0.145,9.572,0.11647762660700123,1.420859280480925,1.02796992481203,0,0.05
1757332172.8372798,0.188,-0.145,9.572,0.11647762660700123,1.420859280480925,1.02796992481203,0,0.05
1757332172.865414,0.008,-0.155,9.733,0.11647831343215784,0.9135840042335149,1.0369924812030074,0,0.05
1757332172.8930006,0.008,-0.155,9.733,0.11647831343215784,0.9135840042335149,1.0369924812030074,0,0.05
1757332172.9205632,0.043,-0.278,9.793,0.11649815449182016,1.645380268890715,1.0387468671679196,0,0.05
1757332172.9473422,0.043,-0.278,9.793,0.11649815449182016,1.645380268890715,1.0387468671679196,0,0.05
1757332172.973598,0.099,-0.28,9.589,0.11660326967971353,1.7739740472162986,1.0415538847117796,0,0.05
1757332173.0007071,0.099,-0.28,9.589,0.11660326967971353,1.7739740472162986,1.0415538847117796,0,0.05
1757332173.0269306,0.074,-0.261,9.793,0.11666195823832207,1.5868134627647728,1.0428070175438595,0,0.05
1757332173.0536637,0.074,-0.261,9.793,0.11666195823832207,1.5868134627647728,1.0428070175438595,0,0.05
1757332173.0809193,-0.162,-0.259,9.81,0.11694281722277775,1.7836609220623156,1.0546365914786966,0,0.05
1757332173.10787,-0.162,-0.259,9.81,0.11694281722277775,1.7836609220623156,1.0546365914786966,0,0.05
1757332173.134765,-0.335,-0.435,9.597,0.11813629840146508,3.2743239062166793,1.0633082706766916,0,0.05
1757332173.1635067,-0.335,-0.435,9.597,0.11813629840146508,3.2743239062166793,1.0633082706766916,0,0.05
1757332173.191427,-0.218,-0.281,9.806,0.11863808410455726,2.077112130142998,1.069172932330827,0,0.05
1757332173.2190025,-0.218,-0.281,9.806,0.11863808410455726,2.077112130142998,1.069172932330827,0,0.05
1757332173.245518,-0.115,-0.287,9.862,0.11877734422018367,1.795687359497312,1.0743358395989973,0,0.05
1757332173.2714224,-0.115,-0.287,9.862,0.11877734422018367,1.795687359497312,1.0743358395989973,0,0.05
1757332173.2984834,0.123,-0.165,9.672,0.11893645362125103,1.2189560038076985,1.086265664160401,0,0.05
1757332173.3262882,0.123,-0.165,9.672,0.11893645362125103,1.2189560038076985,1.086265664160401,0,0.05
1757332173.3531857,0.45,0.043,9.755,0.12104598299819785,2.6532063888276127,1.10265664160401,0,0.05
1757332173.3808737,0.45,0.043,9.755,0.12104598299819785,2.6532063888276127,1.10265664160401,0,0.05
1757332173.4082334,0.741,0.04,9.929,0.12658922742476944,4.274255550342182,1.1172431077694236,0,0.05
1757332173.4355755,0.741,0.04,9.929,0.12658922742476944,4.274255550342182,1.1172431077694236,0,0.05
1757332173.4630487,0.299,-0.117,9.726,0.1274689570052254,1.8907710595387013,1.1393984962406012,0,0.05
1757332173.4909146,0.299,-0.117,9.726,0.1274689570052254,1.8907710595387013,1.1393984962406012,0,0.05
1757332173.5182676,0.255,-0.067,9.742,0.12810502527223513,1.5502603805699655,1.1416040100250626,0,0.05
1757332173.5443983,0.255,-0.067,9.742,0.12810502527223513,1.5502603805699655,1.1416040100250626,0,0.05
1757332173.5700212,0.297,-0.162,9.842,0.1289628628714484,1.9687106896519542,1.1437092731829572,0,0.05
1757332173.5974343,0.297,-0.162,9.842,0.1289628628714484,1.9687106896519542,1.1437092731829572,0,0.05
1757332173.6248007,0.167,-0.169,9.791,0.12923290022281478,1.3900881173023594,1.1502255639097745,0,0.05
1757332173.6518528,0.167,-0.169,9.791,0.12923290022281478,1.3900881173023594,1.1502255639097745,0,0.05
1757332173.6784666,0.103,-0.184,9.745,0.12933547463863115,1.2396017152835581,1.1534335839598995,0,0.05
1757332173.7052386,0.103,-0.184,9.745,0.12933547463863115,1.2396017152835581,1.1534335839598995,0,0.05
1757332173.7320905,0.109,-0.332,9.881,0.12945025106194272,2.0253846150616397,1.1537343358395988,0,0.05
1757332173.7589042,0.109,-0.332,9.881,0.12945025106194272,2.0253846150616397,1.1537343358395988,0,0.05
1757332173.7858818,0.075,-0.394,9.859,0.12950455590441595,2.3295698714199062,1.155438596491228,0,0.05
1757332173.8139832,0.075,-0.394,9.859,0.12950455590441595,2.3295698714199062,1.155438596491228,0,0.05
1757332173.8397467,0.303,-0.27,9.838,0.13038770072364955,2.362263300132094,1.1668671679197995,0,0.05
1757332173.8672428,0.303,-0.27,9.838,0.13038770072364955,2.362263300132094,1.1668671679197995,0,0.05
1757332173.8951106,0.319,-0.256,9.99,0.13135963992033473,2.3445458193697974,1.1676691729323307,0,0.05
1757332173.922612,0.319,-0.256,9.99,0.13135963992033473,2.3445458193697974,1.1676691729323307,0,0.05
1757332173.9501975,0.205,-0.376,9.849,0.13175893707828704,2.489762176581197,1.1733834586466163,0,0.05
1757332173.9766858,0.205,-0.376,9.849,0.13175893707828704,2.489762176581197,1.1733834586466163,0,0.05
1757332174.0031834,0.205,-0.376,9.849,0.13175893707828704,2.489762176581197,1.1733834586466163,0,0.05
1757332174.0294816,0.205,-0.376,9.849,0.13175893707828704,2.489762176581197,1.1733834586466163,0,0.05
1757332174.0567317,-0.042,-0.413,9.841,0.1317756711233147,2.4155176708422124,1.1857644110275687,0,0.05
1757332174.08425,0.101,-0.265,9.984,0.13187240044831214,1.6270448839524998,1.1929323308270676,0,0.05
1757332174.1117985,0.221,-0.304,9.771,0.13233454764346309,2.202797412385026,1.1989473684210523,0,0.05
1757332174.1391091,0.221,-0.304,9.771,0.13233454764346309,2.202797412385026,1.1989473684210523,0,0.05
1757332174.1668396,-0.049,-0.089,9.738,0.1323572249633544,0.5977492402711567,1.2124812030075185,0,0.05
1757332174.1947906,-0.049,-0.089,9.738,0.1323572249633544,0.5977492402711567,1.2124812030075185,0,0.05
1757332174.2220287,0.042,-0.193,9.944,0.13237388337583814,1.137913069145456,1.2170426065162905,0,0.05
1757332174.2494922,0.042,-0.193,9.944,0.13237388337583814,1.137913069145456,1.2170426065162905,0,0.05
1757332174.276188,0.113,-0.247,9.803,0.13249440554227185,1.5871426613688142,1.2206015037593982,0,0.05
1757332174.3025713,0.113,-0.247,9.803,0.13249440554227185,1.5871426613688142,1.2206015037593982,0,0.05
1757332174.3297822,-0.046,-0.19,9.65,0.13251436714560424,1.1605357800512923,1.2285714285714286,0,0.05
1757332174.3575578,-0.046,-0.19,9.65,0.13251436714560424,1.1605357800512923,1.2285714285714286,0,0.05
1757332174.3849943,0.079,-0.271,9.939,0.1325732250494043,1.6268343131049359,1.2348370927318295,0,0.05
1757332174.410616,0.079,-0.271,9.939,0.1325732250494043,1.6268343131049359,1.2348370927318295,0,0.05
1757332174.4368854,0.085,-0.261,9.773,0.13264133028585018,1.6088319149758445,1.2351378446115286,0,0.05
1757332174.4646792,0.085,-0.261,9.773,0.13264133028585018,1.6088319149758445,1.2351378446115286,0,0.05
1757332174.4911747,0.129,-0.212,9.446,0.13279806097982003,1.50491605797218,1.2373433583959899,0,0.05
1757332174.5185783,0.129,-0.212,9.446,0.13279806097982003,1.50491605797218,1.2373433583959899,0,0.05
1757332174.5446796,0.283,-0.186,9.561,0.13354979408445375,2.028575157089559,1.2450626566416039,0,0.05
1757332174.5723896,0.283,-0.186,9.561,0.13354979408445375,2.028575157089559,1.2450626566416039,0,0.05
1757332174.5994418,0.039,-0.327,9.745,0.1335640295888081,1.9354873069885434,1.2572932330827067,0,0.05
1757332174.6264691,0.039,-0.327,9.745,0.1335640295888081,1.9354873069885434,1.2572932330827067,0,0.05
1757332174.6527739,-0.126,-0.565,9.737,0.13371252746096754,3.4023143593634955,1.265563909774436,0,0.05
1757332174.678905,-0.126,-0.565,9.737,0.13371252746096754,3.4023143593634955,1.265563909774436,0,0.05
1757332174.7055564,-0.206,-0.358,9.961,0.13410864998202016,2.3744360891206253,1.2695739348370927,0,0.05
1757332174.731549,-0.206,-0.358,9.961,0.13410864998202016,2.3744360891206253,1.2695739348370927,0,0.05
1757332174.7571316,-0.098,-0.334,9.951,0.13419813709586284,2.003357718779539,1.2749874686716791,0,0.05
1757332174.782552,-0.098,-0.334,9.951,0.13419813709586284,2.003357718779539,1.2749874686716791,0,0.05
1757332174.8085387,-0.025,-0.29,9.844,0.13420395858543072,1.6936758456111038,1.2786466165413533,0,0.05
1757332174.834184,-0.025,-0.29,9.844,0.13420395858543072,1.6936758456111038,1.2786466165413533,0,0.05
1757332174.860376,0.0,-0.319,9.913,0.13420395858543072,1.8431401737855728,1.2798997493734336,0,0.05
1757332174.8868315,0.0,-0.319,9.913,0.13420395858543072,1.8431401737855728,1.2798997493734336,0,0.05
1757332174.9132779,0.119,-0.179,9.928,0.13433579195434103,1.2402904727813624,1.2858646616541352,0,0.05
1757332174.938947,0.119,-0.179,9.928,0.13433579195434103,1.2402904727813624,1.2858646616541352,0,0.05
1757332174.9650507,0.132,-0.242,9.735,0.13449782526122867,1.6219712411998728,1.286516290726817,0,0.05
1757332174.9920135,0.132,-0.242,9.735,0.13449782526122867,1.6219712411998728,1.286516290726817,0,0.05
1757332175.018374,0.244,-0.19,9.809,0.13505000925583086,1.805779714645934,1.2921303258145365,0,0.05
1757332175.044728,0.244,-0.19,9.809,0.13505000925583086,1.805779714645934,1.2921303258145365,0,0.05
1757332175.072081,0.048,-0.236,9.941,0.1350713330059343,1.3877831616891654,1.301954887218045,0,0.05
1757332175.0985043,0.048,-0.236,9.941,0.1350713330059343,1.3877831616891654,1.301954887218045,0,0.05
1757332175.126061,0.222,-0.465,9.732,0.13552665789430507,3.0307828664976637,1.310676691729323,0,0.05
1757332175.1535456,0.222,-0.465,9.732,0.13552665789430507,3.0307828664976637,1.310676691729323,0,0.05
1757332175.179699,0.107,-0.41,9.742,0.13563221409385015,2.490533302886928,1.3164411027568923,0,0.05
1757332175.2067447,0.107,-0.41,9.742,0.13563221409385015,2.490533302886928,1.3164411027568923,0,0.05
1757332175.2348232,0.032,-0.195,9.733,0.13564165105158518,1.1631111117029025,1.3202005012531328,0,0.05
1757332175.2628202,0.032,-0.195,9.733,0.13564165105158518,1.1631111117029025,1.3202005012531328,0,0.05
1757332175.290287,0.122,-0.237,9.625,0.1357787446546771,1.5863613123377054,1.3247117794486214,0,0.05
1757332175.3176086,0.122,-0.237,9.625,0.1357787446546771,1.5863613123377054,1.3247117794486214,0,0.05
1757332175.3437114,-0.101,-0.275,9.705,0.1358726241742611,1.7290385128024461,1.3358897243107768,0,0.05
1757332175.3696666,-0.101,-0.275,9.705,0.1358726241742611,1.7290385128024461,1.3358897243107768,0,0.05
1757332175.3975377,0.094,0.005,9.754,0.13595388924190438,0.5529269613756614,1.3456641604010025,0,0.05
1757332175.4255633,0.094,0.005,9.754,0.13595388924190438,0.5529269613756614,1.3456641604010025,0,0.05
1757332175.4522061,0.116,0.086,9.668,0.13607755141829972,0.8557118708190206,1.346766917293233,0,0.05
1757332175.4777794,0.116,0.086,9.668,0.13607755141829972,0.8557118708190206,1.346766917293233,0,0.05
1757332175.5058866,0.187,-0.079,9.785,0.13639839625156888,1.1885044530473992,1.3503258145363406,0,0.05
1757332175.5339518,0.187,-0.079,9.785,0.13639839625156888,1.1885044530473992,1.3503258145363406,0,0.05
1757332175.5599346,0.213,0.178,9.763,0.1368135409964964,1.6286101354369553,1.3516290726817042,0,0.05
1757332175.5874248,0.213,0.178,9.763,0.1368135409964964,1.6286101354369553,1.3516290726817042,0,0.05
1757332175.6135993,0.209,0.186,9.61,0.13721205304199774,1.667606865774661,1.3518295739348367,0,0.05
1757332175.6399097,0.209,0.186,9.61,0.13721205304199774,1.667606865774661,1.3518295739348367,0,0.05
1757332175.6667686,0.384,0.037,9.616,0.13854886322160856,2.297382395766692,1.3606015037593981,0,0.05
1757332175.6939409,0.384,0.037,9.616,0.13854886322160856,2.297382395766692,1.3606015037593981,0,0.05
1757332175.721556,0.045,0.067,9.629,0.13856713174486943,0.4802364859515959,1.3775939849624057,0,0.05
1757332175.7490263,0.045,0.067,9.629,0.13856713174486943,0.4802364859515959,1.3775939849624057,0,0.05
1757332175.775687,-0.198,-0.122,9.704,0.1389203368841294,1.372900858750994,1.3897744360902253,0,0.05
1757332175.8028908,-0.198,-0.122,9.704,0.1389203368841294,1.372900858750994,1.3897744360902253,0,0.05
1757332175.8297665,-0.198,-0.122,9.704,0.1389203368841294,1.372900858750994,1.3897744360902253,0,0.05
1757332175.8567078,-0.279,-0.102,9.772,0.13961899047049436,1.7412073947285553,1.3938345864661652,0,0.05
1757332175.8833,0.086,-0.081,9.809,0.13968519069679505,0.6900378909352753,1.4121303258145361,0,0.05
1757332175.90913,0.086,-0.081,9.809,0.13968519069679505,0.6900378909352753,1.4121303258145361,0,0.05
1757332175.9350593,0.057,-0.223,9.767,0.13971426197779524,1.3499847022775682,1.4135839598997493,0,0.05
1757332175.962917,0.057,-0.223,9.767,0.13971426197779524,1.3499847022775682,1.4135839598997493,0,0.05
1757332175.9911222,-0.239,0.001,9.703,0.1402243826871775,1.4110113079246132,1.428421052631579,0,0.05
1757332176.0185516,-0.239,0.001,9.703,0.1402243826871775,1.4110113079246132,1.428421052631579,0,0.05
1757332176.0452003,0.067,-0.034,9.759,0.14026439320084053,0.44110370660841286,1.4437593984962405,0,0.05
1757332176.0716798,0.067,-0.034,9.759,0.14026439320084053,0.44110370660841286,1.4437593984962405,0,0.05
1757332176.0984192,0.223,-0.045,9.706,0.14070686728088294,1.342687036710104,1.4515789473684209,0,0.05
1757332176.1264098,0.223,-0.045,9.706,0.14070686728088294,1.342687036710104,1.4515789473684209,0,0.05
1757332176.152665,0.21,0.072,9.568,0.14109809530961076,1.329157739460443,1.452230576441103,0,0.05
1757332176.1788218,0.21,0.072,9.568,0.14109809530961076,1.329157739460443,1.452230576441103,0,0.05
1757332176.205636,0.21,0.072,9.568,0.14109809530961076,1.329157739460443,1.452230576441103,0,0.05
1757332176.2329586,0.236,0.366,9.732,0.14159065117443312,2.562179889937774,1.4535338345864663,0,0.05
1757332176.2612276,0.168,0.155,9.641,0.1418396013107764,1.3581826699594715,1.456942355889724,0,0.05
1757332176.2890036,0.168,0.155,9.641,0.1418396013107764,1.3581826699594715,1.456942355889724,0,0.05
1757332176.315152,0.15,0.234,9.692,0.1420377502637943,1.6426926647102158,1.4578446115288222,0,0.05
1757332176.34153,0.15,0.234,9.692,0.1420377502637943,1.6426926647102158,1.4578446115288222,0,0.05
1757332176.3677807,0.123,0.043,9.761,0.14217083034152964,0.7647963203156956,1.4591979949874687,0,0.05
1757332176.394512,0.123,0.043,9.761,0.14217083034152964,0.7647963203156956,1.4591979949874687,0,0.05
1757332176.421033,0.123,0.043,9.761,0.14217083034152964,0.7647963203156956,1.4591979949874687,0,0.05
1757332176.4481475,0.174,0.028,9.667,0.14243677544791583,1.0444400848496345,1.4617543859649123,0,0.05
1757332176.474443,0.249,0.023,9.751,0.14297984997893934,1.4690024289213939,1.465513784461153,0,0.05
1757332176.502231,0.249,0.023,9.751,0.14297984997893934,1.4690024289213939,1.465513784461153,0,0.05
1757332176.5300536,0.233,-0.063,9.822,0.1434536859059397,1.4077096555769617,1.466315789473684,0,0.05
1757332176.5570304,0.233,-0.063,9.822,0.1434536859059397,1.4077096555769617,1.466315789473684,0,0.05
1757332176.5836153,0.188,-0.037,9.777,0.143761329988283,1.122719753980534,1.4685714285714284,0,0.05
1757332176.6100426,0.188,-0.037,9.777,0.143761329988283,1.122719753980534,1.4685714285714284,0,0.05
1757332176.6367633,0.113,-0.155,9.774,0.14387231318082017,1.1243021794573798,1.4723308270676692,0,0.05
1757332176.6643958,0.113,-0.155,9.774,0.14387231318082017,1.1243021794573798,1.4723308270676692,0,0.05
1757332176.6925786,0.071,-0.149,9.813,0.1439161040328705,0.9636057407673857,1.4744360902255638,0,0.05
1757332176.7206419,0.071,-0.149,9.813,0.1439161040328705,0.9636057407673857,1.4744360902255638,0,0.05
1757332176.747956,0.074,-0.156,9.742,0.14396365860869195,1.0153706278497563,1.4745864661654133,0,0.05
1757332176.7741268,0.074,-0.156,9.742,0.14396365860869195,1.0153706278497563,1.4745864661654133,0,0.05
1757332176.8019643,-0.014,-0.157,9.778,0.14396536041701144,0.9235373961489619,1.4789974937343355,0,0.05
1757332176.8285446,-0.014,-0.157,9.778,0.14396536041701144,0.9235373961489619,1.4789974937343355,0,0.05
1757332176.8546948,0.007,-0.093,9.779,0.14396578586594802,0.5464176526222654,1.4800501253132832,0,0.05
1757332176.880894,0.007,-0.093,9.779,0.14396578586594802,0.5464176526222654,1.4800501253132832,0,0.05
1757332176.9077494,0.074,-0.092,9.73,0.14401332403635436,0.6952161697788495,1.483408521303258,0,0.05
1757332176.9358659,0.074,-0.092,9.73,0.14401332403635436,0.6952161697788495,1.483408521303258,0,0.05
1757332176.9635532,0.053,-0.122,9.783,0.14403770339740912,0.7789768614269115,1.4844611528822054,0,0.05
1757332176.9911168,0.053,-0.122,9.783,0.14403770339740912,0.7789768614269115,1.4844611528822054,0,0.05
1757332177.0186625,0.078,-0.272,9.874,0.14409049239974164,1.641497231788855,1.4857142857142855,0,0.05
1757332177.0454097,0.078,-0.272,9.874,0.14409049239974164,1.641497231788855,1.4857142857142855,0,0.05
1757332177.0717752,0.027,-0.196,9.811,0.14409681641174452,1.1552836929200594,1.4882706766917289,0,0.05
1757332177.09898,0.027,-0.196,9.811,0.14409681641174452,1.1552836929200594,1.4882706766917289,0,0.05
1757332177.1260355,0.027,-0.196,9.811,0.14409681641174452,1.1552836929200594,1.4882706766917289,0,0.05
1757332177.1523402,0.035,-0.191,9.801,0.144107442555893,1.13501254147128,1.488671679197995,0,0.05
1757332177.179085,0.078,-0.137,9.791,0.14416020602094048,0.9224598342114395,1.490827067669173,0,0.05
1757332177.2064192,0.078,-0.137,9.791,0.14416020602094048,0.9224598342114395,1.490827067669173,0,0.05
1757332177.2334533,-0.004,-0.145,9.786,0.14416034475541462,0.8492172463538054,1.4949373433583957,0,0.05
1757332177.2615583,-0.004,-0.145,9.786,0.14416034475541462,0.8492172463538054,1.4949373433583957,0,0.05
1757332177.2888799,-0.103,-0.148,9.828,0.14425230500758038,1.051083659537696,1.4998997493734334,0,0.05
1757332177.3156126,-0.103,-0.148,9.828,0.14425230500758038,1.051083659537696,1.4998997493734334,0,0.05
1757332177.3426592,-0.022,-0.175,9.847,0.14425649898704737,1.0261604712245629,1.5039598997493733,0,0.05
1757332177.3694718,-0.022,-0.175,9.847,0.14425649898704737,1.0261604712245629,1.5039598997493733,0,0.05
1757332177.397194,0.13,-0.042,9.79,0.14440286527628182,0.7994919871182123,1.5115789473684211,0,0.05
1757332177.4251988,0.13,-0.042,9.79,0.14440286527628182,0.7994919871182123,1.5115789473684211,0,0.05
1757332177.4524248,0.193,-0.09,9.852,0.14472494601830052,1.2382674693919213,1.5147368421052632,0,0.05
1757332177.4797783,0.193,-0.09,9.852,0.14472494601830052,1.2382674693919213,1.5147368421052632,0,0.05
1757332177.507334,0.188,-0.04,9.795,0.14502989347027734,1.1241762740022652,1.5149874686716789,0,0.05
1757332177.5343547,0.188,-0.04,9.795,0.14502989347027734,1.1241762740022652,1.5149874686716789,0,0.05
1757332177.5613773,0.059,-0.193,9.699,0.1450598928029385,1.1920383033547668,1.521453634085213,0,0.05
1757332177.5882757,0.059,-0.193,9.699,0.1450598928029385,1.1920383033547668,1.521453634085213,0,0.05
1757332177.6145465,0.06,-0.31,9.772,0.14509091115573022,1.8506985191815037,1.5215037593984961,0,0.05
1757332177.641132,0.06,-0.31,9.772,0.14509091115573022,1.8506985191815037,1.5215037593984961,0,0.05
1757332177.6687648,0.07,-0.257,9.71,0.14513311992787864,1.5713308657141676,1.5220050125313282,0,0.05
1757332177.6963525,0.07,-0.257,9.71,0.14513311992787864,1.5713308657141676,1.5220050125313282,0,0.05
1757332177.7248871,-0.197,-0.348,9.598,0.14546698938247124,2.385792479044172,1.5353884711779446,0,0.05
1757332177.7526848,-0.197,-0.348,9.598,0.14546698938247124,2.385792479044172,1.5353884711779446,0,0.05
1757332177.7806137,-0.342,-0.284,9.679,0.14646861438547168,2.629677522319695,1.54265664160401,0,0.05
1757332177.8068051,-0.342,-0.284,9.679,0.14646861438547168,2.629677522319695,1.54265664160401,0,0.05
1757332177.8334415,-0.182,-0.219,9.708,0.14675103066077594,1.680113500504694,1.550676691729323,0,0.05
1757332177.8609312,-0.182,-0.219,9.708,0.14675103066077594,1.680113500504694,1.550676691729323,0,0.05
1757332177.8863955,-0.054,-0.184,9.698,0.14677586654487856,1.1327719542737487,1.557092731829574,0,0.05
1757332177.9135935,-0.054,-0.184,9.698,0.14677586654487856,1.1327719542737487,1.557092731829574,0,0.05
1757332177.9411397,0.055,-0.018,9.694,0.1468016263533889,0.34203616770001344,1.5625563909774434,0,0.05
1757332177.9684982,0.055,-0.018,9.694,0.1468016263533889,0.34203616770001344,1.5625563909774434,0,0.05
1757332177.9967763,0.057,-0.031,9.668,0.1468292886313899,0.38452140309269284,1.5626566416040097,0,0.05
1757332178.0247238,0.057,-0.031,9.668,0.1468292886313899,0.38452140309269284,1.5626566416040097,0,0.05
1757332178.0520527,0.157,-0.111,9.73,0.1470389829262975,1.1320822887284998,1.5676691729323309,0,0.05
1757332178.0788414,0.157,-0.111,9.73,0.1470389829262975,1.1320822887284998,1.5676691729323309,0,0.05
1757332178.105263,0.255,-0.012,9.658,0.147590734804052,1.5141010088942195,1.5725814536340854,0,0.05
1757332178.131809,0.255,-0.012,9.658,0.147590734804052,1.5141010088942195,1.5725814536340854,0,0.05
1757332178.1596136,0.173,-0.189,9.728,0.1478439971726955,1.5087456773622576,1.576691729323308,0,0.05
1757332178.187474,0.173,-0.189,9.728,0.1478439971726955,1.5087456773622576,1.576691729323308,0,0.05
1757332178.2139416,0.225,-0.249,9.767,0.14827140654893647,1.9679313643134195,1.579298245614035,0,0.05
1757332178.2411664,0.225,-0.249,9.767,0.14827140654893647,1.9679313643134195,1.579298245614035,0,0.05
1757332178.268871,0.086,-0.282,9.668,0.14833374531777993,1.746671699935901,1.586265664160401,0,0.05
1757332178.2965977,0.086,-0.282,9.668,0.14833374531777993,1.746671699935901,1.586265664160401,0,0.05
1757332178.3238199,0.134,-0.225,9.674,0.14848498240562916,1.5506450765241533,1.588671679197995,0,0.05
1757332178.3504133,0.134,-0.225,9.674,0.14848498240562916,1.5506450765241533,1.588671679197995,0,0.05
1757332178.3771129,0.101,-0.087,9.855,0.14857083327490628,0.7749670409545627,1.5903258145363408,0,0.05
1757332178.4048193,0.101,-0.087,9.855,0.14857083327490628,0.7749670409545627,1.5903258145363408,0,0.05
1757332178.431318,0.037,-0.187,9.822,0.14858235090346364,1.1118563819424416,1.593533834586466,0,0.05
1757332178.459586,0.037,-0.187,9.822,0.14858235090346364,1.1118563819424416,1.593533834586466,0,0.05
1757332178.4872901,0.056,-0.246,9.802,0.14860873123743437,1.4744093721127085,1.5944862155388468,0,0.05
1757332178.5132535,0.056,-0.246,9.802,0.14860873123743437,1.4744093721127085,1.5944862155388468,0,0.05
1757332178.5408397,0.111,-0.114,9.882,0.1487123313649544,0.9224575234544939,1.5972431077694234,0,0.05
1757332178.5687115,0.111,-0.114,9.882,0.1487123313649544,0.9224575234544939,1.5972431077694234,0,0.05
1757332178.5965378,0.063,-0.271,9.788,0.148745689013161,1.628209472431036,1.5996491228070175,0,0.05
1757332178.6244802,0.063,-0.271,9.788,0.148745689013161,1.628209472431036,1.5996491228070175,0,0.05
1757332178.6520438,0.086,-0.247,9.788,0.14880782909511178,1.530626629500075,1.6008020050125313,0,0.05
1757332178.6786067,0.086,-0.247,9.788,0.14880782909511178,1.530626629500075,1.6008020050125313,0,0.05
1757332178.7052088,0.101,-0.144,9.935,0.148893493813531,1.0142581168705955,1.6015538847117794,0,0.05
1757332178.733403,0.101,-0.144,9.935,0.148893493813531,1.0142581168705955,1.6015538847117794,0,0.05
1757332178.7613537,0.038,-0.245,9.773,0.14890561607944813,1.453214311752204,1.6047117794486214,0,0.05
1757332178.7893584,0.038,-0.245,9.773,0.14890561607944813,1.453214311752204,1.6047117794486214,0,0.05
1757332178.8169622,-0.034,-0.043,9.734,0.14891531989691323,0.3226628292327298,1.6083208020050126,0,0.05
1757332178.8446133,-0.034,-0.043,9.734,0.14891531989691323,0.3226628292327298,1.6083208020050126,0,0.05
1757332178.871302,0.235,-0.168,9.884,0.1493781610544192,1.6740824855805603,1.6218045112781954,0,0.05
1757332178.8991034,0.235,-0.168,9.884,0.1493781610544192,1.6740824855805603,1.6218045112781954,0,0.05
1757332178.9263358,0.003,-0.011,9.8,0.149378236366614,0.06666041866023512,1.6334335839598997,0,0.05
1757332178.9526908,0.003,-0.011,9.8,0.149378236366614,0.06666041866023512,1.6334335839598997,0,0.05
1757332178.9787161,-0.098,-0.395,9.788,0.14945858121901198,2.380930823043236,1.6384962406015038,0,0.05
1757332179.0067387,-0.098,-0.395,9.788,0.14945858121901198,2.380930823043236,1.6384962406015038,0,0.05
1757332179.0346675,0.006,-0.203,9.992,0.14945888230546886,1.1643835675992922,1.6437092731829575,0,0.05
1757332179.062602,0.006,-0.203,9.992,0.14945888230546886,1.1643835675992922,1.6437092731829575,0,0.05
1757332179.0908117,-0.125,-0.244,9.929,0.14958950497946039,1.5816233378005355,1.6502756892230575,0,0.05
1757332179.1188447,-0.125,-0.244,9.929,0.14958950497946039,1.5816233378005355,1.6502756892230575,0,0.05
1757332179.1459825,-0.051,-0.296,9.875,0.149611237880047,1.7421913079112747,1.6539849624060152,0,0.05
1757332179.1723309,-0.051,-0.296,9.875,0.149611237880047,1.7421913079112747,1.6539849624060152,0,0.05
1757332179.200104,0.117,-0.148,9.947,0.1497255656192355,1.0865775886341744,1.6624060150375939,0,0.05
1757332179.2274594,0.117,-0.148,9.947,0.1497255656192355,1.0865775886341744,1.6624060150375939,0,0.05
1757332179.254855,0.055,-0.03,9.809,0.1497508180278158,0.36594163409474306,1.6655137844611527,0,0.05
1757332179.2815344,0.055,-0.03,9.809,0.1497508180278158,0.36594163409474306,1.6655137844611527,0,0.05
1757332179.3090389,0.114,0.006,9.652,0.14985925897321126,0.6776268490802998,1.6684711779448622,0,0.05
1757332179.3380313,0.141,-0.177,9.798,0.15002499791701382,1.3230777947073646,1.6698245614035088,0,0.05
1757332179.3656461,0.141,-0.177,9.798,0.15002499791701382,1.3230777947073646,1.6698245614035088,0,0.05
1757332179.3941607,0.04,-0.161,9.802,0.15003832843643652,0.9696133312513487,1.6748872180451126,0,0.05
1757332179.4216263,0.04,-0.161,9.802,0.15003832843643652,0.9696133312513487,1.6748872180451126,0,0.05
1757332179.4479413,0.273,0.006,9.767,0.15065796527233466,1.601459052003913,1.6865664160401004,0,0.05
1757332179.4753313,0.273,0.006,9.767,0.15065796527233466,1.601459052003913,1.6865664160401004,0,0.05
1757332179.5017273,0.103,-0.176,9.769,0.15074596180329342,1.195853025097725,1.6950877192982456,0,0.05
1757332179.528947,0.103,-0.176,9.769,0.15074596180329342,1.195853025097725,1.6950877192982456,0,0.05
1757332179.5568116,0.11,-0.053,9.828,0.1508462627975914,0.7118023187553203,1.6954385964912282,0,0.05
1757332179.5840015,0.11,-0.053,9.828,0.1508462627975914,0.7118023187553203,1.6954385964912282,0,0.05
1757332179.61142,0.134,-0.278,10.054,0.15099498336037526,1.7581547712525847,1.6966416040100252,0,0.05
1757332179.6381938,0.134,-0.278,10.054,0.15099498336037526,1.7581547712525847,1.6966416040100252,0,0.05
1757332179.6644652,0.001,-0.479,9.887,0.15099499163879576,2.7736720874950063,1.7033082706766915,0,0.05
1757332179.6909106,0.001,-0.479,9.887,0.15099499163879576,2.7736720874950063,1.7033082706766915,0,0.05
1757332179.717173,0.1,-0.375,9.853,0.15107775316041738,2.2556838155841157,1.708270676691729,0,0.05
1757332179.7434099,0.1,-0.375,9.853,0.15107775316041738,2.2556838155841157,1.708270676691729,0,0.05
1757332179.769013,0.1,-0.375,9.853,0.15107775316041738,2.2556838155841157,1.708270676691729,0,0.05
1757332179.7957158,0.111,-0.419,9.766,0.15117966133048455,2.54134464338339,1.7088220551378444,0,0.05
1757332179.822086,0.111,-0.419,9.766,0.15117966133048455,2.54134464338339,1.7088220551378444,0,0.05
1757332179.8481927,-0.207,-0.32,9.802,0.1515335358922242,2.226618447513921,1.7247619047619047,0,0.05
1757332179.8750393,-0.207,-0.32,9.802,0.1515335358922242,2.226618447513921,1.7247619047619047,0,0.05
1757332179.9009275,-0.018,-0.545,9.833,0.15153620854436078,3.174133759717143,1.7342355889724308,0,0.05
1757332179.9277248,-0.018,-0.545,9.833,0.15153620854436078,3.174133759717143,1.7342355889724308,0,0.05
1757332179.9538894,0.002,-0.393,9.878,0.1515362415397716,2.278362327063234,1.735238095238095,0,0.05
1757332179.9802787,0.002,-0.393,9.878,0.1515362415397716,2.278362327063234,1.735238095238095,0,0.05
1757332180.006635,-0.072,-0.536,9.805,0.15157899755573,3.157063258568148,1.7389473684210524,0,0.05
1757332180.0328238,-0.072,-0.536,9.805,0.15157899755573,3.157063258568148,1.7389473684210524,0,0.05
1757332180.060756,-0.096,-0.438,9.82,0.15165497848735465,2.6144023411481463,1.7401503759398496,0,0.05
1757332180.0881078,-0.096,-0.438,9.82,0.15165497848735465,2.6144023411481463,1.7401503759398496,0,0.05
1757332180.1154637,-0.151,-0.418,9.829,0.15184279699742098,2.5889795004025857,1.7429072681704256,0,0.05
1757332180.1424735,-0.151,-0.418,9.829,0.15184279699742098,2.5889795004025857,1.7429072681704256,0,0.05
1757332180.1687565,-0.022,-0.4,9.903,0.15184678132907528,2.316514342685248,1.74937343358396,0,0.05
1757332180.1965306,-0.022,-0.4,9.903,0.15184678132907528,2.316514342685248,1.74937343358396,0,0.05
1757332180.223743,0.109,-0.4,9.855,0.15194455403205473,2.4089286497428604,1.75593984962406,0,0.05
1757332180.2513232,0.109,-0.4,9.855,0.15194455403205473,2.4089286497428604,1.75593984962406,0,0.05
1757332180.2782764,-0.175,-0.093,9.83,0.15219628773396546,1.1549491255873805,1.7701754385964912,0,0.05
1757332180.305367,-0.175,-0.093,9.83,0.15219628773396546,1.1549491255873805,1.7701754385964912,0,0.05
1757332180.3328328,-0.029,-0.245,9.801,0.15220319477593103,1.441942432882138,1.7774937343358397,0,0.05
1757332180.3605165,-0.029,-0.245,9.801,0.15220319477593103,1.441942432882138,1.7774937343358397,0,0.05
1757332180.3870223,0.077,-0.206,9.838,0.15225188011975418,1.2805869906239888,1.7828070175438595,0,0.05
1757332180.4150298,0.077,-0.206,9.838,0.15225188011975418,1.2805869906239888,1.7828070175438595,0,0.05
1757332180.442126,-0.09,-0.191,9.748,0.15231836724440032,1.2408352174635446,1.7911779448621552,0,0.05
1757332180.4690905,-0.09,-0.191,9.748,0.15231836724440032,1.2408352174635446,1.7911779448621552,0,0.05
1757332180.496765,-0.182,-0.09,9.692,0.15258995707450737,1.2001092210052227,1.7957894736842108,0,0.05
1757332180.5245898,-0.134,-0.247,9.79,0.15273697980515394,1.6441371128802245,1.7981954887218046,0,0.05
1757332180.5522997,-0.134,-0.247,9.79,0.15273697980515394,1.6441371128802245,1.7981954887218046,0,0.05
1757332180.5799744,-0.134,-0.247,9.79,0.15273697980515394,1.6441371128802245,1.7981954887218046,0,0.05
1757332180.6071754,0.005,-0.227,9.765,0.1527371844051081,1.331997222734668,1.8051629072681703,0,0.05
1757332180.6344652,-0.109,-0.075,9.586,0.1528343874918207,0.7907716541992148,1.810877192982456,0,0.05
1757332180.6612778,-0.109,-0.075,9.586,0.1528343874918207,0.7907716541992148,1.810877192982456,0,0.05
1757332180.6882107,-0.147,-0.358,9.772,0.15301102084490517,2.2679268281665568,1.812781954887218,0,0.05
1757332180.7148383,-0.147,-0.358,9.772,0.15301102084490517,2.2679268281665568,1.812781954887218,0,0.05
1757332180.7418308,-0.13,-0.4,9.823,0.15314902056493865,2.4517558171335154,1.8136340852130326,0,0.05
1757332180.769264,-0.13,-0.4,9.823,0.15314902056493865,2.4517558171335154,1.8136340852130326,0,0.05
1757332180.7972252,-0.112,-0.272,9.691,0.15325137030382469,1.7385974862521263,1.8145363408521302,0,0.05
1757332180.8255498,-0.112,-0.272,9.691,0.15325137030382469,1.7385974862521263,1.8145363408521302,0,0.05
1757332180.8528507,0.094,-0.361,9.957,0.1533234244986721,2.1455744230616607,1.8248621553884712,0,0.05
1757332180.8803346,0.094,-0.361,9.957,0.1533234244986721,2.1455744230616607,1.8248621553884712,0,0.05
1757332180.907276,0.07,-0.349,9.977,0.1533633675295375,2.043282982174056,1.826065162907268,0,0.05
1757332180.9346035,0.07,-0.349,9.977,0.1533633675295375,2.043282982174056,1.826065162907268,0,0.05
1757332180.9615388,0.07,-0.349,9.977,0.1533633675295375,2.043282982174056,1.826065162907268,0,0.05
1757332180.9893527,-0.059,-0.167,9.934,0.15339173706559295,1.0214326226018062,1.8325313283208018,0,0.05
1757332181.015884,-0.094,-0.331,10.019,0.153463725355538,1.9669709428642626,1.8342857142857143,0,0.05
1757332181.0426652,-0.094,-0.331,10.019,0.153463725355538,1.9669709428642626,1.8342857142857143,0,0.05
1757332181.0693386,0.005,-0.28,9.995,0.15346392898658628,1.6049203759182689,1.8392481203007516,0,0.05
1757332181.0976398,0.005,-0.28,9.995,0.15346392898658628,1.6049203759182689,1.8392481203007516,0,0.05
1757332181.1257286,-0.335,-0.384,9.915,0.15437532186201264,2.9421718667183034,1.8562907268170425,0,0.05
1757332181.153766,-0.335,-0.384,9.915,0.15437532186201264,2.9421718667183034,1.8562907268170425,0,0.05
1757332181.180709,-0.322,-0.221,9.867,0.1552125961383289,2.2666338991637724,1.8569423558897242,0,0.05
1757332181.2074747,-0.322,-0.221,9.867,0.1552125961383289,2.2666338991637724,1.8569423558897242,0,0.05
1757332181.2343302,-0.021,-0.241,9.875,0.15521614767800418,1.40332497025382,1.8720300751879697,0,0.05
1757332181.2620234,-0.021,-0.241,9.875,0.15521614767800418,1.40332497025382,1.8720300751879697,0,0.05
1757332181.288679,0.13,-0.156,9.809,0.15535218859095612,1.185971171210465,1.8795989974937342,0,0.05
1757332181.315973,0.13,-0.156,9.809,0.15535218859095612,1.185971171210465,1.8795989974937342,0,0.05
1757332181.342906,0.079,-0.117,9.892,0.1554023970214102,0.817641058162266,1.882155388471178,0,0.05
1757332181.3707361,0.079,-0.117,9.892,0.1554023970214102,0.817641058162266,1.882155388471178,0,0.05
1757332181.3986676,0.063,-0.044,9.735,0.15543431892603385,0.45225940566974393,1.8829573934837092,0,0.05
1757332181.4263942,0.063,-0.044,9.735,0.15543431892603385,0.45225940566974393,1.8829573934837092,0,0.05
1757332181.4530585,-0.546,-0.194,9.701,0.1578135529667842,3.4182179818403626,1.913483709273183,0,0.05
1757332181.4800117,-0.546,-0.194,9.701,0.1578135529667842,3.4182179818403626,1.913483709273183,0,0.05
1757332181.507008,-0.173,-0.19,9.724,0.15805043498832896,1.51371454111038,1.9321804511278198,0,0.05
1757332181.5344908,-0.173,-0.19,9.724,0.15805043498832896,1.51371454111038,1.9321804511278198,0,0.05
1757332181.5609505,-0.038,-0.141,9.727,0.15806185498089032,0.8601131972236944,1.938947368421053,0,0.05
1757332181.5888445,-0.038,-0.141,9.727,0.15806185498089032,0.8601131972236944,1.938947368421053,0,0.05
1757332181.6167963,-0.339,-0.154,9.76,0.1589680864198849,2.1847504333149015,1.9540350877192985,0,0.05
1757332181.644828,-0.339,-0.154,9.76,0.1589680864198849,2.1847504333149015,1.9540350877192985,0,0.05
1757332181.6726675,-0.038,-0.203,9.814,0.1589794404946753,1.2055556789137691,1.969122807017544,0,0.05
1757332181.7007565,-0.038,-0.203,9.814,0.1589794404946753,1.2055556789137691,1.969122807017544,0,0.05
1757332181.727798,-0.304,-0.265,9.921,0.15970442229318513,2.3277865809100233,1.9824561403508771,0,0.05
1757332181.754118,-0.304,-0.265,9.921,0.15970442229318513,2.3277865809100233,1.9824561403508771,0,0.05
1757332181.780183,-0.067,-0.064,9.906,0.15973955364905712,0.5358975776320918,1.9943358395989974,0,0.05
1757332181.807371,-0.067,-0.064,9.906,0.15973955364905712,0.5358975776320918,1.9943358395989974,0,0.05
1757332181.8348958,-0.063,-0.168,9.839,0.15977060899927745,1.0447304711306444,1.9945363408521304,0,0.05
1757332181.8621624,-0.063,-0.168,9.839,0.15977060899927745,1.0447304711306444,1.9945363408521304,0,0.05
1757332181.8899126,0.17,0.059,10.001,0.15999655465040488,1.0308072705982274,2.0062155388471177,0,0.05
1757332181.917632,0.17,0.059,10.001,0.15999655465040488,1.0308072705982274,2.0062155388471177,0,0.05
1757332181.9451263,0.108,-0.073,9.88,0.16008765567650743,0.7559194453891737,2.0093233082706767,0,0.05
1757332181.9719954,0.108,-0.073,9.88,0.16008765567650743,0.7559194453891737,2.0093233082706767,0,0.05
1757332181.9993367,-0.043,-0.088,9.734,0.16010209242855009,0.5764927589854536,2.016892230576441,0,0.05
1757332182.0270486,-0.043,-0.088,9.734,0.16010209242855009,0.5764927589854536,2.016892230576441,0,0.05
1757332182.0527222,-0.078,-0.157,9.816,0.16014958632478576,1.0231619781491776,2.013533834586466,0,0.05
1757332182.0784855,-0.078,-0.157,9.816,0.16014958632478576,1.0231619781491776,2.013533834586466,0,0.05
1757332182.1056108,-0.138,-0.218,9.77,0.16021700908455383,1.5127246923659052,2.0162907268170427,0,0.05
1757332182.133675,-0.138,-0.218,9.77,0.16021700908455383,1.5127246923659052,2.0162907268170427,0,0.05
1757332182.1611304,-0.15,-0.145,9.702,0.1603032048962216,1.2318670146842639,2.0167919799498746,0,0.05
1757332182.18894,-0.15,-0.145,9.702,0.1603032048962216,1.2318670146842639,2.0167919799498746,0,0.05
1757332182.2153325,-0.283,-0.167,9.816,0.16083419257110723,1.9173154490710045,2.0234085213032578,0,0.05
1757332182.2412858,-0.283,-0.167,9.816,0.16083419257110723,1.9173154490710045,2.0234085213032578,0,0.05
1757332182.2679021,-0.155,-0.169,9.804,0.16092684673478197,1.3399087305108055,2.0281704260651625,0,0.05
1757332182.2956822,-0.155,-0.169,9.804,0.16092684673478197,1.3399087305108055,2.0281704260651625,0,0.05
1757332182.3219297,-0.05,-0.271,9.77,0.16078736735204044,1.6156641604808262,2.0330325814536336,0,0.05
1757332182.348738,-0.05,-0.271,9.77,0.16078736735204044,1.6156641604808262,2.0330325814536336,0,0.05
1757332182.3772821,-0.215,-0.241,9.849,0.16096936820401575,1.8781468621985546,2.0411027568922306,0,0.05
1757332182.4049637,-0.215,-0.241,9.849,0.16096936820401575,1.8781468621985546,2.0411027568922306,0,0.05
1757332182.4329848,-0.216,-0.3,9.87,0.16116375212807624,2.144948552335511,2.0407518796992483,0,0.05
1757332182.4616725,-0.216,-0.3,9.87,0.16116375212807624,2.144948552335511,2.0407518796992483,0,0.05
1757332182.4888582,-0.103,-0.221,9.789,0.1610961669314326,1.4268241278015,2.0459147869674186,0,0.05
1757332182.515244,-0.103,-0.221,9.789,0.1610961669314326,1.4268241278015,2.0459147869674186,0,0.05
1757332182.5420864,-0.169,-0.281,9.899,0.16118863173313433,1.8972353330644065,2.0486215538847117,0,0.05
1757332182.5687363,-0.169,-0.281,9.899,0.16118863173313433,1.8972353330644065,2.0486215538847117,0,0.05
1757332182.5964346,-0.32,-0.28,9.808,0.16187511389957382,2.4823872225940757,2.056190476190476,0,0.05
1757332182.6234636,-0.32,-0.28,9.808,0.16187511389957382,2.4823872225940757,2.056190476190476,0,0.05
1757332182.6506176,-0.18,-0.294,9.746,0.16201953585910558,2.025765727906363,2.063107769423559,0,0.05
1757332182.6765058,-0.18,-0.294,9.746,0.16201953585910558,2.025765727906363,2.063107769423559,0,0.05
1757332182.702884,-0.013,-0.258,9.866,0.1619187759341084,1.499866576844319,2.071328320802005,0,0.05
1757332182.7308066,-0.013,-0.258,9.866,0.1619187759341084,1.499866576844319,2.071328320802005,0,0.05
1757332182.7572148,-0.083,-0.286,9.659,0.16186445718563416,1.7659483549861243,2.0743859649122807,0,0.05
1757332182.7829237,-0.083,-0.286,9.659,0.16186445718563416,1.7659483549861243,2.0743859649122807,0,0.05
1757332182.80909,-0.129,-0.121,9.73,0.1618684110628136,1.041379972886646,2.075137844611529,0,0.05
1757332182.8359976,-0.129,-0.121,9.73,0.1618684110628136,1.041379972886646,2.075137844611529,0,0.05
1757332182.8631074,-0.009,-0.243,9.846,0.16167614233398817,1.4147459707388506,2.0798997493734337,0,0.05
1757332182.8915553,-0.009,-0.243,9.846,0.16167614233398817,1.4147459707388506,2.0798997493734337,0,0.05
1757332182.9189641,-0.066,-0.33,9.889,0.1614507432624576,1.9490962816171011,2.0825062656641604,0,0.05
1757332182.9451106,-0.066,-0.33,9.889,0.1614507432624576,1.9490962816171011,2.0825062656641604,0,0.05
1757332182.97173,-0.208,-0.275,9.661,0.16151205063400068,2.0440291698406545,2.0891228070175436,0,0.05
1757332182.9989767,-0.208,-0.275,9.661,0.16151205063400068,2.0440291698406545,2.0891228070175436,0,0.05
1757332183.026411,-0.091,-0.211,9.829,0.16133082470501414,1.3392429871984284,2.0943358395989975,0,0.05
1757332183.053197,-0.091,-0.211,9.829,0.16133082470501414,1.3392429871984284,2.0943358395989975,0,0.05
1757332183.0795193,-0.055,-0.308,9.805,0.16114321270224197,1.8276567886407946,2.095538847117794,0,0.05
1757332183.106234,-0.055,-0.308,9.805,0.16114321270224197,1.8276567886407946,2.095538847117794,0,0.05
1757332183.1338847,-0.041,-0.217,9.609,0.16097457873838342,1.3165712582844875,2.094786967418546,0,0.05
1757332183.1618137,-0.041,-0.217,9.609,0.16097457873838342,1.3165712582844875,2.094786967418546,0,0.05
1757332183.1889465,0.081,0.05,9.74,0.16090611392983176,0.5599353862979094,2.1006516290726815,0,0.05
1757332183.2163858,0.081,0.05,9.74,0.16090611392983176,0.5599353862979094,2.1006516290726815,0,0.05
1757332183.24298,-0.066,-0.185,9.767,0.16081064952297158,1.1520985943168984,2.107719298245614,0,0.05
1757332183.2701437,-0.066,-0.185,9.767,0.16081064952297158,1.1520985943168984,2.107719298245614,0,0.05
1757332183.2971156,-0.418,-0.555,9.739,0.1620225678725035,4.080691540273894,2.124812030075188,0,0.05
1757332183.3259108,-0.418,-0.555,9.739,0.1620225678725035,4.080691540273894,2.124812030075188,0,0.05
1757332183.3529584,-0.394,-0.292,9.927,0.1630524838817244,2.8281941864577207,2.1252631578947367,0,0.05
1757332183.3799386,-0.394,-0.292,9.927,0.1630524838817244,2.8281941864577207,2.1252631578947367,0,0.05
1757332183.4077644,-0.271,-0.545,9.917,0.16341637769819767,3.5121419963866503,2.1307268170426066,0,0.05
1757332183.4354544,-0.271,-0.545,9.917,0.16341637769819767,3.5121419963866503,2.1307268170426066,0,0.05
1757332183.4632792,-0.393,-0.458,9.745,0.1643607997668544,3.543759367586839,2.136591478696742,0,0.05
1757332183.4916031,-0.393,-0.458,9.745,0.1643607997668544,3.543759367586839,2.136591478696742,0,0.05
1757332183.5195158,-0.027,-0.197,9.726,0.1641464133022711,1.1712112064303453,2.1546365914786967,0,0.05
1757332183.5466177,-0.027,-0.197,9.726,0.1641464133022711,1.1712112064303453,2.1546365914786967,0,0.05
1757332183.5722036,0.142,-0.157,9.774,0.16409514008647544,1.240750367839145,2.16250626566416,0,0.05
1757332183.5992932,0.142,-0.157,9.774,0.16409514008647544,1.240750367839145,2.16250626566416,0,0.05
1757332183.6267574,-0.267,-0.168,9.666,0.16446178127455632,1.8692252316435316,2.181453634085213,0,0.05
1757332183.6541038,-0.267,-0.168,9.666,0.16446178127455632,1.8692252316435316,2.181453634085213,0,0.05
1757332183.6802328,-0.058,-0.179,9.772,0.1643760475251793,1.1031074266783443,2.190877192982456,0,0.05
1757332183.707964,-0.058,-0.179,9.772,0.1643760475251793,1.1031074266783443,2.190877192982456,0,0.05
1757332183.734305,-0.088,-0.08,9.716,0.1643588908456126,0.7012930928484634,2.1921804511278196,0,0.05
1757332183.7615125,-0.088,-0.08,9.716,0.1643588908456126,0.7012930928484634,2.1921804511278196,0,0.05
1757332183.787535,-0.158,-0.103,9.681,0.16447861563133367,1.1161118537364147,2.1954887218045114,0,0.05
1757332183.8135607,-0.158,-0.103,9.681,0.16447861563133367,1.1161118537364147,2.1954887218045114,0,0.05
1757332183.839558,-0.051,-0.136,9.799,0.16442237530214676,0.8492184526813007,2.2003007518796993,0,0.05
1757332183.8669753,-0.051,-0.136,9.799,0.16442237530214676,0.8492184526813007,2.2003007518796993,0,0.05
1757332183.8947706,0.096,-0.115,9.702,0.16439876824356078,0.8846020786646195,2.206516290726817,0,0.05
1757332183.9225662,0.096,-0.115,9.702,0.16439876824356078,0.8846020786646195,2.206516290726817,0,0.05
1757332183.9504762,-0.084,-0.041,9.653,0.16431586959268418,0.5547891012668503,2.21453634085213,0,0.05
1757332183.977737,-0.084,-0.041,9.653,0.16431586959268418,0.5547891012668503,2.21453634085213,0,0.05
1757332184.0050213,0.241,-0.294,9.67,0.16457708680129202,2.251293120905816,2.2307769423558894,0,0.05
1757332184.0316048,0.241,-0.294,9.67,0.16457708680129202,2.251293120905816,2.2307769423558894,0,0.05
1757332184.058722,-0.036,-0.093,9.537,0.16440904780455365,0.5990973734780521,2.244110275689223,0,0.05
1757332184.0858727,-0.036,-0.093,9.537,0.16440904780455365,0.5990973734780521,2.244110275689223,0,0.05
1757332184.1124952,0.115,-0.181,9.668,0.16435628220424067,1.2706548578086754,2.2514285714285713,0,0.05
1757332184.1402917,0.115,-0.181,9.668,0.16435628220424067,1.2706548578086754,2.2514285714285713,0,0.05
1757332184.168365,-0.048,-0.444,9.792,0.16420939376296353,2.611298482327742,2.2585463659147864,0,0.05
1757332184.1961908,-0.048,-0.444,9.792,0.16420939376296353,2.611298482327742,2.2585463659147864,0,0.05
1757332184.2237725,-0.236,-0.107,9.498,0.16451223358765754,1.562750304477261,2.2675689223057645,0,0.05
1757332184.2516043,-0.236,-0.107,9.498,0.16451223358765754,1.562750304477261,2.2675689223057645,0,0.05
1757332184.2786434,0.026,-0.098,9.559,0.1644115415656699,0.6077016874622381,2.280701754385965,0,0.05
1757332184.3051176,0.026,-0.098,9.559,0.1644115415656699,0.6077016874622381,2.280701754385965,0,0.05
1757332184.3334887,0.381,-0.068,9.713,0.16540631033911612,2.281779762920542,2.2984461152882205,0,0.05
1757332184.3620527,-0.087,-0.475,9.331,0.16535648611409232,2.9625511200346586,2.321704260651629,0,0.05
1757332184.3894415,-0.087,-0.475,9.331,0.16535648611409232,2.9625511200346586,2.321704260651629,0,0.05
1757332184.4154477,-0.339,-0.578,9.673,0.16610914333654245,3.962723608663101,2.333734335839599,0,0.05
1757332184.4424872,-0.339,-0.578,9.673,0.16610914333654245,3.962723608663101,2.333734335839599,0,0.05
1757332184.471506,-0.101,-0.354,9.817,0.16604875037169053,2.147520368289486,2.3446616541353382,0,0.05
1757332184.4995222,-0.101,-0.354,9.817,0.16604875037169053,2.147520368289486,2.3446616541353382,0,0.05
1757332184.526902,-0.228,-0.561,9.589,0.1662590899770596,3.613527654695421,2.3507268170426068,0,0.05
1757332184.5541434,-0.228,-0.561,9.589,0.1662590899770596,3.613527654695421,2.3507268170426068,0,0.05
1757332184.5810099,-0.282,-0.38,9.783,0.16666161075664665,2.7692523955432318,2.353233082706767,0,0.05
1757332184.6087413,-0.282,-0.38,9.783,0.16666161075664665,2.7692523955432318,2.353233082706767,0,0.05
1757332184.6352112,-0.067,-0.429,9.807,0.16651033751692415,2.5350886949589735,2.3633082706766917,0,0.05
1757332184.6620028,-0.067,-0.429,9.807,0.16651033751692415,2.5350886949589735,2.3633082706766917,0,0.05
1757332184.688181,-0.208,-0.334,9.738,0.1666815226712307,2.313823425044807,2.3694235588972434,0,0.05
1757332184.7151434,-0.208,-0.334,9.738,0.1666815226712307,2.313823425044807,2.3694235588972434,0,0.05
1757332184.7416692,-0.149,-0.219,9.914,0.16673269775302024,1.5304579097437376,2.3709273182957395,0,0.05
1757332184.768571,-0.149,-0.219,9.914,0.16673269775302024,1.5304579097437376,2.3709273182957395,0,0.05
1757332184.795493,-0.149,-0.219,9.914,0.16673269775302024,1.5304579097437376,2.3709273182957395,0,0.05
1757332184.8219993,0.033,-0.337,9.897,0.16667319070564407,1.9595297966501979,2.3798997493734335,0,0.05
1757332184.849644,-0.162,-0.24,9.789,0.16679793913594976,1.6943131481045117,2.38937343358396,0,0.05
1757332184.8762136,-0.162,-0.24,9.789,0.16679793913594976,1.6943131481045117,2.38937343358396,0,0.05
1757332184.90303,-0.042,-0.282,9.902,0.16674772112385824,1.649274542495973,2.3941353383458646,0,0.05
1757332184.9300098,-0.042,-0.282,9.902,0.16674772112385824,1.649274542495973,2.3941353383458646,0,0.05
1757332184.9568753,0.012,-0.377,9.912,0.1666461520707874,2.1792802373032787,2.395739348370927,0,0.05
1757332184.9832451,0.012,-0.377,9.912,0.1666461520707874,2.1792802373032787,2.395739348370927,0,0.05
1757332185.0094604,-0.07,-0.234,9.752,0.16653794612640088,1.4347136172297055,2.3986967418546365,0,0.05
1757332185.0355327,-0.07,-0.234,9.752,0.16653794612640088,1.4347136172297055,2.3986967418546365,0,0.05
1757332185.0618546,-0.062,-0.249,9.771,0.16636973132153576,1.5043372488879239,2.3990977443609016,0,0.05
1757332185.088608,-0.062,-0.249,9.771,0.16636973132153576,1.5043372488879239,2.3990977443609016,0,0.05
1757332185.1164525,-0.057,-0.202,9.75,0.16619687121002008,1.2332146893012899,2.399298245614035,0,0.05
1757332185.1445844,-0.057,-0.202,9.75,0.16619687121002008,1.2332146893012899,2.399298245614035,0,0.05
1757332185.1729057,-0.093,-0.233,9.716,0.16606691422435715,1.479091723211195,2.400802005012531,0,0.05
1757332185.2009325,-0.093,-0.233,9.716,0.16606691422435715,1.479091723211195,2.400802005012531,0,0.05
1757332185.2286367,-0.102,-0.203,9.746,0.16596435611299193,1.335356216857804,2.399799498746867,0,0.05
1757332185.2566493,-0.102,-0.203,9.746,0.16596435611299193,1.335356216857804,2.399799498746867,0,0.05
1757332185.2829676,-0.092,-0.204,9.756,0.16590852148096552,1.3140347434928252,2.3999498746867167,0,0.05
1757332185.3094432,-0.092,-0.204,9.756,0.16590852148096552,1.3140347434928252,2.3999498746867167,0,0.05
1757332185.3372006,-0.125,-0.21,9.724,0.16591955128917146,1.4396746179137392,2.4015037593984965,0,0.05
1757332185.3635087,-0.125,-0.21,9.724,0.16591955128917146,1.4396746179137392,2.4015037593984965,0,0.05
1757332185.38989,-0.343,-0.103,9.832,0.16670092231298542,2.08608035232974,2.4121303258145366,0,0.05
1757332185.4177215,-0.343,-0.103,9.832,0.16670092231298542,2.08608035232974,2.4121303258145366,0,0.05
1757332185.445614,-0.047,-0.299,9.78,0.16662508064514178,1.7726239959468393,2.4268671679197995,0,0.05
1757332185.4736128,-0.047,-0.299,9.78,0.16662508064514178,1.7726239959468393,2.4268671679197995,0,0.05
1757332185.5014095,-0.076,-0.18,9.689,0.16657261179437632,1.1552607745533723,2.4265664160401004,0,0.05
1757332185.5284789,-0.076,-0.18,9.689,0.16657261179437632,1.1552607745533723,2.4265664160401004,0,0.05
1757332185.555975,0.034,-0.098,9.818,0.1664168410948844,0.6053263531717937,2.430877192982456,0,0.05
1757332185.5824752,0.034,-0.098,9.818,0.1664168410948844,0.6053263531717937,2.430877192982456,0,0.05
1757332185.6094866,-0.109,-0.145,9.756,0.1662838161096864,1.0652176309346217,2.436491228070175,0,0.05
1757332185.6366003,-0.109,-0.145,9.756,0.1662838161096864,1.0652176309346217,2.436491228070175,0,0.05
1757332185.663021,-0.095,-0.168,9.729,0.16620218861374841,1.1364616326881816,2.435488721804511,0,0.05
1757332185.6899,-0.095,-0.168,9.729,0.16620218861374841,1.1364616326881816,2.435488721804511,0,0.05
1757332185.7182245,-0.225,-0.18,9.788,0.16649656903371912,1.6861946502573415,2.427568922305764,0,0.05
1757332185.7457447,-0.225,-0.18,9.788,0.16649656903371912,1.6861946502573415,2.427568922305764,0,0.05
1757332185.7728589,-0.194,-0.198,9.737,0.1665331648651403,1.6306991848776402,2.4237092731829573,0,0.05
1757332185.8014445,-0.194,-0.198,9.737,0.1665331648651403,1.6306991848776402,2.4237092731829573,0,0.05
1757332185.8286023,-0.081,-0.169,9.786,0.16595449677547155,1.0971195559930744,2.4169924812030072,0,0.05
1757332185.8557074,-0.081,-0.169,9.786,0.16595449677547155,1.0971195559930744,2.4169924812030072,0,0.05
1757332185.8819292,-0.079,-0.168,9.731,0.16598821494310975,1.0929533354819216,2.4076190476190473,0,0.05
1757332185.908647,-0.079,-0.168,9.731,0.16598821494310975,1.0929533354819216,2.4076190476190473,0,0.05
1757332185.9358444,-0.003,-0.123,9.724,0.16582547301304465,0.7249177905794447,2.4074185463659146,0,0.05
1757332185.9631622,-0.003,-0.123,9.724,0.16582547301304465,0.7249177905794447,2.4074185463659146,0,0.05
1757332185.9916542,-0.081,-0.114,9.697,0.16584109110832573,0.8262400619185162,2.4068671679197995,0,0.05
1757332186.0194273,-0.081,-0.114,9.697,0.16584109110832573,0.8262400619185162,2.4068671679197995,0,0.05
1757332186.0464904,-0.054,-0.14,9.656,0.1658594208961312,0.8902993163951021,2.4045112781954887,0,0.05
1757332186.0742867,-0.054,-0.14,9.656,0.1658594208961312,0.8902993163951021,2.4045112781954887,0,0.05
1757332186.1007624,-0.057,-0.14,9.69,0.16586352823933295,0.893711261287163,2.4008020050125314,0,0.05
1757332186.1279328,-0.057,-0.14,9.69,0.16586352823933295,0.893711261287163,2.4008020050125314,0,0.05
1757332186.154142,-0.046,-0.145,9.695,0.1657540271003996,0.8989390424663992,2.4003508771929827,0,0.05
1757332186.1800628,-0.046,-0.145,9.695,0.1657540271003996,0.8989390424663992,2.4003508771929827,0,0.05
1757332186.2062922,-0.098,-0.063,9.724,0.16565900217012053,0.6864277430904403,2.40140350877193,0,0.05
1757332186.232911,-0.098,-0.063,9.724,0.16565900217012053,0.6864277430904403,2.40140350877193,0,0.05
1757332186.2587252,-0.111,-0.167,9.793,0.16564690609848406,1.1730410996953575,2.3986967418546365,0,0.05
1757332186.2849224,-0.111,-0.167,9.793,0.16564690609848406,1.1730410996953575,2.3986967418546365,0,0.05
1757332186.3124144,-0.17,-0.184,9.68,0.16560671785890813,1.4824429053201822,2.398095238095238,0,0.05
1757332186.3398726,-0.17,-0.184,9.68,0.16560671785890813,1.4824429053201822,2.398095238095238,0,0.05
1757332186.3676586,-0.067,-0.241,9.712,0.16554249454445225,1.4753702865498757,2.3981954887218047,0,0.05
1757332186.3955028,-0.067,-0.241,9.712,0.16554249454445225,1.4753702865498757,2.3981954887218047,0,0.05
1757332186.4223754,0.008,-0.163,9.819,0.16519356827673407,0.9521939811691033,2.392631578947368,0,0.05
1757332186.4505029,0.008,-0.163,9.819,0.16519356827673407,0.9521939811691033,2.392631578947368,0,0.05
1757332186.4790845,-0.077,-0.062,9.64,0.16523206407958474,0.5875493150316694,2.3964912280701753,0,0.05
1757332186.5076327,-0.077,-0.062,9.64,0.16523206407958474,0.5875493150316694,2.3964912280701753,0,0.05
1757332186.535181,0.222,-0.194,9.617,0.16560115488727728,1.75592870697146,2.3955889724310775,0,0.05
1757332186.5631056,0.222,-0.194,9.617,0.16560115488727728,1.75592870697146,2.3955889724310775,0,0.05
1757332186.5908604,-0.179,-0.354,9.867,0.1649794987263569,2.302219464692431,2.4057644110275684,0,0.05
1757332186.617561,-0.179,-0.354,9.867,0.1649794987263569,2.302219464692431,2.4057644110275684,0,0.05
1757332186.643557,0.079,-0.198,9.644,0.16487825053657015,1.2663033753395998,2.413784461152882,0,0.05
1757332186.6717212,0.079,-0.198,9.644,0.16487825053657015,1.2663033753395998,2.413784461152882,0,0.05
1757332186.6996117,-0.052,-0.092,9.701,0.16488537685313395,0.6241322904322898,2.4196491228070176,0,0.05
1757332186.7262228,-0.052,-0.092,9.701,0.16488537685313395,0.6241322904322898,2.4196491228070176,0,0.05
1757332186.7535155,-0.02,-0.241,9.81,0.16486463386669684,1.4121247739928156,2.4104260651629072,0,0.05
1757332186.7811475,-0.02,-0.241,9.81,0.16486463386669684,1.4121247739928156,2.4104260651629072,0,0.05
1757332186.8089619,-0.1,-0.201,9.485,0.1643787927319093,1.3558879224358755,2.414235588972431,0,0.05
1757332186.83717,-0.1,-0.201,9.485,0.1643787927319093,1.3558879224358755,2.414235588972431,0,0.05
1757332186.863974,0.015,-0.197,9.576,0.16383342149878943,1.181948116672286,2.4153884711779448,0,0.05
1757332186.8912106,0.015,-0.197,9.576,0.16383342149878943,1.181948116672286,2.4153884711779448,0,0.05
1757332186.917216,0.085,-0.128,9.718,0.16365210814407496,0.9058334371924867,2.416140350877193,0,0.05
1757332186.9446,0.085,-0.128,9.718,0.16365210814407496,0.9058334371924867,2.416140350877193,0,0.05
1757332186.9729154,0.056,-0.145,9.514,0.16356420757610754,0.9360052855455423,2.4124812030075184,0,0.05
1757332187.0012906,0.056,-0.145,9.514,0.16356420757610754,0.9360052855455423,2.4124812030075184,0,0.05
1757332187.0290177,0.006,-0.137,9.655,0.16356172382314882,0.8137253062342859,2.411328320802005,0,0.05
1757332187.0570436,0.006,-0.137,9.655,0.16356172382314882,0.8137253062342859,2.411328320802005,0,0.05
1757332187.0838752,0.005,-0.21,9.825,0.1634972171016987,1.2248030872671527,2.40516290726817,0,0.05
1757332187.1112018,0.005,-0.21,9.825,0.1634972171016987,1.2248030872671527,2.40516290726817,0,0.05
1757332187.1398008,-0.105,-0.333,9.665,0.16322457688718328,2.0689916404560433,2.4071679197994986,0,0.05
1757332187.1677833,-0.105,-0.333,9.665,0.16322457688718328,2.0689916404560433,2.4071679197994986,0,0.05
1757332187.1952467,-0.24,-0.204,9.662,0.16350220946519348,1.8672078837671038,2.4052631578947365,0,0.05
1757332187.2209587,-0.24,-0.204,9.662,0.16350220946519348,1.8672078837671038,2.4052631578947365,0,0.05
1757332187.247632,-0.069,-0.084,9.869,0.16353303183149268,0.6310816292929387,2.411127819548872,0,0.05
1757332187.273758,-0.069,-0.084,9.869,0.16353303183149268,0.6310816292929387,2.411127819548872,0,0.05
1757332187.3022108,-0.098,-0.14,9.642,0.1636008557434832,1.0153860827214738,2.4066666666666667,0,0.05
1757332187.3301508,-0.017,-0.228,9.705,0.163539781093164,1.349539129919589,2.4089223057644107,0,0.05
1757332187.3587842,-0.017,-0.228,9.705,0.163539781093164,1.349539129919589,2.4089223057644107,0,0.05
1757332187.3863924,0.038,-0.243,9.775,0.16352769643091045,1.4413412050411984,2.4038095238095236,0,0.05
1757332187.4137414,0.038,-0.243,9.775,0.16352769643091045,1.4413412050411984,2.4038095238095236,0,0.05
1757332187.4409456,0.094,-0.231,9.815,0.16351571025439726,1.4555381998074195,2.388471177944862,0,0.05
1757332187.4691272,0.094,-0.231,9.815,0.16351571025439726,1.4555381998074195,2.388471177944862,0,0.05
1757332187.4954143,-0.14,-0.112,9.559,0.1620128004202137,1.0745069093101238,2.3932330827067667,0,0.05
1757332187.5223527,-0.14,-0.112,9.559,0.1620128004202137,1.0745069093101238,2.3932330827067667,0,0.05
1757332187.5486965,-0.054,-0.259,9.739,0.16121840775792323,1.5561131730091013,2.3856140350877193,0,0.05
1757332187.5762117,-0.054,-0.259,9.739,0.16121840775792323,1.5561131730091013,2.3856140350877193,0,0.05
1757332187.6043513,0.021,-0.084,9.79,0.16116313163996288,0.506725048350286,2.3890225563909775,0,0.05
1757332187.6323314,0.021,-0.084,9.79,0.16116313163996288,0.506725048350286,2.3890225563909775,0,0.05
1757332187.6597419,-0.07,-0.151,9.605,0.161151497045482,0.9927262941297614,2.3890726817042607,0,0.05
1757332187.6856756,-0.07,-0.151,9.605,0.161151497045482,0.9927262941297614,2.3890726817042607,0,0.05
1757332187.712452,-0.05,-0.042,9.765,0.16094659051996102,0.3831356018151314,2.3888220551378447,0,0.05
1757332187.7398088,-0.05,-0.042,9.765,0.16094659051996102,0.3831356018151314,2.3888220551378447,0,0.05
1757332187.7667353,-0.065,-0.112,9.75,0.16081605952142963,0.7609323791174443,2.3807017543859645,0,0.05
1757332187.7935958,-0.065,-0.112,9.75,0.16081605952142963,0.7609323791174443,2.3807017543859645,0,0.05
1757332187.8215382,-0.165,-0.138,9.4,0.1610195873178167,1.3108833510786886,2.379097744360902,0,0.05
1757332187.8489587,-0.165,-0.138,9.4,0.1610195873178167,1.3108833510786886,2.379097744360902,0,0.05
1757332187.8767407,-0.165,-0.138,9.4,0.1610195873178167,1.3108833510786886,2.379097744360902,0,0.05
1757332187.9049368,-0.235,-0.197,9.772,0.16123935623786148,1.7973768162738286,2.3825062656641602,0,0.05
1757332187.9326365,-0.11,-0.209,9.818,0.16111948982044352,1.3780310416780441,2.388771929824561,0,0.05
1757332187.9602563,-0.11,-0.209,9.818,0.16111948982044352,1.3780310416780441,2.388771929824561,0,0.05
1757332187.9875684,0.062,-0.311,9.577,0.1609354218312426,1.89652216294195,2.3965413533834585,0,0.05
1757332188.014691,0.062,-0.311,9.577,0.1609354218312426,1.89652216294195,2.3965413533834585,0,0.05
1757332188.0418394,-0.094,-0.26,9.838,0.16083158116489435,1.6097206025297601,2.3970426065162904,0,0.05
1757332188.0684066,-0.094,-0.26,9.838,0.16083158116489435,1.6097206025297601,2.3970426065162904,0,0.05
1757332188.0954323,0.143,-0.159,9.73,0.16099036461850752,1.2590427642870394,2.3938345864661654,0,0.05
1757332188.122281,0.143,-0.159,9.73,0.16099036461850752,1.2590427642870394,2.3938345864661654,0,0.05
1757332188.1508389,-0.23,-0.01,9.531,0.16071134838585607,1.3836863507065476,2.412080200501253,0,0.05
1757332188.1776443,-0.23,-0.01,9.531,0.16071134838585607,1.3836863507065476,2.412080200501253,0,0.05
1757332188.2051988,-0.085,-0.501,9.605,0.16003305127379155,3.028450913958338,2.414486215538847,0,0.05
1757332188.2332335,-0.085,-0.501,9.605,0.16003305127379155,3.028450913958338,2.414486215538847,0,0.05
1757332188.2606623,-0.17,-0.244,9.799,0.1599142817261798,1.7382896454770935,2.416942355889724,0,0.05
1757332188.2875824,-0.17,-0.244,9.799,0.1599142817261798,1.7382896454770935,2.416942355889724,0,0.05
1757332188.3142736,-0.128,-0.269,9.638,0.159568942780229,1.770391888360591,2.403609022556391,0,0.05
1757332188.341634,-0.128,-0.269,9.638,0.159568942780229,1.770391888360591,2.403609022556391,0,0.05
1757332188.3692334,-0.148,-0.392,9.674,0.1597103550180764,2.480092458636983,2.3961904761904758,0,0.05
1757332188.396961,-0.148,-0.392,9.674,0.1597103550180764,2.480092458636983,2.3961904761904758,0,0.05
1757332188.4252546,-0.041,-0.542,9.876,0.1596355536840086,3.15022765636974,2.401453634085213,0,0.05
1757332188.4538321,-0.041,-0.542,9.876,0.1596355536840086,3.15022765636974,2.401453634085213,0,0.05
1757332188.481591,0.059,-0.348,9.552,0.1595714651809652,2.1162337876119666,2.394085213032581,0,0.05
1757332188.5075884,0.059,-0.348,9.552,0.1595714651809652,2.1162337876119666,2.394085213032581,0,0.05
1757332188.5344148,-0.033,-0.374,9.571,0.1594285811891958,2.2464581939321917,2.3958897243107766,0,0.05
1757332188.5617027,-0.033,-0.374,9.571,0.1594285811891958,2.2464581939321917,2.3958897243107766,0,0.05
1757332188.5885768,-0.127,-0.553,9.882,0.15950101096858288,3.2861496299515545,2.3968421052631577,0,0.05
1757332188.6156993,-0.127,-0.553,9.882,0.15950101096858288,3.2861496299515545,2.3968421052631577,0,0.05
1757332188.6427624,-0.127,-0.553,9.882,0.15950101096858288,3.2861496299515545,2.3968421052631577,0,0.05
1757332188.6711285,0.065,-0.614,9.6,0.1593383977577282,3.6799511755417007,2.4045614035087715,0,0.05
1757332188.6990302,-0.275,-0.499,9.788,0.15963003320177566,3.331428668839583,2.4215538847117797,0,0.05
1757332188.7278552,-0.275,-0.499,9.788,0.15963003320177566,3.331428668839583,2.4215538847117797,0,0.05
1757332188.7557445,-0.086,-0.348,9.894,0.15938386053801057,2.0749726090922898,2.4285213032581447,0,0.05
1757332188.782843,-0.086,-0.348,9.894,0.15938386053801057,2.0749726090922898,2.4285213032581447,0,0.05
1757332188.8110218,-0.155,-0.343,9.599,0.15909354166653025,2.2455321589398425,2.4319298245614034,0,0.05
1757332188.8376393,-0.155,-0.343,9.599,0.15909354166653025,2.2455321589398425,2.4319298245614034,0,0.05
1757332188.864735,-0.196,-0.007,9.607,0.1589120354158237,1.1695192867322102,2.432581453634085,0,0.05
1757332188.8908262,-0.196,-0.007,9.607,0.1589120354158237,1.1695192867322102,2.432581453634085,0,0.05
1757332188.9169466,-0.024,-0.288,9.935,0.15853540614007963,1.66620162559,2.4346365914786965,0,0.05
1757332188.944733,-0.024,-0.288,9.935,0.15853540614007963,1.66620162559,2.4346365914786965,0,0.05
1757332188.9722066,-0.165,-0.361,9.852,0.1586875388932603,2.307103669533887,2.440952380952381,0,0.05
1757332189.0003982,-0.165,-0.361,9.852,0.1586875388932603,2.307103669533887,2.440952380952381,0,0.05
1757332189.0283444,-0.228,-0.25,9.69,0.1590114932952961,1.99983810739564,2.4325313283208017,0,0.05
1757332189.055778,-0.017,-0.192,9.91,0.15888692520154074,1.1142718649872418,2.440902255639098,0,0.05
1757332189.0821123,-0.017,-0.192,9.91,0.15888692520154074,1.1142718649872418,2.440902255639098,0,0.05
1757332189.1095495,-0.017,-0.192,9.91,0.15888692520154074,1.1142718649872418,2.440902255639098,0,0.05
1757332189.1357224,0.146,-0.305,9.797,0.15900038521965915,1.9767791430288255,2.4466666666666663,0,0.05
1757332189.1639025,-0.306,-0.048,9.583,0.1597252328218682,1.8512702929900868,2.466015037593985,0,0.05
1757332189.1916668,-0.306,-0.048,9.583,0.1597252328218682,1.8512702929900868,2.466015037593985,0,0.05
1757332189.2175577,-0.306,-0.048,9.583,0.1597252328218682,1.8512702929900868,2.466015037593985,0,0.05
1757332189.2450922,-0.013,-0.331,9.828,0.15964670369287304,1.9304377243993125,2.48,0,0.05
1757332189.2736316,-0.27,-0.227,9.856,0.16011326459728437,2.0497335724485537,2.491578947368421,0,0.05
1757332189.3018284,-0.27,-0.227,9.856,0.16011326459728437,2.0497335724485537,2.491578947368421,0,0.05
1757332189.329304,-0.028,-0.53,9.564,0.16005753652983667,3.176281186093276,2.490877192982456,0,0.05
1757332189.3559678,-0.028,-0.53,9.564,0.16005753652983667,3.176281186093276,2.490877192982456,0,0.05
1757332189.382484,-0.17,-0.257,9.788,0.16006543193331907,1.8031442006088698,2.4920300751879703,0,0.05
1757332189.410537,-0.17,-0.257,9.788,0.16006543193331907,1.8031442006088698,2.4920300751879703,0,0.05
1757332189.4377663,0.089,-0.351,9.941,0.1594874759973334,2.0861156109573216,2.4978446115288215,0,0.05
1757332189.4658315,0.089,-0.351,9.941,0.1594874759973334,2.0861156109573216,2.4978446115288215,0,0.05
1757332189.4924881,-0.123,-0.128,9.408,0.1594457744814832,1.0809825037205698,2.504761904761905,0,0.05
1757332189.5200596,-0.123,-0.128,9.408,0.1594457744814832,1.0809825037205698,2.504761904761905,0,0.05
1757332189.5481706,-0.024,0.018,9.558,0.15941296214549178,0.17983550333258985,2.507518796992481,0,0.05
1757332189.5756857,-0.024,0.018,9.558,0.15941296214549178,0.17983550333258985,2.507518796992481,0,0.05
1757332189.6040113,0.153,-0.112,9.726,0.15959151763173382,1.1168656200525195,2.5114786967418543,0,0.05
1757332189.6310513,0.153,-0.112,9.726,0.15959151763173382,1.1168656200525195,2.5114786967418543,0,0.05
1757332189.6568308,-0.067,-0.559,9.632,0.159508158098575,3.3451945132495515,2.522456140350877,0,0.05
1757332189.683087,-0.067,-0.559,9.632,0.159508158098575,3.3451945132495515,2.522456140350877,0,0.05
1757332189.70978,-0.196,-0.336,9.51,0.15969246225166672,2.342269029603439,2.523609022556391,0,0.05
1757332189.736402,-0.196,-0.336,9.51,0.15969246225166672,2.342269029603439,2.523609022556391,0,0.05
1757332189.7629938,-0.144,-0.28,9.804,0.15985268999926153,1.839440662605971,2.524110275689223,0,0.05
1757332189.7893448,-0.144,-0.28,9.804,0.15985268999926153,1.839440662605971,2.524110275689223,0,0.05
1757332189.81526,-0.148,-0.369,9.636,0.15999760154452317,2.362639409948889,2.5193984962406017,0,0.05
1757332189.8412275,-0.148,-0.369,9.636,0.15999760154452317,2.362639409948889,2.5193984962406017,0,0.05
1757332189.867573,-0.26,-0.318,9.716,0.16033525033504017,2.4208340378724102,2.5221553884711776,0,0.05
1757332189.8934116,-0.26,-0.318,9.716,0.16033525033504017,2.4208340378724102,2.5221553884711776,0,0.05
1757332189.919793,-0.26,-0.318,9.716,0.16033525033504017,2.4208340378724102,2.5221553884711776,0,0.05
1757332189.9470315,-0.112,-0.393,9.852,0.16035663378856518,2.375190695196309,2.526766917293233,0,0.05
1757332189.9741104,-0.065,-0.24,9.756,0.16020221596469883,1.4599530711980588,2.5192481203007517,0,0.05
1757332190.001399,-0.065,-0.24,9.756,0.16020221596469883,1.4599530711980588,2.5192481203007517,0,0.05
1757332190.0280516,-0.065,-0.24,9.756,0.16020221596469883,1.4599530711980588,2.5192481203007517,0,0.05
1757332190.054816,-0.047,-0.332,9.656,0.16020568810126562,1.9888306250730012,2.5116791979949875,0,0.05
1757332190.0808916,-0.047,-0.332,9.656,0.16020568810126562,1.9888306250730012,2.5116791979949875,0,0.05
1757332190.10778,0.058,-0.268,9.945,0.16010605859866767,1.5793634910237893,2.5133834586466164,0,0.05
1757332190.1355932,0.014,-0.271,9.825,0.1600831034181934,1.58207738119011,2.5124812030075185,0,0.05
1757332190.1629534,0.014,-0.271,9.825,0.1600831034181934,1.58207738119011,2.5124812030075185,0,0.05
1757332190.1911216,0.014,-0.271,9.825,0.1600831034181934,1.58207738119011,2.5124812030075185,0,0.05
1757332190.2185516,-0.09,0.149,9.596,0.16014605833425938,1.0392337542353858,2.5119799498746866,0,0.05
1757332190.2454927,-0.131,-0.029,9.844,0.16016760752411832,0.7808803872575807,2.509523809523809,0,0.05
1757332190.272479,-0.131,-0.029,9.844,0.16016760752411832,0.7808803872575807,2.509523809523809,0,0.05
1757332190.2996624,-0.226,-0.173,9.781,0.1605587197881199,1.6667587925370917,2.514085213032581,0,0.05
1757332190.3272698,-0.226,-0.173,9.781,0.1605587197881199,1.6667587925370917,2.514085213032581,0,0.05
1757332190.3536758,-0.244,-0.12,9.648,0.16101631128553406,1.6143524862960217,2.513383458646617,0,0.05
1757332190.3803504,-0.244,-0.12,9.648,0.16101631128553406,1.6143524862960217,2.513383458646617,0,0.05
1757332190.4081402,0.088,0.021,9.717,0.16107613882881597,0.5334420200995714,2.5276691729323306,0,0.05
1757332190.4351628,0.088,0.021,9.717,0.16107613882881597,0.5334420200995714,2.5276691729323306,0,0.05
1757332190.4630525,-0.15,0.237,9.694,0.16122887458516852,1.6572967836359214,2.5342857142857143,0,0.05
1757332190.490943,-0.15,0.237,9.694,0.16122887458516852,1.6572967836359214,2.5342857142857143,0,0.05
1757332190.5176146,-0.102,0.042,9.578,0.16128774751976668,0.6598393325166335,2.5308270676691733,0,0.05
1757332190.5447474,-0.102,0.042,9.578,0.16128774751976668,0.6598393325166335,2.5308270676691733,0,0.05
1757332190.571156,-0.102,0.042,9.578,0.16128774751976668,0.6598393325166335,2.5308270676691733,0,0.05
1757332190.5976312,-0.021,0.013,9.651,0.16125941832959712,0.1466271138610461,2.5325814536340854,0,0.05
1757332190.6252115,-0.099,0.114,9.794,0.16133286243044223,0.883216107778513,2.523659147869674,0,0.05
1757332190.6523514,-0.099,0.114,9.794,0.16133286243044223,0.883216107778513,2.523659147869674,0,0.05
1757332190.6795077,-0.099,0.114,9.794,0.16133286243044223,0.883216107778513,2.523659147869674,0,0.05
1757332190.7078998,-0.155,-0.029,9.663,0.161079933573366,0.9349213341473267,2.5208521303258142,0,0.05
1757332190.7365322,-0.155,-0.029,9.663,0.161079933573366,0.9349213341473267,2.5208521303258142,0,0.05
1757332190.7652304,-0.053,0.033,9.774,0.16097850011725168,0.3659867041594458,2.5188471177944862,0,0.05
1757332190.7930117,-0.03,-0.035,9.982,0.1604268291153322,0.2645948864308632,2.514085213032581,0,0.05
1757332190.8205605,-0.03,-0.035,9.982,0.1604268291153322,0.2645948864308632,2.514085213032581,0,0.05
1757332190.8466547,0.075,-0.015,9.8,0.16029529001190274,0.4471628052988245,2.504110275689223,0,0.05
1757332190.8731523,0.075,-0.015,9.8,0.16029529001190274,0.4471628052988245,2.504110275689223,0,0.05
1757332190.8995924,-0.133,-0.133,9.627,0.16024828392216872,1.1192910937805598,2.5050125313283207,0,0.05
1757332190.9276223,-0.133,-0.133,9.627,0.16024828392216872,1.1192910937805598,2.5050125313283207,0,0.05
1757332190.9553342,-0.037,0.089,9.774,0.1602488533500318,0.564994314453555,2.509172932330827,0,0.05
1757332190.9828403,-0.037,0.089,9.774,0.1602488533500318,0.564994314453555,2.509172932330827,0,0.05
1757332191.010179,-0.023,-0.021,9.73,0.1602488533500318,0.1833978229662162,2.4985463659147866,0,0.05
1757332191.0378802,-0.023,-0.021,9.73,0.1602488533500318,0.1833978229662162,2.4985463659147866,0,0.05
1757332191.0657246,-0.203,-0.176,9.793,0.1602488533500318,1.571525494850651,2.4948872180451125,0,0.05
1757332191.0924206,-0.203,-0.176,9.793,0.1602488533500318,1.571525494850651,2.4948872180451125,0,0.05
1757332191.1194348,0.112,0.043,9.845,0.160327181101646,0.6981698316698268,2.5088721804511276,0,0.05
1757332191.1456313,0.112,0.043,9.845,0.160327181101646,0.6981698316698268,2.5088721804511276,0,0.05
1757332191.171975,-0.252,-0.164,9.62,0.16076403515712087,1.790154130989063,2.523308270676692,0,0.05
1757332191.1986582,-0.252,-0.164,9.62,0.16076403515712087,1.790154130989063,2.523308270676692,0,0.05
1757332191.2267137,-0.163,-0.15,9.697,0.16076656213280174,1.3086192795267815,2.522055137844611,0,0.05
1757332191.2534742,-0.163,-0.15,9.697,0.16076656213280174,1.3086192795267815,2.522055137844611,0,0.05
1757332191.2808192,-0.13,-0.202,9.795,0.1608800096345099,1.404863425206495,2.5204511278195487,0,0.05
1757332191.3076944,-0.13,-0.202,9.795,0.1608800096345099,1.404863425206495,2.5204511278195487,0,0.05
1757332191.3352797,-0.089,-0.125,9.721,0.16093929756277675,0.9043451045973057,2.520701754385965,0,0.05
1757332191.362345,-0.089,-0.125,9.721,0.16093929756277675,0.9043451045973057,2.520701754385965,0,0.05
1757332191.3899224,-0.168,-0.125,9.706,0.1611365725091607,1.235932703378406,2.5215538847117793,0,0.05
1757332191.416208,-0.168,-0.125,9.706,0.1611365725091607,1.235932703378406,2.5215538847117793,0,0.05
1757332191.4429128,-0.092,-0.229,9.753,0.16109963531926447,1.4494999884897424,2.5212531328320797,0,0.05
1757332191.4701748,-0.092,-0.229,9.753,0.16109963531926447,1.4494999884897424,2.5212531328320797,0,0.05
1757332191.4985673,-0.186,-0.207,9.711,0.16135941249273314,1.6414835212113847,2.515288220551378,0,0.05
1757332191.5265515,-0.186,-0.207,9.711,0.16135941249273314,1.6414835212113847,2.515288220551378,0,0.05
1757332191.5527842,-0.239,-0.144,9.581,0.1613331103648597,1.6681607051033924,2.51203007518797,0,0.05
1757332191.5796201,-0.239,-0.144,9.581,0.1613331103648597,1.6681607051033924,2.51203007518797,0,0.05
1757332191.6060283,-0.131,-0.333,9.618,0.16133913040549092,2.1307249068211935,2.5088220551378444,0,0.05
1757332191.6325452,-0.131,-0.333,9.618,0.16133913040549092,2.1307249068211935,2.5088220551378444,0,0.05
1757332191.659798,-0.062,-0.136,9.673,0.16135391225501786,0.8852551635620914,2.5102756892230573,0,0.05
1757332191.6855223,-0.062,-0.136,9.673,0.16135391225501786,0.8852551635620914,2.5102756892230573,0,0.05
1757332191.7122862,-0.212,-0.464,9.485,0.16170159244732255,3.078605840549239,2.500902255639098,0,0.05
1757332191.739708,-0.212,-0.464,9.485,0.16170159244732255,3.078605840549239,2.500902255639098,0,0.05
1757332191.768494,-0.303,-0.512,9.7,0.16151230603269834,3.5097808356492446,2.4847117794486215,0,0.05
1757332191.79608,-0.303,-0.512,9.7,0.16151230603269834,3.5097808356492446,2.4847117794486215,0,0.05
1757332191.8234475,-0.26,-0.003,9.586,0.16199352610521198,1.553749447812817,2.4840601503759396,0,0.05
1757332191.8500385,-0.26,-0.003,9.586,0.16199352610521198,1.553749447812817,2.4840601503759396,0,0.05
1757332191.8756971,-0.182,-0.05,9.639,0.16224669488159074,1.1217769091784122,2.481754385964912,0,0.05
1757332191.9024734,-0.182,-0.05,9.639,0.16224669488159074,1.1217769091784122,2.481754385964912,0,0.05
1757332191.9305701,-0.202,-0.27,9.669,0.16247269770641465,1.9973444647143364,2.4816541353383457,0,0.05
1757332191.957572,-0.202,-0.27,9.669,0.16247269770641465,1.9973444647143364,2.4816541353383457,0,0.05
1757332191.9854472,-0.344,-0.245,9.74,0.163325304224422,2.482799637581428,2.488220551378446,0,0.05
1757332192.0132635,-0.344,-0.245,9.74,0.163325304224422,2.482799637581428,2.488220551378446,0,0.05
1757332192.040831,-0.24,-0.188,9.694,0.1636951893001135,1.8013046877050571,2.4805513784461155,0,0.05
