timestamp,ax,ay,az,rms,tilt_now,jerk,tilt_crosses,freq
1757332297.2890685,-0.489,-0.151,9.721,0.02445,3.013678440945628,0.02451127819548872,0,0.25
1757332297.3185198,-0.504,-0.152,9.732,0.035111856971684084,3.0962172928316094,0.02526315789473684,0,0.05
1757332297.344991,-0.526,-0.143,9.767,0.04386949395650695,3.1943371317599007,0.02636591478696742,0,0.05
1757332297.3710375,-0.52,-0.16,9.767,0.050995416460697725,3.188296560572152,0.02666666666666667,0,0.05
1757332297.3986588,-0.517,-0.166,9.755,0.05717302685707658,3.1859892223672057,0.026817042606516295,0,0.05
1757332297.4253538,-0.516,-0.167,9.784,0.06272475587836114,3.1727999300824417,0.0268671679197995,0,0.05
1757332297.450771,-0.489,-0.179,9.766,0.06732159757462683,3.0521737219733005,0.028220551378446118,0,0.05
1757332297.475997,-0.478,-0.18,9.738,0.07143813757370779,3.0024708149516703,0.02877192982456141,0,0.05
1757332297.501148,-0.479,-0.168,9.748,0.07534593552408783,2.980867995577484,0.028822055137844617,0,0.05
1757332297.5268426,-0.488,-0.175,9.741,0.07919829543620241,3.0464856079653977,0.02927318295739349,0,0.05
1757332297.5520186,-0.501,-0.155,9.748,0.08306547116582196,3.0794667600942733,0.02992481203007519,0,0.05
1757332297.5774693,-0.51,-0.147,9.757,0.08689144089034317,3.1137149708444514,0.03037593984962406,0,0.05
1757332297.6029668,-0.509,-0.139,9.749,0.09054184115645098,3.09795586645715,0.03042606516290727,0,0.05
1757332297.628159,-0.512,-0.143,9.747,0.0940913651723685,3.121780129134271,0.03057644110275689,0,0.05
1757332297.6536932,-0.502,-0.143,9.786,0.09738169745901946,3.0531762125676103,0.031077694235588968,0,0.05
1757332297.6789868,-0.484,-0.151,9.776,0.10034358474760606,2.968843010628143,0.03197994987468671,0,0.05
1757332297.704017,-0.472,-0.149,9.755,0.10308149688474649,2.904643456791991,0.03258145363408521,0,0.05
1757332297.729645,-0.472,-0.149,9.755,0.10308149688474649,2.904643456791991,0.03258145363408521,0,0.05
1757332297.7549853,-0.472,-0.149,9.755,0.10308149688474649,2.904643456791991,0.03258145363408521,0,0.05
1757332297.7801077,-0.469,-0.151,9.754,0.10571517156964746,2.8917534219714773,0.03273182957393484,0,0.05
1757332297.8055267,-0.469,-0.151,9.754,0.10571517156964746,2.8917534219714773,0.03273182957393484,0,0.05
1757332297.830652,-0.496,-0.146,9.778,0.10858516243023261,3.02687012965366,0.03408521303258146,0,0.05
1757332297.8558288,-0.496,-0.146,9.778,0.10858516243023261,3.02687012965366,0.03408521303258146,0,0.05
1757332297.8812568,-0.529,-0.126,9.769,0.11176018969203658,3.186124122187849,0.03573934837092733,0,0.05
1757332297.906991,-0.529,-0.126,9.769,0.11176018969203658,3.186124122187849,0.03573934837092733,0,0.05
1757332297.932215,-0.54,-0.132,9.759,0.11497538867079338,3.260200820543062,0.03629072681704261,0,0.05
1757332297.9579613,-0.54,-0.132,9.759,0.11497538867079338,3.260200820543062,0.03629072681704261,0,0.05
1757332297.983089,-0.534,-0.144,9.776,0.1180348677298365,3.2380443353086386,0.03659147869674187,0,0.05
1757332298.0086625,-0.534,-0.144,9.776,0.1180348677298365,3.2380443353086386,0.03659147869674187,0,0.05
1757332298.0340455,-0.522,-0.15,9.766,0.12088606205845238,3.183156559424273,0.03719298245614036,0,0.05
1757332298.0594382,-0.522,-0.15,9.766,0.12088606205845238,3.183156559424273,0.03719298245614036,0,0.05
1757332298.084812,-0.493,-0.149,9.764,0.12337367020559938,3.019397334761092,0.03864661654135339,0,0.05
1757332298.1098914,-0.493,-0.149,9.764,0.12337367020559938,3.019397334761092,0.03864661654135339,0,0.05
1757332298.1350489,-0.493,-0.149,9.764,0.12337367020559938,3.019397334761092,0.03864661654135339,0,0.05
1757332298.1600964,-0.488,-0.148,9.768,0.12576335913134637,2.9884751764869106,0.03889724310776944,0,0.05
1757332298.1856248,-0.488,-0.148,9.768,0.12576335913134637,2.9884751764869106,0.03889724310776944,0,0.05
1757332298.210575,-0.477,-0.15,9.757,0.1280048631888648,2.9337408207254208,0.03944862155388472,0,0.05
1757332298.2357833,-0.477,-0.15,9.757,0.1280048631888648,2.9337408207254208,0.03944862155388472,0,0.05
1757332298.2609732,-0.492,-0.15,9.748,0.1303472477653441,3.02043794705365,0.04020050125313284,0,0.05
1757332298.286133,-0.492,-0.15,9.748,0.1303472477653441,3.02043794705365,0.04020050125313284,0,0.05
1757332298.3110173,-0.522,-0.14,9.727,0.1329346267907651,3.180177014496964,0.041704260651629084,0,0.05
1757332298.336241,-0.522,-0.14,9.727,0.1329346267907651,3.180177014496964,0.041704260651629084,0,0.05
1757332298.361342,-0.534,-0.136,9.727,0.13558947230519042,3.242409267585002,0.0423057644110276,0,0.05
1757332298.3868172,-0.534,-0.136,9.727,0.13558947230519042,3.242409267585002,0.0423057644110276,0,0.05
1757332298.4119756,-0.529,-0.146,9.733,0.13814524059843683,3.2271028433792392,0.04255639097744362,0,0.05
1757332298.437024,-0.529,-0.146,9.733,0.13814524059843683,3.2271028433792392,0.04255639097744362,0,0.05
1757332298.4628997,-0.53,-0.147,9.746,0.1406639879286806,3.230018128697517,0.04260651629072683,0,0.05
1757332298.4883409,-0.53,-0.147,9.746,0.1406639879286806,3.230018128697517,0.04260651629072683,0,0.05
1757332298.5138257,-0.53,-0.147,9.746,0.1406639879286806,3.230018128697517,0.04260651629072683,0,0.05
1757332298.5390027,-0.532,-0.153,9.751,0.14315696804556877,3.2491917399473604,0.042706766917293255,0,0.05
1757332298.5641937,-0.532,-0.153,9.751,0.14315696804556877,3.2491917399473604,0.042706766917293255,0,0.05
1757332298.5904992,-0.49,-0.155,9.737,0.14523831278281912,3.0213386685285153,0.04481203007518798,0,0.05
1757332298.616211,-0.49,-0.155,9.737,0.14523831278281912,3.0213386685285153,0.04481203007518798,0,0.05
1757332298.6415699,-0.486,-0.149,9.759,0.1472571135802953,2.981732902030896,0.04501253132832082,0,0.05
1757332298.666986,-0.486,-0.149,9.759,0.1472571135802953,2.981732902030896,0.04501253132832082,0,0.05
1757332298.6924922,-0.493,-0.153,9.74,0.14930599452131854,3.0336952066094525,0.04536340852130326,0,0.05
1757332298.7179472,-0.493,-0.153,9.74,0.14930599452131854,3.0336952066094525,0.04536340852130326,0,0.05
1757332298.743257,-0.493,-0.148,9.755,0.15132713735480494,3.020488577486933,0.04536340852130328,0,0.05
1757332298.7685418,-0.493,-0.148,9.755,0.15132713735480494,3.020488577486933,0.04536340852130328,0,0.05
1757332298.7942467,-0.523,-0.148,9.76,0.15356993520868595,3.1875275273620605,0.04686716791979951,0,0.05
1757332298.8196526,-0.523,-0.148,9.76,0.15356993520868595,3.1875275273620605,0.04686716791979951,0,0.05
1757332298.844993,-0.533,-0.142,9.766,0.15586515806940304,3.2326759554311684,0.0473684210526316,0,0.05
1757332298.870449,-0.533,-0.142,9.766,0.15586515806940304,3.2326759554311684,0.0473684210526316,0,0.05
1757332298.8962836,-0.535,-0.152,9.784,0.15814395340954393,3.2534892121507255,0.047468671679198014,0,0.05
1757332298.921453,-0.535,-0.152,9.784,0.15814395340954393,3.2534892121507255,0.047468671679198014,0,0.05
1757332298.9465587,-0.518,-0.153,9.764,0.16025080343012324,3.1662502556862377,0.04832080200501255,0,0.05
1757332298.9716752,-0.518,-0.153,9.764,0.16025080343012324,3.1662502556862377,0.04832080200501255,0,0.05
1757332298.9968388,-0.518,-0.153,9.764,0.16025080343012324,3.1662502556862377,0.04832080200501255,0,0.05
1757332299.0218892,-0.498,-0.158,9.757,0.16217376483266335,3.0651209833483315,0.049323308270676706,0,0.05
1757332299.0472918,-0.498,-0.158,9.757,0.16217376483266335,3.0651209833483315,0.049323308270676706,0,0.05
1757332299.0725265,-0.477,-0.164,9.748,0.1639181274295189,2.962100880977239,0.05037593984962408,0,0.05
1757332299.0976608,-0.477,-0.164,9.748,0.1639181274295189,2.962100880977239,0.05037593984962408,0,0.05
1757332299.1228445,-0.474,-0.163,9.725,0.16562259054851183,2.950513479370407,0.050526315789473704,0,0.05
1757332299.1484659,-0.474,-0.163,9.725,0.16562259054851183,2.950513479370407,0.050526315789473704,0,0.05
1757332299.1760604,-0.484,-0.146,9.736,0.16738124894981515,2.972410886817141,0.05102756892230578,0,0.05
1757332299.2044013,-0.484,-0.146,9.736,0.16738124894981515,2.972410886817141,0.05102756892230578,0,0.05
1757332299.230595,-0.513,-0.15,9.74,0.16933518535732614,3.1409417267405493,0.052481203007518816,0,0.05
1757332299.2558494,-0.513,-0.15,9.74,0.16933518535732614,3.1409417267405493,0.052481203007518816,0,0.05
1757332299.2810237,-0.529,-0.163,9.761,0.1713884695654874,3.2457485574748484,0.05328320802005015,0,0.05
1757332299.3062785,-0.529,-0.163,9.761,0.1713884695654874,3.2457485574748484,0.05328320802005015,0,0.05
1757332299.331562,-0.533,-0.158,9.756,0.17344806139014643,3.2613538667179482,0.05348370927318298,0,0.05
1757332299.3574448,-0.533,-0.158,9.756,0.17344806139014643,3.2613538667179482,0.05348370927318298,0,0.05
1757332299.3826225,-0.524,-0.158,9.747,0.1754157062523194,3.2138327320696356,0.053934837092731856,0,0.05
1757332299.4079764,-0.524,-0.158,9.747,0.1754157062523194,3.2138327320696356,0.053934837092731856,0,0.05
1757332299.4334745,-0.513,-0.168,9.756,0.1772811115150173,3.1669979786149005,0.05448621553884714,0,0.05
1757332299.4585938,-0.513,-0.168,9.756,0.1772811115150173,3.1669979786149005,0.05448621553884714,0,0.05
1757332299.4840252,-0.486,-0.168,9.757,0.17893876745970952,3.016837165338223,0.05583959899749376,0,0.05
1757332299.5093806,-0.486,-0.168,9.757,0.17893876745970952,3.016837165338223,0.05583959899749376,0,0.05
1757332299.5345223,-0.486,-0.168,9.757,0.17893876745970952,3.016837165338223,0.05583959899749376,0,0.05
1757332299.5598426,-0.464,-0.169,9.739,0.1804364777421683,2.902713012193267,0.05694235588972433,0,0.05
1757332299.5853946,-0.464,-0.169,9.739,0.1804364777421683,2.902713012193267,0.05694235588972433,0,0.05
1757332299.610857,-0.463,-0.148,9.737,0.18191548862040308,2.857880941309394,0.05699248120300753,0,0.05
1757332299.6377761,-0.463,-0.148,9.737,0.18191548862040308,2.857880941309394,0.05699248120300753,0,0.05
1757332299.663813,-0.48,-0.149,9.748,0.18349181180641277,2.9514828148057464,0.05784461152882207,0,0.05
1757332299.6898162,-0.48,-0.149,9.748,0.18349181180641277,2.9514828148057464,0.05784461152882207,0,0.05
1757332299.7159488,-0.504,-0.156,9.759,0.18521415982586215,3.094510201374909,0.059047619047619064,0,0.05
1757332299.741572,-0.504,-0.156,9.759,0.18521415982586215,3.094510201374909,0.059047619047619064,0,0.05
1757332299.7671545,-0.528,-0.152,9.764,0.18708619671156929,3.2207721731485814,0.060250626566416055,0,0.05
1757332299.7935596,-0.528,-0.152,9.764,0.18708619671156929,3.2207721731485814,0.060250626566416055,0,0.05
1757332299.8195465,-0.522,-0.161,9.754,0.18889800157757097,3.205453602240705,0.06055137844611531,0,0.05
1757332299.845284,-0.522,-0.161,9.754,0.18889800157757097,3.205453602240705,0.06055137844611531,0,0.05
1757332299.8706238,-0.518,-0.164,9.75,0.19066532196495514,3.189641962098944,0.06075187969924814,0,0.05
1757332299.8968804,-0.518,-0.164,9.75,0.19066532196495514,3.189641962098944,0.06075187969924814,0,0.05
1757332299.92232,-0.515,-0.164,9.739,0.19239627725088654,3.1764673176530542,0.06090225563909776,0,0.05
1757332299.9478717,-0.515,-0.164,9.739,0.19239627725088654,3.1764673176530542,0.06090225563909776,0,0.05
1757332299.9735904,-0.498,-0.171,9.747,0.19400086984341078,3.0921574636849196,0.0617543859649123,0,0.05
1757332299.9995792,-0.498,-0.171,9.747,0.19400086984341078,3.0921574636849196,0.0617543859649123,0,0.05
1757332300.0248117,-0.482,-0.182,9.747,0.19549206505635977,3.025780367818888,0.06255639097744363,0,0.05
1757332300.0502293,-0.482,-0.182,9.747,0.19549206505635977,3.025780367818888,0.06255639097744363,0,0.05
1757332300.0752854,-0.482,-0.182,9.747,0.19549206505635977,3.025780367818888,0.06255639097744363,0,0.05
1757332300.1005116,-0.482,-0.186,9.755,0.19697197135633282,3.03165899733722,0.06255639097744363,0,0.05
1757332300.1258633,-0.482,-0.186,9.755,0.19697197135633282,3.03165899733722,0.06255639097744363,0,0.05
1757332300.1512794,-0.493,-0.17,9.757,0.19850838773210566,3.0594054158821984,0.06310776942355892,0,0.05
1757332300.1765,-0.493,-0.17,9.757,0.19850838773210566,3.0594054158821984,0.06310776942355892,0,0.05
1757332300.2017517,-0.534,-0.163,9.75,0.20029595602507805,3.277402645237783,0.06516290726817045,0,0.05
1757332300.2271276,-0.534,-0.163,9.75,0.20029595602507805,3.277402645237783,0.06516290726817045,0,0.05
1757332300.252682,-0.534,-0.157,9.748,0.20206771142367105,3.267984681433619,0.06516290726817045,0,0.05
1757332300.278071,-0.534,-0.157,9.748,0.20206771142367105,3.267984681433619,0.06516290726817045,0,0.05
1757332300.303145,-0.534,-0.16,9.756,0.20382406629247685,3.2703077246238776,0.06516290726817045,0,0.05
1757332300.328304,-0.534,-0.16,9.756,0.20382406629247685,3.2703077246238776,0.06516290726817045,0,0.05
1757332300.353696,-0.52,-0.154,9.747,0.20547566765921457,3.184662580441734,0.06586466165413536,0,0.05
1757332300.3792565,-0.52,-0.154,9.747,0.20547566765921457,3.184662580441734,0.06586466165413536,0,0.05
1757332300.4046397,-0.489,-0.167,9.741,0.2069252340822646,3.036518864453217,0.06741854636591481,0,0.05
1757332300.430357,-0.489,-0.167,9.741,0.2069252340822646,3.036518864453217,0.06741854636591481,0,0.05
1757332300.4561293,-0.489,-0.167,9.741,0.2069252340822646,3.036518864453217,0.06741854636591481,0,0.05
1757332300.4834864,-0.479,-0.178,9.742,0.20830663695619495,3.0026236654805762,0.0679197994987469,0,0.05
1757332300.5106325,-0.479,-0.178,9.742,0.20830663695619495,3.0026236654805762,0.0679197994987469,0,0.05
1757332300.5378814,-0.48,-0.169,9.745,0.20968465609099776,2.989259897267373,0.0679699248120301,0,0.05
1757332300.5652356,-0.48,-0.169,9.745,0.20968465609099776,2.989259897267373,0.0679699248120301,0,0.05
1757332300.5915034,-0.488,-0.157,9.76,0.21109953813308072,3.0066357433865285,0.06837092731829576,0,0.05
1757332300.617493,-0.488,-0.157,9.76,0.21109953813308072,3.0066357433865285,0.06837092731829576,0,0.05
1757332300.643342,-0.514,-0.148,9.769,0.21265818817999932,3.133993010040633,0.06967418546365917,0,0.05
1757332300.6690848,-0.514,-0.148,9.769,0.21265818817999932,3.133993010040633,0.06967418546365917,0,0.05
1757332300.6960654,-0.543,-0.15,9.771,0.21438429863215264,3.2996789157649564,0.07112781954887222,0,0.05
1757332300.722951,-0.543,-0.15,9.771,0.21438429863215264,3.2996789157649564,0.07112781954887222,0,0.05
1757332300.7497861,-0.541,-0.154,9.768,0.2160840808574292,3.295746510894322,0.07122807017543861,0,0.05
1757332300.7768574,-0.541,-0.154,9.768,0.2160840808574292,3.295746510894322,0.07122807017543861,0,0.05
1757332300.8035743,-0.528,-0.147,9.773,0.2176908128516222,3.2098516249880027,0.07187969924812032,0,0.05
1757332300.8302555,-0.528,-0.147,9.773,0.2176908128516222,3.2098516249880027,0.07187969924812032,0,0.05
1757332300.856217,-0.569,-0.179,9.553,0.21954200623115386,3.572922467306148,0.07393483709273185,0,0.05
1757332300.8831887,-0.569,-0.179,9.553,0.21954200623115386,3.572922467306148,0.07393483709273185,0,0.05
1757332300.9103363,0.089,-0.25,9.673,0.21958710116944485,1.5714610465617302,0.10691729323308273,0,0.05
1757332300.9382768,0.089,-0.25,9.673,0.21958710116944485,1.5714610465617302,0.10691729323308273,0,0.05
1757332300.9652634,-0.361,-0.006,9.765,0.22032770479447203,2.117482243967462,0.12947368421052632,0,0.05
1757332300.9925098,-0.361,-0.006,9.765,0.22032770479447203,2.117482243967462,0.12947368421052632,0,0.05
1757332301.019809,-0.34,-0.124,9.789,0.2209825728422945,2.1173000770356682,0.1305263157894737,0,0.05
1757332301.0466657,-0.34,-0.124,9.789,0.2209825728422945,2.1173000770356682,0.1305263157894737,0,0.05
1757332301.0725777,-0.609,-0.216,9.549,0.2230706166217326,3.871244869623307,0.14401002506265667,0,0.05
1757332301.098856,-0.609,-0.216,9.549,0.2230706166217326,3.871244869623307,0.14401002506265667,0,0.05
1757332301.124497,-0.483,-0.199,9.594,0.22437406824319073,3.116650387407375,0.1503258145363409,0,0.05
1757332301.15166,-0.483,-0.199,9.594,0.22437406824319073,3.116650387407375,0.1503258145363409,0,0.05
1757332301.1794653,-0.328,0.194,9.554,0.22497262611260066,2.284128101837319,0.15809523809523812,0,0.05
1757332301.2074983,-0.328,0.194,9.554,0.22497262611260066,2.284128101837319,0.15809523809523812,0,0.05
1757332301.2348042,-0.304,0.276,9.565,0.22548552614303208,2.45804362507931,0.15929824561403513,0,0.05
1757332301.2625215,-0.304,0.276,9.565,0.22548552614303208,2.45804362507931,0.15929824561403513,0,0.05
1757332301.2897506,-0.579,-0.254,9.791,0.22733636972556767,3.6948008170678333,0.17308270676691734,0,0.05
1757332301.3175323,-0.579,-0.254,9.791,0.22733636972556767,3.6948008170678333,0.17308270676691734,0,0.05
1757332301.3444288,-0.596,-0.326,9.618,0.2292811919892253,4.040166881572616,0.1739348370927319,0,0.05
1757332301.3711562,-0.596,-0.326,9.618,0.2292811919892253,4.040166881572616,0.1739348370927319,0,0.05
1757332301.3970563,-0.64,-0.248,9.796,0.23150348809467214,4.007957113271106,0.176140350877193,0,0.05
1757332301.424461,-0.64,-0.248,9.796,0.23150348809467214,4.007957113271106,0.176140350877193,0,0.05
1757332301.4516134,-0.527,-0.243,9.975,0.23299825643124458,3.3296019638779386,0.18180451127819555,0,0.05
1757332301.4787514,-0.527,-0.243,9.975,0.23299825643124458,3.3296019638779386,0.18180451127819555,0,0.05
1757332301.505751,-0.552,0.013,9.807,0.23462725225344136,3.222461053905401,0.18305764411027575,0,0.05
1757332301.5311582,-0.552,0.013,9.807,0.23462725225344136,3.222461053905401,0.18305764411027575,0,0.05
1757332301.5564916,-0.457,-0.372,9.919,0.2357372902194305,3.3998135742824465,0.18781954887218047,0,0.05
1757332301.584482,-0.457,-0.372,9.919,0.2357372902194305,3.3998135742824465,0.18781954887218047,0,0.05
1757332301.6115801,-0.506,-0.374,9.91,0.23709103736750575,3.633002767892184,0.19027568922305768,0,0.05
1757332301.63723,-0.506,-0.374,9.91,0.23709103736750575,3.633002767892184,0.19027568922305768,0,0.05
1757332301.664643,-0.572,-0.152,9.85,0.2388097987939356,3.438564631326252,0.19358395989974939,0,0.05
1757332301.6923702,-0.572,-0.152,9.85,0.2388097987939356,3.438564631326252,0.19358395989974939,0,0.05
1757332301.719489,-0.539,-0.537,9.917,0.2403256592625931,4.387229901059779,0.19523809523809527,0,0.05
1757332301.747248,-0.539,-0.537,9.917,0.2403256592625931,4.387229901059779,0.19523809523809527,0,0.05
1757332301.7739847,-0.569,-0.705,9.963,0.2420037706317817,5.195827074317223,0.19674185463659147,0,0.05
1757332301.801143,-0.569,-0.705,9.963,0.2420037706317817,5.195827074317223,0.19674185463659147,0,0.05
1757332301.8268774,-0.662,-0.778,9.984,0.2442569036895375,5.841998449214799,0.20140350877192983,0,0.05
1757332301.8544543,-0.662,-0.778,9.984,0.2442569036895375,5.841998449214799,0.20140350877192983,0,0.05
1757332301.88154,-0.288,-0.666,9.827,0.24468100661882197,4.222925926368477,0.22015037593984962,0,0.05
1757332301.9090576,-0.288,-0.666,9.827,0.24468100661882197,4.222925926368477,0.22015037593984962,0,0.05
1757332301.9356282,-0.615,-0.493,10.152,0.24660567207588718,4.439583494288523,0.23654135338345864,0,0.05
1757332301.9615266,-0.615,-0.493,10.152,0.24660567207588718,4.439583494288523,0.23654135338345864,0,0.05
1757332301.9877303,-0.783,-0.61,9.944,0.24969397269457666,5.700135338121642,0.2449624060150376,0,0.05
1757332302.0150452,-0.783,-0.61,9.944,0.24969397269457666,5.700135338121642,0.2449624060150376,0,0.05
1757332302.0420012,-0.407,-0.365,9.801,0.2505218603236053,3.1926146697918947,0.2638095238095238,0,0.05
1757332302.0678725,-0.407,-0.365,9.801,0.2505218603236053,3.1926146697918947,0.2638095238095238,0,0.05
1757332302.0947764,-0.546,-0.437,10.108,0.2520049453879824,3.957838147589088,0.2707769423558897,0,0.05
1757332302.122363,-0.546,-0.437,10.108,0.2520049453879824,3.957838147589088,0.2707769423558897,0,0.05
1757332302.1492815,-0.513,-0.371,9.812,0.25330695805682085,3.691754151447268,0.2724310776942356,0,0.05
1757332302.176107,-0.513,-0.371,9.812,0.25330695805682085,3.691754151447268,0.2724310776942356,0,0.05
1757332302.2031121,-0.488,-0.148,9.819,0.2544794196000926,2.972980920439746,0.2736842105263158,0,0.05
1757332302.2295303,-0.488,-0.148,9.819,0.2544794196000926,2.972980920439746,0.2736842105263158,0,0.05
1757332302.2557273,-0.419,-0.337,10.024,0.2553403170280792,3.070521299621196,0.27714285714285714,0,0.05
1757332302.2831817,-0.419,-0.337,10.024,0.2553403170280792,3.070521299621196,0.27714285714285714,0,0.05
1757332302.3099532,-0.357,-0.108,9.836,0.2559634739567347,2.171600544176225,0.280250626566416,0,0.05
1757332302.3369648,-0.357,-0.108,9.836,0.2559634739567347,2.171600544176225,0.280250626566416,0,0.05
1757332302.3640685,-0.432,-0.184,9.815,0.2568732372202289,2.7389615378645606,0.2840100250626566,0,0.05
1757332302.3911521,-0.432,-0.184,9.815,0.2568732372202289,2.7389615378645606,0.2840100250626566,0,0.05
1757332302.4179387,-0.521,-0.305,10.077,0.25819074828506156,3.4284759258241917,0.28847117794486216,0,0.05
1757332302.4452248,-0.521,-0.305,10.077,0.25819074828506156,3.4284759258241917,0.28847117794486216,0,0.05
1757332302.4711645,-0.419,0.023,9.694,0.2590393116883999,2.478654074350165,0.2935839598997494,0,0.05
1757332302.4981668,-0.419,0.023,9.694,0.2590393116883999,2.478654074350165,0.2935839598997494,0,0.05
1757332302.525223,-0.543,0.172,9.77,0.26045822601714846,3.336562502721154,0.29979949874686723,0,0.05
1757332302.552351,-0.543,0.172,9.77,0.26045822601714846,3.336562502721154,0.29979949874686723,0,0.05
1757332302.5793893,-0.165,0.181,9.815,0.2605888524093078,1.429444050128835,0.31874686716791983,0,0.05
1757332302.606684,-0.165,0.181,9.815,0.2605888524093078,1.429444050128835,0.31874686716791983,0,0.05
1757332302.6328833,-0.29,0.086,9.923,0.260991953898966,1.7460080094723942,0.3250125313283208,0,0.05
1757332302.6593568,-0.29,0.086,9.923,0.260991953898966,1.7460080094723942,0.3250125313283208,0,0.05
1757332302.6862454,-0.455,-0.163,9.703,0.2619816071788247,2.8516002749447873,0.3332832080200502,0,0.05
1757332302.7117193,-0.455,-0.163,9.703,0.2619816071788247,2.8516002749447873,0.3332832080200502,0,0.05
1757332302.7379274,-0.388,-0.365,9.859,0.26269891986835425,3.0927879348444307,0.3366416040100252,0,0.05
1757332302.7652807,-0.388,-0.365,9.859,0.26269891986835425,3.0927879348444307,0.3366416040100252,0,0.05
1757332302.7923295,-0.419,-0.141,9.901,0.2635329675771136,2.5566080522559713,0.33819548872180455,0,0.05
1757332302.8205001,-0.419,-0.141,9.901,0.2635329675771136,2.5566080522559713,0.33819548872180455,0,0.05
1757332302.8473654,-0.438,0.008,9.62,0.2644413640110034,2.607319019753994,0.33914786967418553,0,0.05
1757332302.8726554,-0.438,0.008,9.62,0.2644413640110034,2.607319019753994,0.33914786967418553,0,0.05
1757332302.8990836,-0.441,-0.028,9.775,0.26535907276744847,2.5883469668242127,0.33929824561403515,0,0.05
1757332302.9264643,-0.441,-0.028,9.775,0.26535907276744847,2.5883469668242127,0.33929824561403515,0,0.05
1757332302.953596,-0.448,-0.225,9.885,0.2663028304393327,2.9033227951136675,0.3396491228070176,0,0.05
1757332302.9797668,-0.448,-0.225,9.885,0.2663028304393327,2.9033227951136675,0.3396491228070176,0,0.05
1757332303.0065053,-0.545,-0.09,9.57,0.267693406717461,3.3034518878857226,0.34451127819548877,0,0.05
1757332303.0333338,-0.545,-0.09,9.57,0.267693406717461,3.3034518878857226,0.34451127819548877,0,0.05
1757332303.0603726,-0.567,-0.074,9.754,0.2691904205204933,3.3550094436030884,0.3456140350877193,0,0.05
1757332303.0877347,-0.567,-0.074,9.754,0.2691904205204933,3.3550094436030884,0.3456140350877193,0,0.05
1757332303.1151738,-0.463,-0.346,9.964,0.270184020622982,3.319945635651879,0.35082706766917293,0,0.05
1757332303.1422613,-0.463,-0.346,9.964,0.270184020622982,3.319945635651879,0.35082706766917293,0,0.05
1757332303.1693773,-0.448,-0.096,9.701,0.2711109828096236,2.704023344185285,0.35157894736842105,0,0.05
1757332303.1960828,-0.448,-0.096,9.701,0.2711109828096236,2.704023344185285,0.35157894736842105,0,0.05
1757332303.2235029,-0.465,0.061,9.772,0.27210609603608665,2.7476670438699506,0.3524310776942356,0,0.05
1757332303.2507339,-0.465,0.061,9.772,0.27210609603608665,2.7476670438699506,0.3524310776942356,0,0.05
1757332303.2786367,-0.268,-0.004,9.994,0.27243584107088403,1.5362516332418894,0.36230576441102763,0,0.05
1757332303.304834,-0.268,-0.004,9.994,0.27243584107088403,1.5362516332418894,0.36230576441102763,0,0.05
1757332303.3307629,-0.433,-0.158,9.761,0.2732947310139733,2.703567781740207,0.370576441102757,0,0.05
1757332303.3575418,-0.433,-0.158,9.761,0.2732947310139733,2.703567781740207,0.370576441102757,0,0.05
1757332303.384855,-0.44,-0.257,9.691,0.2741787920317689,3.0098691249334055,0.37092731829573944,0,0.05
1757332303.4115016,-0.44,-0.257,9.691,0.2741787920317689,3.0098691249334055,0.37092731829573944,0,0.05
1757332303.4372778,-0.436,-0.582,9.966,0.275044087375097,4.173367986747526,0.3711278195488722,0,0.05
1757332303.463749,-0.436,-0.582,9.966,0.275044087375097,4.173367986747526,0.3711278195488722,0,0.05
1757332303.4910083,-0.507,-0.334,9.766,0.27620983418408546,3.5573612510880572,0.37468671679197996,0,0.05
1757332303.5179431,-0.507,-0.334,9.766,0.27620983418408546,3.5573612510880572,0.37468671679197996,0,0.05
1757332303.545022,-0.363,-0.426,9.723,0.27680551836984757,3.294469060280565,0.3819047619047618,0,0.05
1757332303.5719666,-0.363,-0.426,9.723,0.27680551836984757,3.294469060280565,0.3819047619047618,0,0.05
1757332303.5972757,-0.436,-0.223,9.879,0.27766262802184954,2.8379289135427217,0.3855639097744361,0,0.05
1757332303.624855,-0.436,-0.223,9.879,0.27766262802184954,2.8379289135427217,0.3855639097744361,0,0.05
1757332303.6501722,-0.467,-0.125,9.72,0.27864270580799344,2.84735099316823,0.3871177944862156,0,0.05
1757332303.6774821,-0.467,-0.125,9.72,0.27864270580799344,2.84735099316823,0.3871177944862156,0,0.05
1757332303.704975,-0.5,-0.102,9.667,0.279761965785201,3.0217034025333325,0.38877192982456144,0,0.05
1757332303.7325213,-0.5,-0.102,9.667,0.279761965785201,3.0217034025333325,0.38877192982456144,0,0.05
1757332303.7597606,-0.543,-0.104,9.957,0.2810762885766069,3.178127025281324,0.3909273182957394,0,0.05
1757332303.7868237,-0.543,-0.104,9.957,0.2810762885766069,3.178127025281324,0.3909273182957394,0,0.05
1757332303.8136022,-0.59,-0.286,9.73,0.2826201160568723,3.8550980464892652,0.39328320802005007,0,0.05
1757332303.839854,-0.59,-0.286,9.73,0.2826201160568723,3.8550980464892652,0.39328320802005007,0,0.05
1757332303.8657477,-0.425,-0.24,9.449,0.2834178761122876,2.9569544736755398,0.4015538847117795,0,0.05
1757332303.8926282,-0.425,-0.24,9.449,0.2834178761122876,2.9569544736755398,0.4015538847117795,0,0.05
1757332303.9199803,-0.541,-0.043,9.631,0.2847058042962946,3.225202409880191,0.40736842105263166,0,0.05
1757332303.9479032,-0.541,-0.043,9.631,0.2847058042962946,3.225202409880191,0.40736842105263166,0,0.05
1757332303.975203,-0.248,-0.117,9.601,0.2849757094911775,1.6359756003984145,0.4220551378446116,0,0.05
1757332304.0023527,-0.248,-0.117,9.601,0.2849757094911775,1.6359756003984145,0.4220551378446116,0,0.05
1757332304.028798,-0.432,-0.125,9.343,0.2857931332275147,2.755779091460948,0.4312781954887219,0,0.05
1757332304.0550268,-0.432,-0.125,9.343,0.2857931332275147,2.755779091460948,0.4312781954887219,0,0.05
1757332304.0822113,-0.63,-0.138,9.676,0.28752385118455825,3.8133116344827336,0.4412030075187972,0,0.05
1757332304.1092734,-0.63,-0.138,9.676,0.28752385118455825,3.8133116344827336,0.4412030075187972,0,0.05
1757332304.135613,-0.455,-0.205,9.638,0.2884224809199172,2.9640894456854032,0.4499749373433585,0,0.05
1757332304.1630685,-0.455,-0.205,9.638,0.2884224809199172,2.9640894456854032,0.4499749373433585,0,0.05
1757332304.1908221,-0.7,-0.023,9.414,0.2905383408433386,4.254822300984324,0.4622556390977445,0,0.05
1757332304.2190747,-0.7,-0.023,9.414,0.2905383408433386,4.254822300984324,0.4622556390977445,0,0.05
1757332304.2465298,-0.85,-0.119,9.545,0.2936303415861515,5.138236617008689,0.4697744360902257,0,0.05
1757332304.274924,-0.85,-0.119,9.545,0.2936303415861515,5.138236617008689,0.4697744360902257,0,0.05
1757332304.301725,-0.898,0.038,10.114,0.2970434101272068,5.078379349474995,0.4721804511278197,0,0.05
1757332304.3291895,-0.898,0.038,10.114,0.2970434101272068,5.078379349474995,0.4721804511278197,0,0.05
1757332304.3562095,-0.856,-0.179,9.831,0.3001110252889753,5.083358452610264,0.47428571428571437,0,0.05
1757332304.3836482,-0.856,-0.179,9.831,0.3001110252889753,5.083358452610264,0.47428571428571437,0,0.05
1757332304.408897,-0.812,-0.032,9.807,0.3028448241261521,4.736836933442245,0.4764912280701756,0,0.05
1757332304.4362364,-0.812,-0.032,9.807,0.3028448241261521,4.736836933442245,0.4764912280701756,0,0.05
1757332304.4634225,-0.431,-0.044,9.901,0.3036105894068914,2.505505076346326,0.4955889724310778,0,0.05
1757332304.4899423,-0.431,-0.044,9.901,0.3036105894068914,2.505505076346326,0.4955889724310778,0,0.05
1757332304.5156825,-0.495,-0.116,9.726,0.304617715341705,2.9923168460017906,0.4987969924812031,0,0.05
1757332304.5431583,-0.495,-0.116,9.726,0.304617715341705,2.9923168460017906,0.4987969924812031,0,0.05
1757332304.5694191,-0.031,0.003,9.658,0.30462165878348174,0.1847650368871614,0.5220551378446115,0,0.05
1757332304.5961199,-0.031,0.003,9.658,0.30462165878348174,0.1847650368871614,0.5220551378446115,0,0.05
1757332304.623622,-0.114,-0.052,9.687,0.3046749825633867,0.7410695009973102,0.5262155388471179,0,0.05
1757332304.6498752,-0.114,-0.052,9.687,0.3046749825633867,0.7410695009973102,0.5262155388471179,0,0.05
1757332304.6763175,-0.43,0.004,9.619,0.30543263578078883,2.5597106987711147,0.5420551378446116,0,0.05
1757332304.7026317,-0.43,0.004,9.619,0.30543263578078883,2.5597106987711147,0.5420551378446116,0,0.05
1757332304.728964,-0.427,0.057,9.464,0.30617791804766065,2.606222385893314,0.5422055137844611,0,0.05
1757332304.7550075,-0.427,0.057,9.464,0.30617791804766065,2.606222385893314,0.5422055137844611,0,0.05
1757332304.7812424,-0.286,-0.394,9.579,0.30651167596031315,2.909594075116946,0.5492731829573936,0,0.05
1757332304.8074214,-0.286,-0.394,9.579,0.30651167596031315,2.909594075116946,0.5492731829573936,0,0.05
1757332304.8333325,-0.722,-0.384,9.656,0.30863022778075383,4.840819970401552,0.5711278195488722,0,0.05
1757332304.8605423,-0.722,-0.384,9.656,0.30863022778075383,4.840819970401552,0.5711278195488722,0,0.05
1757332304.8873801,-0.758,-0.446,9.434,0.31094859301820293,5.325960026621763,0.5729323308270676,0,0.05
1757332304.9146178,-0.758,-0.446,9.434,0.31094859301820293,5.325960026621763,0.5729323308270676,0,0.05
1757332304.9410605,-0.456,-0.375,9.501,0.31178336629781905,3.5557781340383943,0.5880701754385964,0,0.05
1757332304.9668753,-0.456,-0.375,9.501,0.31178336629781905,3.5557781340383943,0.5880701754385964,0,0.05
1757332304.9928226,-0.551,-0.373,9.597,0.3129981948829737,3.9660865182110343,0.5928320802005013,0,0.05
1757332305.0193982,-0.551,-0.373,9.597,0.3129981948829737,3.9660865182110343,0.5928320802005013,0,0.05
1757332305.0451355,-0.551,-0.373,9.597,0.3129981948829737,3.9660865182110343,0.5928320802005013,0,0.05
1757332305.0725195,-0.446,-0.61,9.485,0.31379158688530834,4.555049702133624,0.598095238095238,0,0.05
1757332305.1005173,-0.446,-0.61,9.485,0.31379158688530834,4.555049702133624,0.598095238095238,0,0.05
1757332305.1281455,-0.361,-0.505,9.515,0.31431029652240156,3.7327098854304825,0.6023558897243108,0,0.05
1757332305.1554165,-0.541,-0.515,9.653,0.3154721303063077,4.424623500115602,0.6113784461152881,0,0.05
1757332305.1826413,-0.541,-0.515,9.653,0.3154721303063077,4.424623500115602,0.6113784461152881,0,0.05
1757332305.2087784,-0.436,-0.547,9.569,0.3162244535136396,4.18094161024895,0.616641604010025,0,0.05
1757332305.2358172,-0.436,-0.547,9.569,0.3162244535136396,4.18094161024895,0.616641604010025,0,0.05
1757332305.262519,-0.367,-0.29,9.594,0.316756416667445,2.7912061306316738,0.6201002506265664,0,0.05
1757332305.2902808,-0.367,-0.29,9.594,0.316756416667445,2.7912061306316738,0.6201002506265664,0,0.05
1757332305.3183572,-0.215,-0.117,9.811,0.3169387795773815,1.429168482836837,0.627719298245614,0,0.05
1757332305.3455124,-0.215,-0.117,9.811,0.3169387795773815,1.429168482836837,0.627719298245614,0,0.05
1757332305.3727598,-0.147,-0.156,9.825,0.31702399357146455,1.2497994027931207,0.6311278195488721,0,0.05
1757332305.4002502,-0.147,-0.156,9.825,0.31702399357146455,1.2497994027931207,0.6311278195488721,0,0.05
1757332305.4269173,-0.189,-0.054,9.843,0.3171648073163225,1.1440345091945432,0.6332330827067668,0,0.05
1757332305.4539292,-0.189,-0.054,9.843,0.3171648073163225,1.1440345091945432,0.6332330827067668,0,0.05
1757332305.4800327,-0.45,-0.013,9.713,0.3179618923707682,2.653702338335306,0.6463157894736842,0,0.05
1757332305.50617,-0.45,-0.013,9.713,0.3179618923707682,2.653702338335306,0.6463157894736842,0,0.05
1757332305.5337393,-0.411,-0.116,9.646,0.3186252775597065,2.534993776836941,0.6482706766917293,0,0.05
1757332305.56193,-0.411,-0.116,9.646,0.3186252775597065,2.534993776836941,0.6482706766917293,0,0.05
1757332305.588791,-0.463,-0.127,9.687,0.3194651624199421,2.8373420837873526,0.6508771929824563,0,0.05
1757332305.6160905,-0.463,-0.127,9.687,0.3194651624199421,2.8373420837873526,0.6508771929824563,0,0.05
1757332305.6421354,-0.551,-0.382,9.754,0.32065088881835335,3.932187423145046,0.6552882205513784,0,0.05
1757332305.668081,-0.551,-0.382,9.754,0.32065088881835335,3.932187423145046,0.6552882205513784,0,0.05
1757332305.6947553,-0.685,-0.176,9.546,0.32247489049536865,4.23721727630907,0.6620050125313284,0,0.05
1757332305.7217507,-0.685,-0.176,9.546,0.32247489049536865,4.23721727630907,0.6620050125313284,0,0.05
1757332305.7481751,-0.52,-0.494,9.723,0.32352133623611284,4.218928007550437,0.6702756892230577,0,0.05
1757332305.7753308,-0.52,-0.494,9.723,0.32352133623611284,4.218928007550437,0.6702756892230577,0,0.05
1757332305.8019285,-0.499,-0.272,9.868,0.32448198332110834,3.296136555368694,0.671328320802005,0,0.05
1757332305.828392,-0.499,-0.272,9.868,0.32448198332110834,3.296136555368694,0.671328320802005,0,0.05
1757332305.855784,-0.499,-0.272,9.868,0.32448198332110834,3.296136555368694,0.671328320802005,0,0.05
1757332305.8823495,-0.566,-0.295,9.691,0.32571375086108967,3.7681453682508974,0.6746867167919799,0,0.05
1757332305.9082918,-0.566,-0.295,9.691,0.32571375086108967,3.7681453682508974,0.6746867167919799,0,0.05
1757332305.933872,-0.361,-0.208,9.719,0.32621350370577856,2.4546598998160114,0.6849624060150377,0,0.05
1757332305.961269,-0.361,-0.208,9.719,0.32621350370577856,2.4546598998160114,0.6849624060150377,0,0.05
1757332305.9885874,-0.383,-0.122,9.765,0.32677510997626485,2.3571632683298644,0.6860651629072682,0,0.05
1757332306.0160096,-0.209,-0.146,9.773,0.3269421584929053,1.4943175738921894,0.6947869674185464,0,0.05
1757332306.042186,-0.209,-0.146,9.773,0.3269421584929053,1.4943175738921894,0.6947869674185464,0,0.05
1757332306.068151,-0.209,-0.146,9.773,0.3269421584929053,1.4943175738921894,0.6947869674185464,0,0.05
1757332306.0950162,-0.087,-0.037,9.879,0.326971095817352,0.5482978774767594,0.7009022556390977,0,0.05
1757332306.1213052,-0.087,-0.037,9.879,0.326971095817352,0.5482978774767594,0.7009022556390977,0,0.05
1757332306.1508512,-0.209,-0.099,9.805,0.3271380442565493,1.3511337437011646,0.7070175438596492,0,0.05
1757332306.176458,-0.209,-0.099,9.805,0.3271380442565493,1.3511337437011646,0.7070175438596492,0,0.05
1757332306.2016578,-0.276,-0.214,9.841,0.3274289846669045,2.0325032476171847,0.7103759398496241,0,0.05
1757332306.2274647,-0.276,-0.214,9.841,0.3274289846669045,2.0325032476171847,0.7103759398496241,0,0.05
1757332306.2529151,-0.366,-0.164,9.899,0.3279399792644989,2.320101989848216,0.7148872180451127,0,0.05
1757332306.2782116,-0.366,-0.164,9.899,0.3279399792644989,2.320101989848216,0.7148872180451127,0,0.05
1757332306.3045373,-0.395,-0.165,9.865,0.32853415728048735,2.4847068930301233,0.7163408521303258,0,0.05
1757332306.330464,-0.395,-0.165,9.865,0.32853415728048735,2.4847068930301233,0.7163408521303258,0,0.05
1757332306.3574507,-0.4,-0.203,9.901,0.32914235901810024,2.594002576863898,0.716591478696742,0,0.05
1757332306.3841321,-0.4,-0.203,9.901,0.32914235901810024,2.594002576863898,0.716591478696742,0,0.05
1757332306.4115927,-0.404,-0.079,9.861,0.3297616298176609,2.390448226420741,0.7167919799498749,0,0.05
1757332306.4386795,-0.404,-0.079,9.861,0.3297616298176609,2.390448226420741,0.7167919799498749,0,0.05
1757332306.4649959,-0.279,-0.022,9.737,0.33005656333422606,1.6463725328140146,0.7230576441102757,0,0.05
1757332306.4923651,-0.279,-0.022,9.737,0.33005656333422606,1.6463725328140146,0.7230576441102757,0,0.05
1757332306.5193956,-0.163,-0.166,9.814,0.33015717090501007,1.357982586932405,0.7288721804511278,0,0.05
1757332306.5460627,-0.163,-0.166,9.814,0.33015717090501007,1.357982586932405,0.7288721804511278,0,0.05
1757332306.5728998,-0.418,-0.164,9.872,0.33081802777357827,2.604264352383766,0.741654135338346,0,0.05
1757332306.5983865,-0.418,-0.164,9.872,0.33081802777357827,2.604264352383766,0.741654135338346,0,0.05
1757332306.6248863,-0.182,-0.203,9.895,0.3309431635492717,1.5782936038481943,0.7534837092731831,0,0.05
1757332306.6528308,-0.182,-0.203,9.895,0.3309431635492717,1.5782936038481943,0.7534837092731831,0,0.05
1757332306.6801302,-0.284,-0.115,9.996,0.3312476679163191,1.755695832793867,0.7585964912280704,0,0.05
1757332306.7079537,-0.284,-0.115,9.996,0.3312476679163191,1.755695832793867,0.7585964912280704,0,0.05
1757332306.734389,-0.233,0.178,9.832,0.3314524701974628,1.7081779230843477,0.7611528822055139,0,0.05
1757332306.7617822,-0.233,0.178,9.832,0.3314524701974628,1.7081779230843477,0.7611528822055139,0,0.05
1757332306.7879395,-0.438,-0.15,9.501,0.3321751796868634,2.7897519418043837,0.7714285714285716,0,0.05
1757332306.8148203,-0.438,-0.15,9.501,0.3321751796868634,2.7897519418043837,0.7714285714285716,0,0.05
1757332306.8419197,-0.553,-0.294,9.839,0.3333239752853071,3.642208797828145,0.7771929824561405,0,0.05
1757332306.868434,-0.553,-0.294,9.839,0.3333239752853071,3.642208797828145,0.7771929824561405,0,0.05
1757332306.8953786,-0.274,-0.254,9.753,0.33360539938676054,2.1938269269071156,0.7911779448621555,0,0.05
1757332306.9228873,-0.274,-0.254,9.753,0.33360539938676054,2.1938269269071156,0.7911779448621555,0,0.05
1757332306.9499247,-0.476,-0.252,9.547,0.33445328896573884,3.228899344690261,0.8013032581453636,0,0.05
1757332306.9760382,-0.476,-0.252,9.547,0.33445328896573884,3.228899344690261,0.8013032581453636,0,0.05
1757332307.0015259,-0.323,-0.164,9.763,0.3348429855917546,2.1249487004660126,0.8089724310776941,0,0.05
1757332307.028505,-0.323,-0.164,9.763,0.3348429855917546,2.1249487004660126,0.8089724310776941,0,0.05
1757332307.0560522,-0.328,-0.0,9.963,0.33524436609732905,1.8855997707796843,0.8092230576441103,0,0.05
1757332307.0834646,-0.328,-0.0,9.963,0.33524436609732905,1.8855997707796843,0.8092230576441103,0,0.05
1757332307.1094997,-0.395,0.012,9.62,0.33582562067239596,2.3523441643388585,0.8125814536340853,0,0.05
1757332307.1357293,-0.395,0.012,9.62,0.33582562067239596,2.3523441643388585,0.8125814536340853,0,0.05
1757332307.1621318,-0.467,0.011,9.737,0.33663640623081753,2.746641213684543,0.8161904761904762,0,0.05
1757332307.1903014,-0.467,0.011,9.737,0.33663640623081753,2.746641213684543,0.8161904761904762,0,0.05
1757332307.217194,-0.357,0.064,10.001,0.3371093183227067,2.076950247845813,0.8217042606516292,0,0.05
1757332307.2426674,-0.357,0.064,10.001,0.3371093183227067,2.076950247845813,0.8217042606516292,0,0.05
1757332307.2694633,-0.019,-0.185,9.848,0.3371106569066009,1.081865179970659,0.8386466165413534,0,0.05
1757332307.2972984,-0.019,-0.185,9.848,0.3371106569066009,1.081865179970659,0.8386466165413534,0,0.05
1757332307.3246999,-0.48,-0.051,9.894,0.33796389600074145,2.793093049415455,0.861754385964912,0,0.05
1757332307.3521724,-0.48,-0.051,9.894,0.33796389600074145,2.793093049415455,0.861754385964912,0,0.05
1757332307.3799102,-0.162,-0.109,10.127,0.33806094864683794,1.1045692309693906,0.8776942355889723,0,0.05
1757332307.407301,-0.162,-0.109,10.127,0.33806094864683794,1.1045692309693906,0.8776942355889723,0,0.05
1757332307.4336214,-0.256,-0.015,9.863,0.33830318502786816,1.4893609763874036,0.8824060150375942,0,0.05
1757332307.4594522,-0.256,-0.015,9.863,0.33830318502786816,1.4893609763874036,0.8824060150375942,0,0.05
1757332307.4862761,-0.279,-0.085,9.713,0.33859067840092705,1.7199537546062917,0.883558897243108,0,0.05
1757332307.5129483,-0.279,-0.085,9.713,0.33859067840092705,1.7199537546062917,0.883558897243108,0,0.05
1757332307.5395377,-0.61,-0.198,10.176,0.3399616118034505,3.606226353060624,0.9001503759398496,0,0.05
1757332307.566537,-0.61,-0.198,10.176,0.3399616118034505,3.606226353060624,0.9001503759398496,0,0.05
1757332307.5941486,-0.33,-0.107,9.691,0.34036178913033116,2.050170000497033,0.9141854636591479,0,0.05
1757332307.6214774,-0.33,-0.107,9.691,0.34036178913033116,2.050170000497033,0.9141854636591479,0,0.05
1757332307.648792,-0.265,-0.042,9.58,0.3406195972048584,1.6042671083716538,0.9174436090225565,0,0.05
1757332307.6764219,-0.265,-0.042,9.58,0.3406195972048584,1.6042671083716538,0.9174436090225565,0,0.05
1757332307.7019386,-0.58,-0.288,9.967,0.34185188313069154,3.717349687383702,0.9332330827067672,0,0.05
1757332307.7287,-0.58,-0.288,9.967,0.34185188313069154,3.717349687383702,0.9332330827067672,0,0.05
1757332307.7557309,-0.501,0.019,9.918,0.3427684531866957,2.893868705831222,0.9371929824561405,0,0.05
1757332307.7824845,-0.501,0.019,9.918,0.3427684531866957,2.893868705831222,0.9371929824561405,0,0.05
1757332307.8098269,-0.093,0.047,9.676,0.3427999927071178,0.616999629668772,0.9576441102756894,0,0.05
1757332307.8382797,-0.093,0.047,9.676,0.3427999927071178,0.616999629668772,0.9576441102756894,0,0.05
1757332307.8646574,-0.193,0.121,9.829,0.34293579209525504,1.327631034413603,0.9626566416040103,0,0.05
1757332307.892371,-0.193,0.121,9.829,0.34293579209525504,1.327631034413603,0.9626566416040103,0,0.05
1757332307.9198673,-0.142,0.108,9.85,0.3430092819443812,1.0376325660421901,0.9652130325814536,0,0.05
1757332307.947017,-0.142,0.108,9.85,0.3430092819443812,1.0376325660421901,0.9652130325814536,0,0.05
1757332307.9735096,-0.258,0.111,9.661,0.3432517698424875,1.6652347202946611,0.9710275689223059,0,0.05
1757332308.0000448,-0.258,0.111,9.661,0.3432517698424875,1.6652347202946611,0.9710275689223059,0,0.05
1757332308.0271394,-0.338,0.19,9.792,0.3436675537492592,2.267605189729708,0.9750375939849625,0,0.05
1757332308.0546947,-0.338,0.19,9.792,0.3436675537492592,2.267605189729708,0.9750375939849625,0,0.05
1757332308.0820358,-0.165,-0.004,9.783,0.3437665632373224,0.9665423833882753,0.9837092731829575,0,0.05
1757332308.1094656,-0.165,-0.004,9.783,0.3437665632373224,0.9665423833882753,0.9837092731829575,0,0.05
1757332308.1354704,-0.315,0.101,9.774,0.34412717489323624,1.9384063385899464,0.9912280701754386,0,0.05
1757332308.1631339,-0.315,0.101,9.774,0.34412717489323624,1.9384063385899464,0.9912280701754386,0,0.05
1757332308.1900024,-0.588,-0.104,9.782,0.3453807645193924,3.493194092103516,1.004912280701754,0,0.05
1757332308.216955,-0.588,-0.104,9.782,0.3453807645193924,3.493194092103516,1.004912280701754,0,0.05
1757332308.2441206,-0.379,-0.066,9.808,0.34590023850815715,2.2461877878586334,1.0153884711779446,0,0.05
1757332308.271625,-0.379,-0.066,9.808,0.34590023850815715,2.2461877878586334,1.0153884711779446,0,0.05
1757332308.2989194,-0.274,-0.153,9.901,0.3461714387409799,1.8154456124953335,1.020651629072682,0,0.05
1757332308.3261352,-0.274,-0.153,9.901,0.3461714387409799,1.8154456124953335,1.020651629072682,0,0.05
1757332308.3541255,-0.356,-0.121,9.679,0.34662877116592616,2.2246577232319815,1.0247619047619048,0,0.05
1757332308.381493,-0.356,-0.121,9.679,0.34662877116592616,2.2246577232319815,1.0247619047619048,0,0.05
1757332308.408294,-0.279,0.001,9.724,0.3469093649643953,1.6434842333647244,1.0286215538847119,0,0.05
1757332308.435387,-0.279,0.001,9.724,0.3469093649643953,1.6434842333647244,1.0286215538847119,0,0.05
1757332308.4623337,-0.059,0.014,9.659,0.34692190763916886,0.3596926602736638,1.0396491228070177,0,0.05
1757332308.4890816,-0.059,0.014,9.659,0.34692190763916886,0.3596926602736638,1.0396491228070177,0,0.05
1757332308.515837,-0.044,0.096,9.651,0.3469288832023071,0.6269160162041607,1.0404010025062658,0,0.05
1757332308.543404,-0.044,0.096,9.651,0.3469288832023071,0.6269160162041607,1.0404010025062658,0,0.05
1757332308.570699,-0.252,0.09,9.756,0.34715761550051005,1.57112453591999,1.050827067669173,0,0.05
1757332308.5963693,-0.252,0.09,9.756,0.34715761550051005,1.57112453591999,1.050827067669173,0,0.05
1757332308.6225033,-0.203,0.035,9.634,0.34730596381288936,1.2249174001977003,1.0532832080200505,0,0.05
1757332308.6482165,-0.203,0.035,9.634,0.34730596381288936,1.2249174001977003,1.0532832080200505,0,0.05
1757332308.6755905,-0.293,-0.079,9.579,0.3476148083727159,1.8145271425420146,1.057794486215539,0,0.05
1757332308.7026727,-0.293,-0.079,9.579,0.3476148083727159,1.8145271425420146,1.057794486215539,0,0.05
1757332308.7295876,-0.444,-0.199,9.73,0.3483229751250985,2.862735726105381,1.0653634085213033,0,0.05
1757332308.7569768,-0.444,-0.199,9.73,0.3483229751250985,2.862735726105381,1.0653634085213033,0,0.05
1757332308.784655,-0.359,-0.131,9.726,0.34878517385347674,2.2501108051634766,1.069624060150376,0,0.05
1757332308.8124793,-0.359,-0.131,9.726,0.34878517385347674,2.2501108051634766,1.069624060150376,0,0.05
1757332308.8397133,-0.349,-0.076,9.655,0.3492214197325244,2.1186467111765475,1.070125313283208,0,0.05
1757332308.8666055,-0.349,-0.076,9.655,0.3492214197325244,2.1186467111765475,1.070125313283208,0,0.05
1757332308.8936942,-0.45,-0.162,9.796,0.3499454957561249,2.795142741085705,1.0751879699248121,0,0.05
1757332308.9208207,-0.45,-0.162,9.796,0.3499454957561249,2.795142741085705,1.0751879699248121,0,0.05
1757332308.9471226,-0.347,-0.033,9.791,0.3503753308953129,2.0389039701378966,1.0803508771929824,0,0.05
1757332308.9745457,-0.347,-0.033,9.791,0.3503753308953129,2.0389039701378966,1.0803508771929824,0,0.05
1757332309.0013359,-0.466,-0.047,9.782,0.35114920261905763,2.741240224601738,1.0863157894736841,0,0.05
1757332309.0272212,-0.466,-0.047,9.782,0.35114920261905763,2.741240224601738,1.0863157894736841,0,0.05
1757332309.0549266,-0.151,0.126,9.809,0.35123035888146115,1.1485928430133074,1.1021052631578945,0,0.05
1757332309.0826082,-0.151,0.126,9.809,0.35123035888146115,1.1485928430133074,1.1021052631578945,0,0.05
1757332309.1101646,-0.208,0.143,9.798,0.3513842981693974,1.475717325255013,1.1049624060150376,0,0.05
1757332309.137547,-0.208,0.143,9.798,0.3513842981693974,1.475717325255013,1.1049624060150376,0,0.05
1757332309.1648457,-0.163,0.198,9.77,0.35147880092546124,1.503668742821311,1.107218045112782,0,0.05
1757332309.1924267,-0.163,0.198,9.77,0.35147880092546124,1.503668742821311,1.107218045112782,0,0.05
1757332309.2195833,-0.153,0.004,9.768,0.3515620428885917,0.8976793686034875,1.107719298245614,0,0.05
1757332309.2462578,-0.153,0.004,9.768,0.3515620428885917,0.8976793686034875,1.107719298245614,0,0.05
1757332309.2723331,-0.351,-0.03,9.73,0.3519998188919989,2.073517842884076,1.117644110275689,0,0.05
1757332309.300037,-0.351,-0.03,9.73,0.3519998188919989,2.073517842884076,1.117644110275689,0,0.05
1757332309.327854,-0.348,-0.008,9.685,0.3524296135400656,2.058401441434455,1.1177944862155385,0,0.05
1757332309.3550448,-0.348,-0.008,9.685,0.3524296135400656,2.058401441434455,1.1177944862155385,0,0.05
1757332309.3825462,-0.302,-0.025,9.785,0.3527529482513222,1.7738338793054504,1.1201002506265663,0,0.05
1757332309.4099717,-0.302,-0.025,9.785,0.3527529482513222,1.7738338793054504,1.1201002506265663,0,0.05
1757332309.436341,-0.263,0.025,9.766,0.35299796741624445,1.5495623424405829,1.1220551378446113,0,0.05
1757332309.46284,-0.263,0.025,9.766,0.35299796741624445,1.5495623424405829,1.1220551378446113,0,0.05
1757332309.4907782,-0.353,-0.008,9.725,0.35343894451517366,2.0793543349303745,1.1265664160401,0,0.05
1757332309.5184882,-0.353,-0.008,9.725,0.35343894451517366,2.0793543349303745,1.1265664160401,0,0.05
1757332309.5457842,-0.328,-0.016,9.845,0.35381922997485593,1.91045081127123,1.1278195488721803,0,0.05
1757332309.5732331,-0.328,-0.016,9.845,0.35381922997485593,1.91045081127123,1.1278195488721803,0,0.05
1757332309.6007786,-0.226,-0.02,9.84,0.35399962923709394,1.320848433834716,1.1329323308270678,0,0.05
1757332309.6269908,-0.226,-0.02,9.84,0.35399962923709394,1.320848433834716,1.1329323308270678,0,0.05
1757332309.652943,-0.379,0.026,9.745,0.35450647384779876,2.232439421138996,1.1406015037593986,0,0.05
1757332309.6786559,-0.379,0.026,9.745,0.35450647384779876,2.232439421138996,1.1406015037593986,0,0.05
1757332309.7040982,-0.093,-0.154,9.845,0.35453696915836574,1.0468787503490693,1.154937343358396,0,0.05
1757332309.7295454,-0.093,-0.154,9.845,0.35453696915836574,1.0468787503490693,1.154937343358396,0,0.05
1757332309.7566252,-0.422,-0.074,9.866,0.3551642894492632,2.486553289083031,1.1714285714285713,0,0.05
1757332309.7838314,-0.422,-0.074,9.866,0.3551642894492632,2.486553289083031,1.1714285714285713,0,0.05
1757332309.81085,-0.355,-0.112,9.782,0.35560755756873336,2.179307467263181,1.1747869674185467,0,0.05
1757332309.8367686,-0.355,-0.112,9.782,0.35560755756873336,2.179307467263181,1.1747869674185467,0,0.05
1757332309.8627388,-0.365,-0.208,9.737,0.35607555026988297,2.47051228797307,1.1752882205513784,0,0.05
1757332309.8897614,-0.365,-0.208,9.737,0.35607555026988297,2.47051228797307,1.1752882205513784,0,0.05
1757332309.9165957,-0.566,-0.274,9.856,0.35719838675447574,3.650644842956205,1.1853634085213034,0,0.05
1757332309.943778,-0.566,-0.274,9.856,0.35719838675447574,3.650644842956205,1.1853634085213034,0,0.05
1757332309.9708471,-0.415,-0.363,9.757,0.357800572945321,3.2342769232888338,1.1929323308270674,0,0.05
1757332309.9989612,-0.415,-0.363,9.757,0.357800572945321,3.2342769232888338,1.1929323308270674,0,0.05
1757332310.026487,-0.306,-0.334,9.75,0.3581275471113609,2.6600270107199613,1.1983959899749372,0,0.05
1757332310.0541403,-0.306,-0.334,9.75,0.3581275471113609,2.6600270107199613,1.1983959899749372,0,0.05
1757332310.0815022,-0.441,-0.383,9.807,0.35880571692769886,3.4084673449913003,1.20516290726817,0,0.05
1757332310.109011,-0.441,-0.383,9.807,0.35880571692769886,3.4084673449913003,1.20516290726817,0,0.05
1757332310.1364725,-0.338,-0.013,9.778,0.359203497338208,1.9812402384899765,1.2103258145363407,0,0.05
1757332310.1629999,-0.338,-0.013,9.778,0.359203497338208,1.9812402384899765,1.2103258145363407,0,0.05
1757332310.190538,0.074,-0.021,9.791,0.35922255288330657,0.45012945366420226,1.2309774436090224,0,0.05
1757332310.2180343,0.074,-0.021,9.791,0.35922255288330657,0.45012945366420226,1.2309774436090224,0,0.05
1757332310.2442422,-0.518,0.26,9.875,0.3601550395315884,3.3589852623023773,1.2606516290726815,0,0.05
1757332310.271408,-0.518,0.26,9.875,0.3601550395315884,3.3589852623023773,1.2606516290726815,0,0.05
1757332310.299078,-0.159,-0.125,9.821,0.3602427723077869,1.179774605656443,1.278646616541353,0,0.05
1757332310.3271186,-0.159,-0.125,9.821,0.3602427723077869,1.179774605656443,1.278646616541353,0,0.05
1757332310.3543909,-0.299,-0.152,9.827,0.3605528498015235,1.954875126979302,1.2856641604010026,0,0.05
1757332310.3817549,-0.299,-0.152,9.827,0.3605528498015235,1.954875126979302,1.2856641604010026,0,0.05
1757332310.4082916,-0.196,-0.157,9.818,0.3606860095706514,1.4652074541173574,1.2908270676691729,0,0.05
1757332310.435183,-0.196,-0.157,9.818,0.3606860095706514,1.4652074541173574,1.2908270676691729,0,0.05
1757332310.4626195,-0.239,-0.167,9.805,0.3608839148535163,1.7032644548499807,1.292982456140351,0,0.05
1757332310.489853,-0.239,-0.167,9.805,0.3608839148535163,1.7032644548499807,1.292982456140351,0,0.05
1757332310.5175397,-1.091,-0.076,9.688,0.3649834277059713,6.440650904969838,1.3356892230576443,0,0.05
1757332310.545177,-1.091,-0.076,9.688,0.3649834277059713,6.440650904969838,1.3356892230576443,0,0.05
1757332310.5713274,-0.577,-0.296,9.67,0.366121871785885,3.836653674556462,1.361453634085213,0,0.05
1757332310.5978732,-0.577,-0.296,9.67,0.366121871785885,3.836653674556462,1.361453634085213,0,0.05
1757332310.6240718,-0.697,-0.207,9.802,0.36777676313220226,4.242293287100047,1.367468671679198,0,0.05
1757332310.6509252,-0.697,-0.207,9.802,0.36777676313220226,4.242293287100047,1.367468671679198,0,0.05
1757332310.6784027,-0.593,-0.244,9.691,0.3689700123316257,3.785646467893418,1.3726817042606514,0,0.05
1757332310.7045767,-0.593,-0.244,9.691,0.3689700123316257,3.785646467893418,1.3726817042606514,0,0.05
1757332310.7315717,-0.645,-0.261,9.664,0.3703767440053438,4.118177951497756,1.3752882205513786,0,0.05
1757332310.7600284,-0.645,-0.261,9.664,0.3703767440053438,4.118177951497756,1.3752882205513786,0,0.05
1757332310.7873938,-0.34,-0.416,9.847,0.37076668202523266,3.123047467674085,1.390576441102757,0,0.05
1757332310.8145635,-0.34,-0.416,9.847,0.37076668202523266,3.123047467674085,1.390576441102757,0,0.05
1757332310.8409579,-0.558,-0.461,9.712,0.37181493044255226,4.262160714607675,1.4015037593984963,0,0.05
1757332310.867344,-0.558,-0.461,9.712,0.37181493044255226,4.262160714607675,1.4015037593984963,0,0.05
1757332310.894882,-0.489,0.095,9.733,0.3726179611881317,2.929886325372581,1.4049624060150376,0,0.05
1757332310.9216056,-0.489,0.095,9.733,0.3726179611881317,2.929886325372581,1.4049624060150376,0,0.05
1757332310.9478931,0.019,0.367,9.811,0.3726191722120589,2.145130236284581,1.4304260651629073,0,0.05
1757332310.9750054,0.019,0.367,9.811,0.3726191722120589,2.145130236284581,1.4304260651629073,0,0.05
1757332311.0028665,0.019,0.367,9.811,0.3726191722120589,2.145130236284581,1.4304260651629073,0,0.05
1757332311.0308416,-0.34,0.166,9.705,0.37300676602442484,2.232605473685961,1.4484210526315788,0,0.05
1757332311.0585735,-0.465,-0.012,9.711,0.37373066505171876,2.742359459685422,1.4546867167919801,0,0.05
1757332311.086492,-0.465,-0.012,9.711,0.37373066505171876,2.742359459685422,1.4546867167919801,0,0.05
1757332311.1135619,-0.253,-0.02,9.797,0.3739446917660418,1.483903588787892,1.4653132832080202,0,0.05
1757332311.1399906,-0.253,-0.02,9.797,0.3739446917660418,1.483903588787892,1.4653132832080202,0,0.05
1757332311.166024,-0.497,-0.094,9.708,0.37476946914069725,2.9825573565404206,1.477543859649123,0,0.05
1757332311.1935449,-0.497,-0.094,9.708,0.37476946914069725,2.9825573565404206,1.477543859649123,0,0.05
1757332311.2198472,-0.317,-0.183,9.737,0.37510448877612756,2.1528301190658086,1.4865664160401004,0,0.05
1757332311.2473793,-0.317,-0.183,9.737,0.37510448877612756,2.1528301190658086,1.4865664160401004,0,0.05
1757332311.275022,-0.272,-0.023,9.841,0.37535095244317684,1.588868956528709,1.4888220551378448,0,0.05
1757332311.3022113,-0.272,-0.023,9.841,0.37535095244317684,1.588868956528709,1.4888220551378448,0,0.05
1757332311.3284535,-0.479,-0.043,9.715,0.37611426455267555,2.83402627232459,1.4991979949874688,0,0.05
1757332311.354929,-0.479,-0.043,9.715,0.37611426455267555,2.83402627232459,1.4991979949874688,0,0.05
1757332311.3807793,-0.455,-0.11,9.774,0.3768016752882078,2.7419816030960598,1.5004010025062655,0,0.05
1757332311.4067583,-0.455,-0.11,9.774,0.3768016752882078,2.7419816030960598,1.5004010025062655,0,0.05
1757332311.433006,-0.545,-0.201,9.901,0.37778573954028494,3.357648998006128,1.5049122807017545,0,0.05
1757332311.4609652,-0.545,-0.201,9.901,0.37778573954028494,3.357648998006128,1.5049122807017545,0,0.05
1757332311.4893804,-0.379,-0.143,9.734,0.3782607136618869,2.382987867573755,1.5132330827067668,0,0.05
1757332311.518811,-0.379,-0.143,9.734,0.3782607136618869,2.382987867573755,1.5132330827067668,0,0.05
1757332311.5466611,-0.356,-0.274,9.826,0.37867929373019593,2.6176829734337135,1.5143859649122808,0,0.05
1757332311.5732424,-0.356,-0.274,9.826,0.37867929373019593,2.6176829734337135,1.5143859649122808,0,0.05
1757332311.600618,-0.312,-0.088,9.845,0.37900048482818594,1.8859344360673043,1.5165914786967416,0,0.05
1757332311.6275425,-0.312,-0.088,9.845,0.37900048482818594,1.8859344360673043,1.5165914786967416,0,0.05
1757332311.6537342,-0.639,-0.161,9.73,0.38034480409228677,3.874476397501872,1.532982456140351,0,0.05
1757332311.6798096,-0.639,-0.161,9.73,0.38034480409228677,3.874476397501872,1.532982456140351,0,0.05
1757332311.7057128,-0.522,-0.205,9.706,0.3812392687014285,3.3068636131583133,1.5388471177944862,0,0.05
1757332311.7329717,-0.522,-0.205,9.706,0.3812392687014285,3.3068636131583133,1.5388471177944862,0,0.05
1757332311.7608109,-0.415,-0.368,9.868,0.38180353914022325,3.2170996113016197,1.5442105263157893,0,0.05
1757332311.7880256,-0.415,-0.368,9.868,0.38180353914022325,3.2170996113016197,1.5442105263157893,0,0.05
1757332311.8158617,-0.329,-0.087,9.772,0.3821577488420194,1.9945123527038304,1.548521303258145,0,0.05
1757332311.8435416,-0.329,-0.087,9.772,0.3821577488420194,1.9945123527038304,1.548521303258145,0,0.05
1757332311.8709834,-0.3,-0.137,9.697,0.382452016598161,1.9479169441489603,1.5499749373433582,0,0.05
1757332311.8979554,-0.3,-0.137,9.697,0.382452016598161,1.9479169441489603,1.5499749373433582,0,0.05
1757332311.9247022,-0.304,-0.163,9.961,0.3827539483793733,1.9833177106122593,1.5501754385964912,0,0.05
1757332311.9524252,-0.304,-0.163,9.961,0.3827539483793733,1.9833177106122593,1.5501754385964912,0,0.05
1757332311.9789667,-0.447,-0.111,9.853,0.38340593044448334,2.6763269884619993,1.55734335839599,0,0.05
1757332312.005721,-0.447,-0.111,9.853,0.38340593044448334,2.6763269884619993,1.55734335839599,0,0.05
1757332312.0341032,-0.361,-0.319,9.8,0.3838305746029099,2.8142833770860087,1.5616541353383457,0,0.05
1757332312.060978,-0.361,-0.319,9.8,0.3838305746029099,2.8142833770860087,1.5616541353383457,0,0.05
1757332312.0886374,-0.314,-0.301,9.838,0.3841515326013942,2.531571462092201,1.5640100250626565,0,0.05
1757332312.1165454,-0.314,-0.301,9.838,0.3841515326013942,2.531571462092201,1.5640100250626565,0,0.05
1757332312.1427488,-0.304,-0.156,9.767,0.38445212965985764,2.0036253925244116,1.5645112781954884,0,0.05
1757332312.1691008,-0.304,-0.156,9.767,0.38445212965985764,2.0036253925244116,1.5645112781954884,0,0.05
1757332312.1968687,-0.218,0.03,9.757,0.3846066172077647,1.2920015597097936,1.5688220551378447,0,0.05
1757332312.2246177,-0.218,0.03,9.757,0.3846066172077647,1.2920015597097936,1.5688220551378447,0,0.05
1757332312.2529812,-0.197,0.11,9.746,0.38473272865718094,1.326221110717938,1.5698746867167919,0,0.05
1757332312.2808704,-0.28,0.09,9.629,0.384987366675843,1.7495022167400214,1.5740350877192983,0,0.05
1757332312.3077652,-0.28,0.09,9.629,0.384987366675843,1.7495022167400214,1.5740350877192983,0,0.05
1757332312.3336887,-0.28,0.09,9.629,0.384987366675843,1.7495022167400214,1.5740350877192983,0,0.05
1757332312.360289,-0.286,0.116,9.631,0.3852528552781926,1.8354379507126715,1.5743358395989977,0,0.05
1757332312.3894954,-0.355,-0.141,9.738,0.3856615420287587,2.2462952931683033,1.577794486215539,0,0.05
1757332312.4169683,-0.355,-0.141,9.738,0.3856615420287587,2.2462952931683033,1.577794486215539,0,0.05
1757332312.4426203,-0.355,-0.141,9.738,0.3856615420287587,2.2462952931683033,1.577794486215539,0,0.05
1757332312.467926,-0.338,-0.061,9.599,0.3860316502568151,2.049217195961377,1.5786466165413537,0,0.05
1757332312.4958968,-0.338,-0.061,9.599,0.3860316502568151,2.049217195961377,1.5786466165413537,0,0.05
1757332312.5238264,-0.449,0.026,9.731,0.3866838986821148,2.6462413928046,1.5842105263157895,0,0.05
1757332312.551751,-0.26,0.049,9.699,0.3869023617141668,1.5625722440000391,1.5936842105263158,0,0.05
1757332312.5785563,-0.26,0.049,9.699,0.3869023617141668,1.5625722440000391,1.5936842105263158,0,0.05
1757332312.60564,-0.26,0.049,9.699,0.3869023617141668,1.5625722440000391,1.5936842105263158,0,0.05
1757332312.6323395,-0.212,0.304,9.576,0.38704753906981504,2.216419328916296,1.5960902255639096,0,0.05
1757332312.6592562,-0.293,0.314,9.593,0.3873246958302556,2.5633725775193774,1.6001503759398497,0,0.05
1757332312.68585,-0.293,0.314,9.593,0.3873246958302556,2.5633725775193774,1.6001503759398497,0,0.05
1757332312.7129471,-0.353,0.11,9.824,0.3877266337253607,2.1554000890257603,1.6031578947368423,0,0.05
1757332312.7388911,-0.353,0.11,9.824,0.3877266337253607,2.1554000890257603,1.6031578947368423,0,0.05
1757332312.766121,-0.493,0.344,9.616,0.3885094143003487,3.5772428074627607,1.6101754385964913,0,0.05
1757332312.7942915,-0.493,0.344,9.616,0.3885094143003487,3.5772428074627607,1.6101754385964913,0,0.05
1757332312.8217077,-0.463,0.368,9.85,0.38919851939595046,3.4361400405728846,1.6116791979949874,0,0.05
1757332312.848775,-0.463,0.368,9.85,0.38919851939595046,3.4361400405728846,1.6116791979949874,0,0.05
1757332312.8744674,-0.463,0.368,9.85,0.38919851939595046,3.4361400405728846,1.6116791979949874,0,0.05
1757332312.900932,-0.307,0.361,9.784,0.38950110397789633,2.7729548063492016,1.6194987468671678,0,0.05
1757332312.9280214,-0.307,0.361,9.784,0.38950110397789633,2.7729548063492016,1.6194987468671678,0,0.05
1757332312.9556794,-0.332,0.386,9.794,0.38985467805324586,2.97581570847761,1.6207518796992484,0,0.05
1757332312.9827857,-0.332,0.386,9.794,0.38985467805324586,2.97581570847761,1.6207518796992484,0,0.05
1757332313.0106032,-0.376,0.352,9.709,0.3903077119402075,3.0366412276279653,1.6229573934837094,0,0.05
1757332313.0383816,-0.376,0.352,9.709,0.3903077119402075,3.0366412276279653,1.6229573934837094,0,0.05
1757332313.0660524,-0.496,0.107,9.855,0.3910948094771906,2.9474183032490164,1.6289724310776943,0,0.05
1757332313.0931454,-0.496,0.107,9.855,0.3910948094771906,2.9474183032490164,1.6289724310776943,0,0.05
1757332313.120284,-0.412,-0.021,9.752,0.39163696199414066,2.4223155771419456,1.6331829573934837,0,0.05
1757332313.147909,-0.412,-0.021,9.752,0.39163696199414066,2.4223155771419456,1.6331829573934837,0,0.05
1757332313.1744888,-0.393,0.028,9.727,0.39212961186322054,2.3195214685082055,1.6341353383458646,0,0.05
1757332313.200665,-0.348,-0.065,9.77,0.39251546784808367,2.0752187789599414,1.636390977443609,0,0.05
1757332313.2283905,-0.348,-0.065,9.77,0.39251546784808367,2.0752187789599414,1.636390977443609,0,0.05
1757332313.2559397,-0.39,-0.091,9.634,0.3929995451651312,2.3803591291624366,1.6384962406015036,0,0.05
1757332313.283533,-0.39,-0.091,9.634,0.3929995451651312,2.3803591291624366,1.6384962406015036,0,0.05
1757332313.3115363,-0.484,-0.059,9.689,0.3937439301119447,2.880884581392664,1.6432080200501253,0,0.05
1757332313.3389714,-0.484,-0.059,9.689,0.3937439301119447,2.880884581392664,1.6432080200501253,0,0.05
1757332313.3656776,-0.273,-0.008,9.76,0.3939804627135716,1.6029077540083483,1.6537844611528822,0,0.05
1757332313.392997,-0.273,-0.008,9.76,0.3939804627135716,1.6029077540083483,1.6537844611528822,0,0.05
1757332313.419268,-0.396,-0.204,9.675,0.39447768631444796,2.63615481721372,1.659949874686717,0,0.05
1757332313.4475708,-0.396,-0.204,9.675,0.39447768631444796,2.63615481721372,1.659949874686717,0,0.05
1757332313.4746323,-0.349,-0.378,9.522,0.3948634542471613,3.0926946820971555,1.6623057644110275,0,0.05
1757332313.5013828,-0.349,-0.378,9.522,0.3948634542471613,3.0926946820971555,1.6623057644110275,0,0.05
1757332313.5287485,-0.434,-0.042,9.552,0.3954592741357826,2.613610367615193,1.6665664160401001,0,0.05
1757332313.555423,-0.434,-0.042,9.552,0.3954592741357826,2.613610367615193,1.6665664160401001,0,0.05
1757332313.5830817,-0.296,-0.131,9.569,0.39573612104532485,1.9374187031202417,1.6734837092731827,0,0.05
1757332313.6106334,-0.296,-0.131,9.569,0.39573612104532485,1.9374187031202417,1.6734837092731827,0,0.05
1757332313.636699,-0.433,-0.156,9.546,0.3963278945519732,2.760283178817774,1.6803508771929823,0,0.05
1757332313.6628618,-0.433,-0.156,9.546,0.3963278945519732,2.760283178817774,1.6803508771929823,0,0.05
1757332313.6892228,-0.433,-0.156,9.546,0.3963278945519732,2.760283178817774,1.6803508771929823,0,0.05
1757332313.7166371,-0.396,-0.052,9.603,0.39682217679963405,2.3816231561361416,1.682205513784461,0,0.05
1757332313.7440164,-0.468,-0.146,9.68,0.39751150926734186,2.8992749557338624,1.6858145363408519,0,0.05
1757332313.7721982,-0.468,-0.146,9.68,0.39751150926734186,2.8992749557338624,1.6858145363408519,0,0.05
1757332313.7996833,-0.419,-0.292,9.478,0.3980631890793219,3.084329339701029,1.688270676691729,0,0.05
1757332313.8275352,-0.419,-0.292,9.478,0.3980631890793219,3.084329339701029,1.688270676691729,0,0.05
1757332313.8551273,-0.472,-0.139,9.539,0.39876216282390686,2.9528196933247934,1.6909273182957396,0,0.05
1757332313.8818972,-0.472,-0.139,9.539,0.39876216282390686,2.9528196933247934,1.6909273182957396,0,0.05
1757332313.9084656,-0.409,-0.271,9.774,0.3992861943518709,2.8737157238705984,1.694085213032581,0,0.05
1757332313.9350898,-0.409,-0.271,9.774,0.3992861943518709,2.8737157238705984,1.694085213032581,0,0.05
1757332313.9614599,-0.409,-0.271,9.774,0.3992861943518709,2.8737157238705984,1.694085213032581,0,0.05
1757332313.9892788,-0.408,-0.188,9.504,0.3998069846813585,2.7062148354366204,1.6941353383458648,0,0.05
1757332314.0172637,-0.408,-0.188,9.504,0.3998069846813585,2.7062148354366204,1.6941353383458648,0,0.05
1757332314.044272,-0.408,-0.188,9.504,0.3998069846813585,2.7062148354366204,1.6941353383458648,0,0.05
1757332314.0721662,-0.408,-0.188,9.504,0.3998069846813585,2.7062148354366204,1.6941353383458648,0,0.05
1757332314.1002493,-0.408,-0.188,9.504,0.3998069846813585,2.7062148354366204,1.6941353383458648,0,0.05
1757332314.1278627,-0.408,-0.188,9.504,0.3998069846813585,2.7062148354366204,1.6941353383458648,0,0.05
1757332314.155132,-0.363,-0.169,9.813,0.40021874956078707,2.336616137859002,1.696390977443609,0,0.05
1757332314.1825564,-0.473,-0.233,9.944,0.4009169115914169,3.035228916674822,1.7019047619047618,0,0.05
1757332314.2102828,-0.425,-0.576,9.703,0.401479678813262,4.2192528820429684,1.7043107769423558,0,0.05
1757332314.23679,-0.664,-0.365,9.659,0.40285006205783314,4.485426083927989,1.7162907268170424,0,0.05
1757332314.2634053,-0.664,-0.365,9.659,0.40285006205783314,4.485426083927989,1.7162907268170424,0,0.05
1757332314.2915792,-0.664,-0.365,9.659,0.40285006205783314,4.485426083927989,1.7162907268170424,0,0.05
1757332314.319753,-0.664,-0.365,9.659,0.40285006205783314,4.485426083927989,1.7162907268170424,0,0.05
1757332314.3476133,-0.289,-0.301,9.776,0.40310913534674453,2.444132353072771,1.7350877192982452,0,0.05
1757332314.3761108,-0.362,-0.267,9.72,0.4035152847167006,2.649598015793961,1.7387468671679196,0,0.05
1757332314.4045005,-0.505,-0.078,9.695,0.4043045232247594,3.017060867542992,1.7459147869674183,0,0.05
1757332314.4336755,-0.25,-0.188,9.734,0.4044977101294889,1.8405557048104924,1.7586967418546364,0,0.05
1757332314.4617755,-0.33,-0.194,9.691,0.40483409873675413,2.2620410479897934,1.7627067669172933,0,0.05
1757332314.4895496,-0.33,-0.194,9.691,0.40483409873675413,2.2620410479897934,1.7627067669172933,0,0.05
1757332314.5151634,-0.33,-0.194,9.691,0.40483409873675413,2.2620410479897934,1.7627067669172933,0,0.05
1757332314.5421593,-0.395,-0.026,9.717,0.40531556841552485,2.332846870551207,1.7659649122807017,0,0.05
1757332314.570241,-0.45,-0.249,9.86,0.4059396014187332,2.98583624085791,1.7687218045112783,0,0.05
1757332314.5974283,-0.45,-0.249,9.86,0.4059396014187332,2.98583624085791,1.7687218045112783,0,0.05
1757332314.624282,-0.483,-0.332,9.882,0.40665732810315863,3.3942272285656325,1.7703759398496246,0,0.05
1757332314.6508675,-0.483,-0.332,9.882,0.40665732810315863,3.3942272285656325,1.7703759398496246,0,0.05
1757332314.6773856,-0.514,-0.504,9.818,0.4074686153558333,4.19350229406152,1.7719298245614041,0,0.05
1757332314.7032907,-0.514,-0.504,9.818,0.4074686153558333,4.19350229406152,1.7719298245614041,0,0.05
1757332314.7292247,-0.42,-0.455,9.722,0.40800940246518835,3.6443576912526363,1.7766416040100252,0,0.05
1757332314.75547,-0.42,-0.455,9.722,0.40800940246518835,3.6443576912526363,1.7766416040100252,0,0.05
1757332314.7818966,-0.735,-0.405,9.855,0.4096611221485388,4.867242536204963,1.792431077694236,0,0.05
1757332314.8084466,-0.735,-0.405,9.855,0.4096611221485388,4.867242536204963,1.792431077694236,0,0.05
1757332314.8353581,-0.131,-0.678,9.71,0.4097134822043326,4.067817550494944,1.8227067669172934,0,0.05
1757332314.8628426,-0.131,-0.678,9.71,0.4097134822043326,4.067817550494944,1.8227067669172934,0,0.05
1757332314.8909705,-0.546,-0.517,9.555,0.4106220007500816,4.4996386388878795,1.8435087719298247,0,0.1
1757332314.9175014,-0.546,-0.517,9.555,0.4106220007500816,4.4996386388878795,1.8435087719298247,0,0.1
1757332314.9440293,-0.307,-0.427,9.715,0.4109088098349803,3.0985960097281615,1.855488721804511,0,0.1
1757332314.970563,-0.307,-0.427,9.715,0.4109088098349803,3.0985960097281615,1.855488721804511,0,0.1
1757332314.9975164,-0.347,-0.404,9.68,0.41127493541425547,3.1490671308100397,1.8574937343358398,0,0.1
1757332315.023742,-0.347,-0.404,9.68,0.41127493541425547,3.1490671308100397,1.8574937343358398,0,0.1
1757332315.0496283,-0.411,-0.411,9.564,0.411788021923902,3.47781161875546,1.8607017543859647,0,0.1
1757332315.0773635,-0.411,-0.411,9.564,0.411788021923902,3.47781161875546,1.8607017543859647,0,0.1
1757332315.1046665,-0.486,-0.305,9.75,0.41250438179490895,3.3679154638843865,1.864461152882205,0,0.1
1757332315.1321287,-0.486,-0.305,9.75,0.41250438179490895,3.3679154638843865,1.864461152882205,0,0.1
1757332315.1600091,-0.454,-0.273,9.651,0.4131284969594811,3.1419071735242596,1.8660651629072678,0,0.1
1757332315.1870174,-0.454,-0.273,9.651,0.4131284969594811,3.1419071735242596,1.8660651629072678,0,0.1
1757332315.2134645,-0.511,-0.191,9.587,0.4139178149101582,3.256789900815118,1.8689223057644109,0,0.1
1757332315.2395985,-0.511,-0.191,9.587,0.4139178149101582,3.256789900815118,1.8689223057644109,0,0.1
1757332315.265833,-0.304,-0.262,9.623,0.4141968101036028,2.388110392692229,1.8792982456140346,0,0.1
1757332315.2947223,-0.304,-0.262,9.623,0.4141968101036028,2.388110392692229,1.8792982456140346,0,0.1
1757332315.3228726,-0.256,-0.321,9.764,0.4143945432797107,2.4078988435084967,1.8817042606516288,0,0.1
1757332315.350791,-0.256,-0.321,9.764,0.4143945432797107,2.4078988435084967,1.8817042606516288,0,0.1
1757332315.3784895,-0.202,-0.417,9.606,0.41451760819053274,2.761547471012825,1.884411027568922,0,0.1
1757332315.4060733,-0.202,-0.417,9.606,0.41451760819053274,2.761547471012825,1.884411027568922,0,0.1
1757332315.4334495,-0.264,-0.279,9.686,0.4147277269486572,2.2709163804793646,1.887518796992481,0,0.1
1757332315.461039,-0.264,-0.279,9.686,0.4147277269486572,2.2709163804793646,1.887518796992481,0,0.1
1757332315.4876254,-0.548,-0.075,9.933,0.4156318653568324,3.187162817466793,1.901754385964912,0,0.1
1757332315.5137599,-0.548,-0.075,9.933,0.4156318653568324,3.187162817466793,1.901754385964912,0,0.1
1757332315.5411792,-0.35,-0.29,9.819,0.41600011718748353,2.65039501765194,1.9116791979949872,0,0.1
1757332315.56905,-0.35,-0.29,9.819,0.41600011718748353,2.65039501765194,1.9116791979949872,0,0.1
1757332315.596717,-0.149,-0.027,9.755,0.41606682155634567,0.8893291072917868,1.921754385964912,0,0.1
1757332315.624821,-0.149,-0.027,9.755,0.41606682155634567,0.8893291072917868,1.921754385964912,0,0.1
1757332315.6526968,-0.277,0.06,9.809,0.41629727659450283,1.6550581641949027,1.9281704260651626,0,0.1
1757332315.6793618,-0.277,0.06,9.809,0.41629727659450283,1.6550581641949027,1.9281704260651626,0,0.1
1757332315.7048633,-0.276,0.143,9.718,0.4165259445700832,1.8320715972420465,1.9282205513784458,0,0.1
1757332315.7311654,-0.276,0.143,9.718,0.4165259445700832,1.8320715972420465,1.9282205513784458,0,0.1
1757332315.7580938,-0.203,-0.078,9.652,0.4166495949836025,1.2907147641618195,1.9318796992481202,0,0.1
1757332315.784516,-0.203,-0.078,9.652,0.4166495949836025,1.2907147641618195,1.9318796992481202,0,0.1
1757332315.8108735,-0.277,0.115,9.666,0.4168797278592472,1.7772427983201804,1.9355889724310775,0,0.1
1757332315.8390656,-0.277,0.115,9.666,0.4168797278592472,1.7772427983201804,1.9355889724310775,0,0.1
1757332315.8668156,-0.389,-0.006,9.64,0.4173332121938057,2.3110600905937515,1.941203007518797,0,0.1
1757332315.8941784,-0.389,-0.006,9.64,0.4173332121938057,2.3110600905937515,1.941203007518797,0,0.1
1757332315.9219148,-0.324,0.279,9.547,0.4176475188481311,2.5643298328177186,1.9444611528822056,0,0.1
1757332315.9480197,-0.324,0.279,9.547,0.4176475188481311,2.5643298328177186,1.9444611528822056,0,0.1
1757332315.9744656,-0.185,0.141,9.835,0.4177499401555912,1.3548462862291437,1.951428571428571,0,0.1
1757332316.0019045,-0.185,0.141,9.835,0.4177499401555912,1.3548462862291437,1.951428571428571,0,0.1
1757332316.0287726,-0.23,0.233,9.857,0.41790819865133055,1.9023628436619882,1.9536842105263155,0,0.1
1757332316.0550184,-0.23,0.233,9.857,0.41790819865133055,1.9023628436619882,1.9536842105263155,0,0.1
1757332316.082741,-0.172,-0.071,9.789,0.41799667761837533,1.0889975285939537,1.9565914786967418,0,0.1
1757332316.110516,-0.172,-0.071,9.789,0.41799667761837533,1.0889975285939537,1.9565914786967418,0,0.1
1757332316.1368265,-0.429,0.156,9.991,0.41854668198422024,2.615993356559433,1.9694736842105263,0,0.1
1757332316.1649368,-0.429,0.156,9.991,0.41854668198422024,2.615993356559433,1.9694736842105263,0,0.1
1757332316.1922536,-0.838,0.094,9.91,0.42063872265876806,4.863661126082259,1.9899749373433582,0,0.1
1757332316.220113,-0.838,0.094,9.91,0.42063872265876806,4.863661126082259,1.9899749373433582,0,0.1
1757332316.2459033,-0.747,-0.368,9.974,0.42229368631321024,4.772538811307024,1.9945363408521302,0,0.1
1757332316.2728527,-0.747,-0.368,9.974,0.42229368631321024,4.772538811307024,1.9945363408521302,0,0.1
1757332316.3003995,-0.468,0.024,9.752,0.4229415060028987,2.7511303218619667,2.0085213032581453,0,0.1
1757332316.3288918,-0.468,0.024,9.752,0.4229415060028987,2.7511303218619667,2.0085213032581453,0,0.1
1757332316.356681,-0.561,-0.233,9.756,0.42387064064405316,3.5629489316463863,2.0131829573934836,0,0.1
1757332316.3842304,-0.561,-0.233,9.756,0.42387064064405316,3.5629489316463863,2.0131829573934836,0,0.1
1757332316.4115715,-0.29,-0.183,9.829,0.42411858011645753,1.9981152601050407,2.026766917293233,0,0.1
1757332316.438699,-0.29,-0.183,9.829,0.42411858011645753,1.9981152601050407,2.026766917293233,0,0.1
1757332316.4653373,-0.267,-0.204,9.681,0.4243286373790956,1.9878549661187626,2.027919799498747,0,0.1
1757332316.492905,-0.267,-0.204,9.681,0.4243286373790956,1.9878549661187626,2.027919799498747,0,0.1
1757332316.5202923,-0.435,-0.105,9.618,0.4248856963937478,2.6638578089491802,2.036340852130326,0,0.1
1757332316.5468016,-0.22,0.005,9.744,0.4250280637793227,1.2937380574638389,2.0471177944862156,0,0.1
1757332316.5730927,-0.22,0.005,9.744,0.4250280637793227,1.2937380574638389,2.0471177944862156,0,0.1
1757332316.6003776,-0.363,-0.289,9.616,0.42541541756264545,2.762507039356082,2.0542857142857143,0,0.1
1757332316.6278045,-0.363,-0.289,9.616,0.42541541756264545,2.762507039356082,2.0542857142857143,0,0.1
1757332316.6553564,-0.362,-0.311,9.72,0.4258002906293043,2.810937775457037,2.0543358395989975,0,0.1
1757332316.6816175,-0.362,-0.311,9.72,0.4258002906293043,2.810937775457037,2.0543358395989975,0,0.1
1757332316.7091007,-0.362,-0.311,9.72,0.4258002906293043,2.810937775457037,2.0543358395989975,0,0.1
1757332316.735013,-0.318,-0.323,9.677,0.4260970517382161,2.6817656676129658,2.0565413533834587,0,0.1
1757332316.7621,-0.213,-0.272,9.639,0.42623012563637497,2.052680988090247,2.0618045112781958,0,0.1
1757332316.78848,-0.213,-0.272,9.639,0.42623012563637497,2.052680988090247,2.0618045112781958,0,0.1
1757332316.8166277,-0.33,-0.305,9.765,0.42654937580542773,2.6347484417124187,2.0676691729323307,0,0.1
1757332316.845074,-0.33,-0.305,9.765,0.42654937580542773,2.6347484417124187,2.0676691729323307,0,0.1
1757332316.8711963,-0.33,-0.305,9.765,0.42654937580542773,2.6347484417124187,2.0676691729323307,0,0.1
1757332316.8983808,-0.448,-0.261,9.733,0.4271371325464458,3.0493019550682225,2.0735839598997496,0,0.1
1757332316.9256933,-0.142,-0.302,9.808,0.42719613762298925,1.9487443717912996,2.0889223057644113,0,0.1
1757332316.9538171,-0.142,-0.302,9.808,0.42719613762298925,1.9487443717912996,2.0889223057644113,0,0.1
1757332316.979948,-0.142,-0.302,9.808,0.42719613762298925,1.9487443717912996,2.0889223057644113,0,0.1
1757332317.006607,-0.41,-0.087,9.941,0.4276877248647663,2.4142541501661583,2.102355889724311,0,0.1
1757332317.033621,-0.41,-0.087,9.941,0.4276877248647663,2.4142541501661583,2.102355889724311,0,0.1
1757332317.0612988,-0.644,-0.222,9.908,0.42889815807485115,3.932983382765594,2.1140852130325816,0,0.1
1757332317.0895572,-0.35,-0.292,9.878,0.42925502909109875,2.641987747200028,2.128822055137844,0,0.1
1757332317.117652,-0.35,-0.292,9.878,0.42925502909109875,2.641987747200028,2.128822055137844,0,0.1
1757332317.1446843,-0.389,-0.099,9.723,0.42969545319912333,2.364031305600579,2.1307769423558898,0,0.1
1757332317.1725538,-0.389,-0.099,9.723,0.42969545319912333,2.364031305600579,2.1307769423558898,0,0.1
1757332317.2000122,-0.458,-0.238,9.748,0.43030523178320756,3.0309262734796594,2.134235588972431,0,0.1
1757332317.2276025,-0.458,-0.238,9.748,0.43030523178320756,3.0309262734796594,2.134235588972431,0,0.1
1757332317.2550066,-0.285,-0.162,9.859,0.4305411188260652,1.9044579464155793,2.142907268170426,0,0.1
1757332317.2815046,-0.285,-0.162,9.859,0.4305411188260652,1.9044579464155793,2.142907268170426,0,0.1
1757332317.3078263,-0.568,-0.279,9.806,0.43147678384821586,3.692421010329506,2.1570927318295743,0,0.1
1757332317.3339686,-0.568,-0.279,9.806,0.43147678384821586,3.692421010329506,2.1570927318295743,0,0.1
1757332317.3615985,-0.358,-0.018,9.853,0.4318479188325446,2.083502121362144,2.167619047619048,0,0.1
1757332317.3897786,-0.358,-0.018,9.853,0.4318479188325446,2.083502121362144,2.167619047619048,0,0.1
1757332317.4173338,-0.432,-0.082,9.762,0.43238777156621805,2.579052689106412,2.171328320802005,0,0.05
1757332317.4445927,-0.432,-0.082,9.762,0.43238777156621805,2.579052689106412,2.171328320802005,0,0.05
1757332317.471109,-0.333,-0.295,9.749,0.4327082244422909,2.6127607240813875,2.1762907268170424,0,0.05
1757332317.4977295,-0.333,-0.295,9.749,0.4327082244422909,2.6127607240813875,2.1762907268170424,0,0.05
1757332317.524722,-0.539,-0.137,9.822,0.43354666415508264,3.2407249051295257,2.1866165413533833,0,0.05
1757332317.5504243,-0.539,-0.137,9.822,0.43354666415508264,3.2407249051295257,2.1866165413533833,0,0.05
1757332317.5759537,-0.539,-0.137,9.822,0.43354666415508264,3.2407249051295257,2.1866165413533833,0,0.05
1757332317.6033902,-0.609,-0.227,9.792,0.43461467128940784,3.7973600884141243,2.190125313283208,0,0.05
1757332317.6315958,-0.8,-0.385,9.847,0.4364515007420641,5.151943772947131,2.1996992481203006,0,0.05
1757332317.660042,-0.8,-0.385,9.847,0.4364515007420641,5.151943772947131,2.1996992481203006,0,0.05
1757332317.6875694,-0.563,-0.32,9.852,0.4373583599292461,3.7607293832325817,2.211578947368421,0,0.05
1757332317.7145762,-0.563,-0.32,9.852,0.4373583599292461,3.7607293832325817,2.211578947368421,0,0.05
1757332317.7413526,-0.608,-0.164,9.829,0.43841361178686045,3.665849037136889,2.2138345864661657,0,0.05
1757332317.768355,-0.608,-0.164,9.829,0.43841361178686045,3.665849037136889,2.2138345864661657,0,0.05
1757332317.7959738,-0.34,0.022,9.781,0.4387430854155995,1.995032567657948,2.2272681704260653,0,0.05
1757332317.823327,-0.34,0.022,9.781,0.4387430854155995,1.995032567657948,2.2272681704260653,0,0.05
1757332317.8505304,-0.22,-0.024,9.76,0.43888095766392055,1.2989428917692112,2.23328320802005,0,0.05
1757332317.877444,-0.22,-0.024,9.76,0.43888095766392055,1.2989428917692112,2.23328320802005,0,0.05
1757332317.9048522,-0.22,-0.024,9.76,0.43888095766392055,1.2989428917692112,2.23328320802005,0,0.05
1757332317.932506,-0.355,-0.131,9.769,0.43923974945353017,2.2182257404744523,2.240050125313283,0,0.05
1757332317.9596593,-0.325,-0.067,9.812,0.4395402370659596,1.9369609759235196,2.2415538847117795,0,0.05
1757332317.9873698,-0.325,-0.067,9.812,0.4395402370659596,1.9369609759235196,2.2415538847117795,0,0.05
1757332318.013623,-0.373,0.073,9.874,0.43993572541906617,2.204377402914714,2.2439598997493735,0,0.05
1757332318.0407176,-0.373,0.073,9.874,0.43993572541906617,2.204377402914714,2.2439598997493735,0,0.05
1757332318.06698,-0.341,-0.174,9.794,0.44026599346304274,2.2384365083755426,2.245563909774436,0,0.05
1757332318.0948105,-0.341,-0.174,9.794,0.44026599346304274,2.2384365083755426,2.245563909774436,0,0.05
1757332318.1224184,-0.941,-0.324,9.663,0.4427729073690033,5.880305512910463,2.275639097744361,0,0.05
1757332318.1500409,-0.941,-0.324,9.663,0.4427729073690033,5.880305512910463,2.275639097744361,0,0.05
1757332318.1772144,-0.563,-0.404,9.895,0.44366684572999143,4.005923604989171,2.2945864661654136,0,0.05
1757332318.2044253,-0.563,-0.404,9.895,0.44366684572999143,4.005923604989171,2.2945864661654136,0,0.05
1757332318.2321546,-0.536,-0.059,9.903,0.4444755448840802,3.11678754797754,2.29593984962406,0,0.05
1757332318.2600708,-0.536,-0.059,9.903,0.4444755448840802,3.11678754797754,2.29593984962406,0,0.05
1757332318.2876878,-0.484,-0.009,9.834,0.44513385627247,2.818139207328711,2.298546365914787,0,0.05
1757332318.3144252,-0.484,-0.009,9.834,0.44513385627247,2.818139207328711,2.298546365914787,0,0.05
1757332318.3416445,-0.489,-0.052,9.935,0.44580483678399,2.8336816762368957,2.2987969924812033,0,0.05
1757332318.3698676,-0.489,-0.052,9.935,0.44580483678399,2.8336816762368957,2.2987969924812033,0,0.05
1757332318.3974824,-0.348,0.047,9.823,0.4461442731897385,2.047377929997092,2.281353383458647,0,0.05
1757332318.4252107,-0.348,0.047,9.823,0.4461442731897385,2.047377929997092,2.281353383458647,0,0.05
1757332318.452765,-0.081,0.109,9.935,0.44549221373667125,0.7831261462073856,2.293984962406015,0,0.05
1757332318.480959,-0.081,0.109,9.935,0.44549221373667125,0.7831261462073856,2.293984962406015,0,0.05
1757332318.509091,-0.146,0.147,10.032,0.44483880507437745,1.1831192693852854,2.2961403508771934,0,0.05
1757332318.5357099,-0.146,0.147,10.032,0.44483880507437745,1.1831192693852854,2.2961403508771934,0,0.05
1757332318.5639899,-0.117,-0.087,10.01,0.44409919500039624,0.8344859835776983,2.2972932330827063,0,0.05
1757332318.5901973,-0.117,-0.087,10.01,0.44409919500039624,0.8344859835776983,2.2972932330827063,0,0.05
1757332318.6157632,-0.205,-0.086,9.931,0.4434559250929003,1.2823686397190754,2.301553884711779,0,0.05
1757332318.6422687,-0.205,-0.086,9.931,0.4434559250929003,1.2823686397190754,2.301553884711779,0,0.05
1757332318.6697633,-0.179,-0.202,9.986,0.4427923187003135,1.5481934585533224,2.3028070175438593,0,0.05
1757332318.6976256,-0.179,-0.202,9.986,0.4427923187003135,1.5481934585533224,2.3028070175438593,0,0.05
1757332318.7254581,-0.382,-0.184,9.828,0.44245249179996715,2.470352580349629,2.311629072681704,0,0.05
1757332318.7537718,-0.382,-0.184,9.828,0.44245249179996715,2.470352580349629,2.311629072681704,0,0.05
1757332318.7801123,-0.696,-0.298,9.918,0.4431449480700418,4.365336425145232,2.326817042606516,0,0.05
1757332318.8077302,-0.696,-0.298,9.918,0.4431449480700418,4.365336425145232,2.326817042606516,0,0.05
1757332318.8346298,-0.436,-0.528,9.854,0.4430366519826548,3.9750569113462997,2.3397994987468667,0,0.05
1757332318.8616002,-0.436,-0.528,9.854,0.4430366519826548,3.9750569113462997,2.3397994987468667,0,0.05
1757332318.8892684,-0.627,-0.344,9.905,0.4434982468961969,4.129743891783795,2.3489223057644106,0,0.05
1757332318.9159298,-0.627,-0.344,9.905,0.4434982468961969,4.129743891783795,2.3489223057644106,0,0.05
1757332318.943869,-0.54,-0.376,9.826,0.4436488870717473,3.8311561242932446,2.352631578947368,0,0.05
1757332318.9723666,-0.54,-0.376,9.826,0.4436488870717473,3.8311561242932446,2.352631578947368,0,0.05
1757332319.000966,-0.459,-0.402,9.781,0.4435352691725879,3.569560509575041,2.356240601503759,0,0.05
1757332319.0296721,-0.459,-0.402,9.781,0.4435352691725879,3.569560509575041,2.356240601503759,0,0.05
1757332319.0581975,-0.367,-0.205,9.745,0.4431816867831973,2.470057717968682,2.3608020050125313,0,0.05
1757332319.086028,-0.425,-0.138,9.795,0.4429603452906366,2.6119960068749575,2.363558897243107,0,0.05
1757332319.1137464,-0.425,-0.138,9.795,0.4429603452906366,2.6119960068749575,2.363558897243107,0,0.05
1757332319.1400967,-0.425,-0.138,9.795,0.4429603452906366,2.6119960068749575,2.363558897243107,0,0.05
1757332319.1673615,-0.286,-0.013,9.766,0.44245112441940976,1.6791742647990653,2.3700250626566413,0,0.05
1757332319.1942978,-0.286,-0.013,9.766,0.44245112441940976,1.6791742647990653,2.3700250626566413,0,0.05
1757332319.2215881,-0.416,-0.087,9.781,0.442228026588094,2.4880276647671944,2.3756390977443607,0,0.05
1757332319.2494285,-0.329,0.011,9.667,0.44187168952083816,1.95030098677464,2.379398496240601,0,0.05
1757332319.2774923,-0.329,0.011,9.667,0.44187168952083816,1.95030098677464,2.379398496240601,0,0.05
1757332319.3061974,-0.417,-0.141,9.862,0.44173334999748437,2.555716850418892,2.3836591478696745,0,0.05
1757332319.3345788,-0.417,-0.141,9.862,0.44173334999748437,2.555716850418892,2.3836591478696745,0,0.05
1757332319.3624945,-0.421,-0.122,9.863,0.4416124460429076,2.5446020589272673,2.3825062656641602,0,0.05
1757332319.3905265,-0.421,-0.122,9.863,0.4416124460429076,2.5446020589272673,2.3825062656641602,0,0.05
1757332319.4177594,-0.377,-0.076,9.658,0.44131829216564317,2.2803287871103826,2.3830576441102753,0,0.05
1757332319.445068,-0.377,-0.076,9.658,0.44131829216564317,2.2803287871103826,2.3830576441102753,0,0.05
1757332319.4713616,-0.359,-0.068,9.686,0.440890502279194,2.1603347825202515,2.383408521303258,0,0.05
1757332319.498779,-0.359,-0.068,9.686,0.440890502279194,2.1603347825202515,2.383408521303258,0,0.05
1757332319.5262907,-0.26,-0.172,9.756,0.4402549659004428,1.830208119431589,2.3880701754385965,0,0.05
1757332319.5538456,-0.26,-0.172,9.756,0.4402549659004428,1.830208119431589,2.3880701754385965,0,0.05
1757332319.581085,-0.403,-0.022,9.59,0.43990631673118763,2.409900027621985,2.3946365914786965,0,0.05
1757332319.6085215,-0.403,-0.022,9.59,0.43990631673118763,2.409900027621985,2.3946365914786965,0,0.05
1757332319.635173,-0.317,-0.008,9.718,0.43941731873015655,1.8689134470124404,2.3974937343358396,0,0.05
1757332319.6621492,-0.317,-0.008,9.718,0.43941731873015655,1.8689134470124404,2.3974937343358396,0,0.05
1757332319.6887262,-0.313,0.02,9.718,0.43900441911215426,1.8485199655299023,2.3974436090225564,0,0.05
1757332319.714964,-0.313,0.02,9.718,0.43900441911215426,1.8485199655299023,2.3974436090225564,0,0.05
1757332319.7409122,-0.251,0.006,9.503,0.43850544181343976,1.5134171522514455,2.4,0,0.05
1757332319.7672741,-0.251,0.006,9.503,0.43850544181343976,1.5134171522514455,2.4,0,0.05
1757332319.7940059,-0.292,-0.217,9.744,0.4380997146769215,2.1382110680763002,2.4013032581453637,0,0.05
1757332319.820176,-0.292,-0.217,9.744,0.4380997146769215,2.1382110680763002,2.4013032581453637,0,0.05
1757332319.846844,-0.336,-0.178,9.936,0.43773101329469444,2.1915596117437834,2.4020050125313284,0,0.05
1757332319.8737133,-0.336,-0.178,9.936,0.43773101329469444,2.1915596117437834,2.4020050125313284,0,0.05
1757332319.901089,-0.327,-0.34,9.689,0.43725799306587865,2.787367169648513,2.4018546365914792,0,0.05
1757332319.9279294,-0.327,-0.34,9.689,0.43725799306587865,2.787367169648513,2.4018546365914792,0,0.05
1757332319.954461,-0.287,-0.08,9.642,0.43667789616604136,1.7698970282128417,2.403609022556391,0,0.05
1757332319.9815233,-0.287,-0.08,9.642,0.43667789616604136,1.7698970282128417,2.403609022556391,0,0.05
1757332320.0084965,-0.337,-0.248,9.748,0.4362016792723292,2.4578206807521745,2.406065162907268,0,0.05
1757332320.0350237,-0.337,-0.248,9.748,0.4362016792723292,2.4578206807521745,2.406065162907268,0,0.05
1757332320.0626261,-0.57,-0.307,9.761,0.4363277495186388,3.794695124022345,2.4176441102756896,0,0.05
1757332320.0907538,-0.57,-0.307,9.761,0.4363277495186388,3.794695124022345,2.4176441102756896,0,0.05
1757332320.1173437,-0.459,-0.321,9.703,0.43612045067847943,3.3037516743749484,2.4211027568922305,0,0.05
1757332320.1449296,-0.459,-0.321,9.703,0.43612045067847943,3.3037516743749484,2.4211027568922305,0,0.05
1757332320.172701,-0.44,-0.282,9.932,0.43598715290705525,3.012073142091265,2.421854636591479,0,0.05
1757332320.200222,-0.44,-0.282,9.932,0.43598715290705525,3.012073142091265,2.421854636591479,0,0.05
1757332320.2273333,-0.307,-0.266,9.704,0.43557999265347347,2.3969938807231173,2.428170426065163,0,0.05
1757332320.2549722,-0.307,-0.266,9.704,0.43557999265347347,2.3969938807231173,2.428170426065163,0,0.05
1757332320.2822433,-0.401,-0.181,9.652,0.4353438985445874,2.609845872657399,2.4328822055137844,0,0.05
1757332320.3092735,-0.401,-0.181,9.652,0.4353438985445874,2.609845872657399,2.4328822055137844,0,0.05
1757332320.3368633,-0.282,-0.276,9.944,0.43487411684302385,2.272364698187307,2.43734335839599,0,0.05
1757332320.3653328,-0.282,-0.276,9.944,0.43487411684302385,2.272364698187307,2.43734335839599,0,0.05
1757332320.393085,-0.282,-0.276,9.944,0.43487411684302385,2.272364698187307,2.43734335839599,0,0.05
1757332320.4207091,-0.45,-0.202,9.754,0.4346699034899932,2.8949742581871223,2.445263157894737,0,0.05
1757332320.4483957,-0.414,-0.261,9.7,0.4343457062064733,2.888357593252788,2.446967418546366,0,0.05
1757332320.475068,-0.414,-0.261,9.7,0.4343457062064733,2.888357593252788,2.446967418546366,0,0.05
1757332320.5017853,-0.469,-0.367,9.814,0.4341549636938405,3.4725168026126174,2.448872180451128,0,0.05
1757332320.52868,-0.469,-0.367,9.814,0.4341549636938405,3.4725168026126174,2.448872180451128,0,0.05
1757332320.5558083,-0.351,-0.197,9.942,0.4337369306388378,2.31836960869145,2.4537844611528823,0,0.05
1757332320.5832796,-0.351,-0.197,9.942,0.4337369306388378,2.31836960869145,2.4537844611528823,0,0.05
1757332320.6107812,-0.498,-0.353,9.825,0.43373693063883784,3.5551768380712105,2.4601002506265663,0,0.05
1757332320.6389463,-0.498,-0.353,9.825,0.43373693063883784,3.5551768380712105,2.4601002506265663,0,0.05
1757332320.6667297,-0.309,-0.159,9.941,0.43335621029356436,2.0020775626999052,2.469423558897243,0,0.05
1757332320.6947026,-0.309,-0.159,9.941,0.43335621029356436,2.0020775626999052,2.469423558897243,0,0.05
1757332320.7226493,-0.376,-0.187,9.858,0.4331158678690957,2.439230866733224,2.4722807017543857,0,0.05
1757332320.7490196,-0.376,-0.187,9.858,0.4331158678690957,2.439230866733224,2.4722807017543857,0,0.05
1757332320.775512,-0.558,-0.445,9.914,0.43333834932994336,4.117654594783016,2.479949874686717,0,0.05
1757332320.8035002,-0.558,-0.445,9.914,0.43333834932994336,4.117654594783016,2.479949874686717,0,0.05
1757332320.8310568,-0.352,-0.268,9.918,0.4329364416401096,2.554095934358165,2.4894736842105263,0,0.05
1757332320.8592281,-0.352,-0.268,9.918,0.4329364416401096,2.554095934358165,2.4894736842105263,0,0.05
1757332320.8869798,-0.352,-0.268,9.918,0.4329364416401096,2.554095934358165,2.4894736842105263,0,0.05
1757332320.913582,-0.352,-0.268,9.918,0.4329364416401096,2.554095934358165,2.4894736842105263,0,0.05
1757332320.940518,-0.352,-0.268,9.918,0.4329364416401096,2.554095934358165,2.4894736842105263,0,0.05
1757332320.9682307,-0.453,-0.255,9.904,0.4327209060121778,3.004579131169592,2.4943358395989974,0,0.05
1757332320.9946675,-0.295,-0.351,9.668,0.43215127270436215,2.715213143188875,2.5018045112781953,0,0.05
1757332321.0219755,-0.694,-0.164,9.832,0.4327497804736589,4.148394862282682,2.52125313283208,0,0.05
1757332321.0479448,-0.466,-0.163,9.836,0.43261685126679933,2.8733587815318486,2.5313283208020048,0,0.05
1757332321.0747504,-0.466,-0.163,9.836,0.43261685126679933,2.8733587815318486,2.5313283208020048,0,0.05
1757332321.1028636,-0.472,0.319,9.663,0.4325780969952131,3.3740048403944116,2.5305263157894737,0,0.05
1757332321.1306624,-0.472,0.319,9.663,0.4325780969952131,3.3740048403944116,2.5305263157894737,0,0.05
1757332321.158871,-0.35,0.03,9.806,0.4323098657213365,2.0516470425233506,2.5365914786967423,0,0.05
1757332321.1874847,-0.35,0.03,9.806,0.4323098657213365,2.0516470425233506,2.5365914786967423,0,0.05
1757332321.2155666,-0.462,0.003,9.867,0.4323071911268652,2.6808440165185785,2.5413533834586466,0,0.05
1757332321.242493,-0.462,0.003,9.867,0.4323071911268652,2.6808440165185785,2.5413533834586466,0,0.05
1757332321.269079,-0.54,-0.04,9.694,0.4324841124249537,3.1970581810460637,2.54406015037594,0,0.05
1757332321.2967813,-0.54,-0.04,9.694,0.4324841124249537,3.1970581810460637,2.54406015037594,0,0.05
1757332321.3241267,-0.626,-0.173,9.719,0.4328823829864182,3.823065285863234,2.5471679197994987,0,0.05
1757332321.3514152,-0.626,-0.173,9.719,0.4328823829864182,3.823065285863234,2.5471679197994987,0,0.05
1757332321.3791194,-0.44,-0.064,9.821,0.43263633400351387,2.592205357570464,2.5561904761904763,0,0.05
1757332321.4070623,-0.567,-0.145,9.741,0.4327778991584483,3.4382425506588987,2.562355889724311,0,0.05
1757332321.4352643,-0.567,-0.145,9.741,0.4327778991584483,3.4382425506588987,2.562355889724311,0,0.05
1757332321.463456,-0.577,-0.538,9.809,0.432964458703021,4.598217159481427,2.562706766917293,0,0.05
1757332321.4924355,-0.577,-0.538,9.809,0.432964458703021,4.598217159481427,2.562706766917293,0,0.05
1757332321.5203822,-0.572,-0.201,9.906,0.4331433019221237,3.5023681648993032,2.562105263157895,0,0.05
1757332321.547062,-0.572,-0.201,9.906,0.4331433019221237,3.5023681648993032,2.562105263157895,0,0.05
1757332321.574487,-0.691,-0.186,9.841,0.43380503973559364,4.158984754714557,2.5672681704260656,0,0.05
1757332321.6009104,-0.691,-0.186,9.841,0.43380503973559364,4.158984754714557,2.5672681704260656,0,0.05
1757332321.6279087,-0.517,-0.271,9.905,0.4339057789428483,3.372650432155611,2.5759899749373436,0,0.05
1757332321.654605,-0.517,-0.271,9.905,0.4339057789428483,3.372650432155611,2.5759899749373436,0,0.05
1757332321.682764,-0.593,-0.363,9.933,0.4342493955090784,4.004016100101053,2.5792481203007522,0,0.05
1757332321.7104957,-0.593,-0.363,9.933,0.4342493955090784,4.004016100101053,2.5792481203007522,0,0.05
1757332321.737142,-0.827,-0.389,9.864,0.4355166328626267,5.293460652858101,2.5889223057644113,0,0.05
1757332321.765103,-0.827,-0.389,9.864,0.4355166328626267,5.293460652858101,2.5889223057644113,0,0.05
1757332321.7928824,-0.514,-0.555,9.685,0.4354564702699915,4.4660552682487324,2.6046115288220544,0,0.05
1757332321.820828,-0.514,-0.555,9.685,0.4354564702699915,4.4660552682487324,2.6046115288220544,0,0.05
1757332321.8480215,-0.515,-0.78,9.746,0.43539925355930503,5.478132686640782,2.6046616541353376,0,0.05
1757332321.8749616,-0.515,-0.78,9.746,0.43539925355930503,5.478132686640782,2.6046616541353376,0,0.05
1757332321.9028928,-0.51,-0.775,9.756,0.4353273136388297,5.432240860833997,2.6042105263157893,0,0.05
1757332321.9295425,-0.51,-0.775,9.756,0.4353273136388297,5.432240860833997,2.6042105263157893,0,0.05
1757332321.9567218,-0.566,-0.716,9.795,0.4354707338042363,5.323430779320915,2.60546365914787,0,0.05
1757332321.984223,-0.566,-0.716,9.795,0.4354707338042363,5.323430779320915,2.60546365914787,0,0.05
1757332322.0116777,-0.51,-0.686,9.789,0.43553094895770617,4.990596024179703,2.607769423558897,0,0.05
1757332322.03858,-0.51,-0.686,9.789,0.43553094895770617,4.990596024179703,2.607769423558897,0,0.05
1757332322.066636,-0.51,-0.686,9.789,0.43553094895770617,4.990596024179703,2.607769423558897,0,0.05
1757332322.0945868,-0.368,-0.365,9.7,0.43526103087687507,3.0586563498970447,2.6148370927318294,0,0.05
1757332322.1226623,-0.368,-0.365,9.7,0.43526103087687507,3.0586563498970447,2.6148370927318294,0,0.05
1757332322.1505594,-0.59,-0.455,9.617,0.4355989152879057,4.430081862648779,2.625563909774436,0,0.05
1757332322.176885,-0.662,-0.511,9.72,0.4361727467414717,4.917452031226105,2.6278696741854635,0,0.05
1757332322.2037318,-0.662,-0.511,9.72,0.4361727467414717,4.917452031226105,2.6278696741854635,0,0.05
1757332322.2305033,-0.558,0.004,9.743,0.4363079016016098,3.2779407374554803,2.6316290726817044,0,0.05
1757332322.2582273,-0.558,0.004,9.743,0.4363079016016098,3.2779407374554803,2.6316290726817044,0,0.05
1757332322.286177,-0.576,-0.014,9.645,0.43641368275983283,3.4186553380108315,2.632431077694236,0,0.05
1757332322.313951,-0.576,-0.014,9.645,0.43641368275983283,3.4186553380108315,2.632431077694236,0,0.05
1757332322.3413393,-0.335,0.021,9.738,0.4358965043447814,1.9741374775047156,2.6438596491228066,0,0.05
1757332322.3690708,-0.335,0.021,9.738,0.4358965043447814,1.9741374775047156,2.6438596491228066,0,0.05
1757332322.3969371,-0.407,0.011,9.59,0.43557195157631534,2.431063276195513,2.6454135338345863,0,0.05
1757332322.425097,-0.407,0.011,9.59,0.43557195157631534,2.431063276195513,2.6454135338345863,0,0.05
1757332322.452481,-0.397,0.083,9.642,0.43509486896537863,2.408684208599881,2.6129323308270673,0,0.05
1757332322.4785912,-0.397,0.083,9.642,0.43509486896537863,2.408684208599881,2.6129323308270673,0,0.05
1757332322.5056949,-0.307,-0.076,9.756,0.4353428131943836,1.8567483874728856,2.5948872180451126,0,0.05
1757332322.5323641,-0.307,-0.076,9.756,0.4353428131943836,1.8567483874728856,2.5948872180451126,0,0.05
1757332322.5610476,-0.555,-0.171,9.68,0.43585275610003893,3.4333123075615566,2.6062656641604005,0,0.05
1757332322.589101,-0.555,-0.171,9.68,0.43585275610003893,3.4333123075615566,2.6062656641604005,0,0.05
1757332322.6169522,-0.34,-0.032,9.582,0.43585275610003893,2.041158132697451,2.6035588972431074,0,0.05
1757332322.6441598,-0.34,-0.032,9.582,0.43585275610003893,2.041158132697451,2.6035588972431074,0,0.05
1757332322.6704185,-0.625,0.069,9.668,0.43590937704986343,3.72122035652806,2.611528822055138,0,0.05
1757332322.6968682,-0.625,0.069,9.668,0.43590937704986343,3.72122035652806,2.611528822055138,0,0.05
1757332322.7238128,-0.265,0.057,9.622,0.43544152879577297,1.6136497520494537,2.6218045112781954,0,0.05
1757332322.7509708,-0.265,0.057,9.622,0.43544152879577297,1.6136497520494537,2.6218045112781954,0,0.05
1757332322.7779021,-0.499,-0.16,9.688,0.435847298374098,3.096111219060688,2.632330827067669,0,0.05
1757332322.8056028,-0.499,-0.16,9.688,0.435847298374098,3.096111219060688,2.632330827067669,0,0.05
1757332322.833081,-0.41,-0.021,9.695,0.4360643043176087,2.4247570047022813,2.6230075187969923,0,0.05
1757332322.8639133,-0.41,-0.021,9.695,0.4360643043176087,2.4247570047022813,2.6230075187969923,0,0.05
1757332322.890073,-0.436,-0.204,9.715,0.4356480402802244,2.8366062856353462,2.6234586466165406,0,0.05
1757332322.917382,-0.436,-0.204,9.715,0.4356480402802244,2.8366062856353462,2.6234586466165406,0,0.05
1757332322.9435043,-0.639,-0.155,9.634,0.4358003872187357,3.9044397615861848,2.6314285714285717,0,0.05
1757332322.969457,-0.639,-0.155,9.634,0.4358003872187357,3.9044397615861848,2.6314285714285717,0,0.05
1757332322.9963017,-0.589,0.107,9.788,0.4356205688440343,3.4998856931168896,2.628270676691729,0,0.05
1757332323.0234773,-0.589,0.107,9.788,0.4356205688440343,3.4998856931168896,2.628270676691729,0,0.05
1757332323.0496533,-0.415,-0.068,9.935,0.4353177230483501,2.423800608981135,2.6357393483709277,0,0.05
1757332323.0774171,-0.415,-0.068,9.935,0.4353177230483501,2.423800608981135,2.6357393483709277,0,0.05
1757332323.1047692,-0.52,-0.073,9.734,0.435219209134891,3.087818546814236,2.6362406015037596,0,0.05
1757332323.1332965,-0.52,-0.073,9.734,0.435219209134891,3.087818546814236,2.6362406015037596,0,0.05
1757332323.1606944,-0.404,-0.046,9.751,0.4350881261307874,2.387813497827189,2.6395989974937346,0,0.05
1757332323.18698,-0.404,-0.046,9.751,0.4350881261307874,2.387813497827189,2.6395989974937346,0,0.05
1757332323.2143693,-0.249,-0.131,9.96,0.4345303096447934,1.6181031071788394,2.6440601503759398,0,0.05
1757332323.2414339,-0.249,-0.131,9.96,0.4345303096447934,1.6181031071788394,2.6440601503759398,0,0.05
1757332323.267603,-0.449,-0.094,9.763,0.43416889858671365,2.6901784579809043,2.652431077694236,0,0.05
1757332323.2956128,-0.449,-0.094,9.763,0.43416889858671365,2.6901784579809043,2.652431077694236,0,0.05
1757332323.3237152,-0.43,-0.174,9.821,0.433864702413091,2.7042148326282702,2.65187969924812,0,0.05
1757332323.3516436,-0.447,-0.117,10.007,0.4335074393825324,2.643670257983985,2.6480701754385962,0,0.05
1757332323.3795443,-0.447,-0.117,10.007,0.4335074393825324,2.643670257983985,2.6480701754385962,0,0.05
1757332323.4073799,-0.241,0.038,9.653,0.43240986633054523,1.4478300157179735,2.639649122807018,0,0.05
1757332323.4356072,-0.241,0.038,9.653,0.43240986633054523,1.4478300157179735,2.639649122807018,0,0.05
1757332323.4633224,-0.413,-0.069,9.71,0.43266309641567535,2.4692356128720525,2.63187969924812,0,0.05
1757332323.4905674,-0.413,-0.069,9.71,0.43266309641567535,2.4692356128720525,2.63187969924812,0,0.05
1757332323.51793,-0.408,-0.177,9.949,0.432050867954226,2.559526513933142,2.623709273182958,0,0.05
1757332323.5436726,-0.408,-0.177,9.949,0.432050867954226,2.559526513933142,2.623709273182958,0,0.05
1757332323.5706055,-0.497,-0.21,9.63,0.43099043202836884,3.2067887354055107,2.6093233082706764,0,0.05
1757332323.5975704,-0.497,-0.21,9.63,0.43099043202836884,3.2067887354055107,2.6093233082706764,0,0.05
1757332323.624762,-0.497,-0.21,9.63,0.43099043202836884,3.2067887354055107,2.6093233082706764,0,0.05
1757332323.6513574,-0.465,-0.071,9.637,0.43113709246595794,2.794432159795811,2.6039598997493734,0,0.05
1757332323.6797462,-0.459,-0.034,9.966,0.43088351674205405,2.644199274853789,2.602606516290727,0,0.05
1757332323.7070677,-0.459,-0.034,9.966,0.43088351674205405,2.644199274853789,2.602606516290727,0,0.05
1757332323.7336216,-0.564,0.01,9.882,0.4310428313984586,3.267037377049682,2.6066165413533833,0,0.05
1757332323.7610085,-0.564,0.01,9.882,0.4310428313984586,3.267037377049682,2.6066165413533833,0,0.05
1757332323.7879455,-0.564,0.01,9.882,0.4310428313984586,3.267037377049682,2.6066165413533833,0,0.05
1757332323.8157313,-0.406,0.048,9.589,0.4308301898660306,2.441330482212936,2.611077694235589,0,0.05
1757332323.8436117,-0.385,0.07,9.648,0.4307508705736995,2.3225785821391094,2.6090225563909772,0,0.05
1757332323.8702555,-0.385,0.07,9.648,0.4307508705736995,2.3225785821391094,2.6090225563909772,0,0.05
1757332323.898295,-0.173,-0.007,9.851,0.430467783347372,1.006929180173256,2.6158897243107777,0,0.05
1757332323.9261935,-0.173,-0.007,9.851,0.430467783347372,1.006929180173256,2.6158897243107777,0,0.05
1757332323.9543028,-0.374,0.061,9.6,0.43033201426340567,2.2604696110764193,2.6215037593984962,0,0.05
1757332323.9821641,-0.374,0.061,9.6,0.43033201426340567,2.2604696110764193,2.6215037593984962,0,0.05
1757332324.0091448,-0.405,-0.095,9.816,0.43001988616807013,2.426688831100389,2.6179448621553885,0,0.05
1757332324.0374212,-0.405,-0.095,9.816,0.43001988616807013,2.426688831100389,2.6179448621553885,0,0.05
1757332324.0647461,-0.442,0.092,9.92,0.43007744651399704,2.6058133274163473,2.6135839598997492,0,0.05
1757332324.0925186,-0.442,0.092,9.92,0.43007744651399704,2.6058133274163473,2.6135839598997492,0,0.05
1757332324.1204898,-0.44,0.192,9.53,0.42978307028081036,2.883794654719887,2.594736842105263,0,0.05
1757332324.1478016,-0.44,0.192,9.53,0.42978307028081036,2.883794654719887,2.594736842105263,0,0.05
1757332324.1741207,-0.587,-0.343,9.864,0.43070505859578667,3.942817721600299,2.5958395989974936,0,0.05
1757332324.2020502,-0.587,-0.343,9.864,0.43070505859578667,3.942817721600299,2.5958395989974936,0,0.05
1757332324.2307608,-0.491,-0.122,10.201,0.4311604109841255,2.8393208244084196,2.5923809523809527,0,0.05
1757332324.2594032,-0.491,-0.122,10.201,0.4311604109841255,2.8393208244084196,2.5923809523809527,0,0.05
1757332324.2878628,-0.555,-0.118,9.761,0.4314531260751277,3.3268514002289438,2.592230576441102,0,0.05
1757332324.3152971,-0.555,-0.118,9.761,0.4314531260751277,3.3268514002289438,2.592230576441102,0,0.05
1757332324.343332,-0.536,-0.169,9.816,0.43184914032564664,3.2768718365717535,2.591629072681704,0,0.05
1757332324.3705113,-0.536,-0.169,9.816,0.43184914032564664,3.2768718365717535,2.591629072681704,0,0.05
1757332324.3977437,-0.369,-0.03,10.041,0.4317350808076638,2.1115721733697064,2.599047619047619,0,0.05
1757332324.4254603,-0.369,-0.03,10.041,0.4317350808076638,2.1115721733697064,2.599047619047619,0,0.05
1757332324.4530122,-0.417,0.189,9.881,0.4316830926733175,2.6528776836514916,2.601303258145363,0,0.05
1757332324.4802167,-0.417,0.189,9.881,0.4316830926733175,2.6528776836514916,2.601303258145363,0,0.05
1757332324.506922,-0.418,0.111,9.8,0.43162587966895594,2.5268991297254173,2.601002506265664,0,0.05
1757332324.5343623,-0.418,0.111,9.8,0.43162587966895594,2.5268991297254173,2.601002506265664,0,0.05
1757332324.5621028,-0.186,0.246,9.952,0.4311445581240705,1.7749697656074044,2.607769423558897,0,0.05
1757332324.5897734,-0.186,0.246,9.952,0.4311445581240705,1.7749697656074044,2.607769423558897,0,0.05
1757332324.616978,-0.17,-0.009,9.911,0.4303664920739067,0.9840544599528722,2.6074686716791984,0,0.05
1757332324.6436164,-0.17,-0.009,9.911,0.4303664920739067,0.9840544599528722,2.6074686716791984,0,0.05
1757332324.6701932,-0.395,-0.049,9.799,0.4298856330467442,2.32603059843825,2.613533834586466,0,0.05
1757332324.696463,-0.395,-0.049,9.799,0.4298856330467442,2.32603059843825,2.613533834586466,0,0.05
1757332324.7227776,-0.561,0.041,9.754,0.43017733261993246,3.300492494980759,2.6211027568922303,0,0.05
1757332324.749792,-0.561,0.041,9.754,0.43017733261993246,3.300492494980759,2.6211027568922303,0,0.05
1757332324.776507,-0.472,-0.034,9.787,0.43024148742305174,2.768221087271087,2.6247117794486208,0,0.05
1757332324.8032703,-0.472,-0.034,9.787,0.43024148742305174,2.768221087271087,2.6247117794486208,0,0.05
1757332324.8299007,-0.424,-0.077,9.869,0.4301355774636644,2.5002618244857095,2.6172431077694234,0,0.05
1757332324.8566668,-0.424,-0.077,9.869,0.4301355774636644,2.5002618244857095,2.6172431077694234,0,0.05
1757332324.8835006,-0.345,-0.185,9.655,0.4302727245596681,2.321842599789587,2.6129323308270673,0,0.05
1757332324.9093978,-0.345,-0.185,9.655,0.4302727245596681,2.321842599789587,2.6129323308270673,0,0.05
1757332324.9365368,-0.529,-0.132,9.815,0.43054093591666753,3.179494684627082,2.6218045112781954,0,0.05
1757332324.9632456,-0.529,-0.132,9.815,0.43054093591666753,3.179494684627082,2.6218045112781954,0,0.05
1757332324.9901447,-0.522,-0.298,9.606,0.43076990087516565,3.5804777220219957,2.621954887218045,0,0.05
1757332325.0168748,-0.522,-0.298,9.606,0.43076990087516565,3.5804777220219957,2.621954887218045,0,0.05
1757332325.0426817,-0.394,-0.211,9.731,0.4306687329026801,2.629729362060058,2.624812030075188,0,0.05
1757332325.0695922,-0.394,-0.211,9.731,0.4306687329026801,2.629729362060058,2.624812030075188,0,0.05
1757332325.0963259,-0.306,-0.257,9.753,0.4301941712761808,2.346246410688854,2.622005012531328,0,0.05
1757332325.1230567,-0.306,-0.257,9.753,0.4301941712761808,2.346246410688854,2.622005012531328,0,0.05
1757332325.1501029,-0.476,-0.397,9.698,0.43046956048018076,3.6569612328347985,2.6268671679197997,0,0.05
1757332325.1769989,-0.476,-0.397,9.698,0.43046956048018076,3.6569612328347985,2.6268671679197997,0,0.05
1757332325.2048788,-0.702,-0.265,9.771,0.4313476700991904,4.391343952750465,2.636641604010025,0,0.05
1757332325.2326884,-0.702,-0.265,9.771,0.4313476700991904,4.391343952750465,2.636641604010025,0,0.05
1757332325.2604418,-0.708,-0.437,9.728,0.43216750224883865,4.888432572476528,2.6352882205513786,0,0.05
1757332325.2881722,-0.708,-0.437,9.728,0.43216750224883865,4.888432572476528,2.6352882205513786,0,0.05
1757332325.3148222,-0.498,-0.142,9.668,0.4321617289858045,3.0660176412639757,2.643659147869674,0,0.05
1757332325.341176,-0.498,-0.142,9.668,0.4321617289858045,3.0660176412639757,2.643659147869674,0,0.05
1757332325.3680449,-0.443,-0.176,9.707,0.43187644066329894,2.8113629925690633,2.6440601503759398,0,0.05
1757332325.3950565,-0.443,-0.176,9.707,0.43187644066329894,2.8113629925690633,2.6440601503759398,0,0.05
1757332325.422656,-0.33,-0.533,9.815,0.4311835572004109,3.6545424311332666,2.6414536340852126,0,0.05
1757332325.448576,-0.33,-0.533,9.815,0.4311835572004109,3.6545424311332666,2.6414536340852126,0,0.05
1757332325.4758854,-0.561,-0.396,9.624,0.4315721260693281,4.0812154943203165,2.6472180451127816,0,0.05
1757332325.503993,-0.561,-0.396,9.624,0.4315721260693281,4.0812154943203165,2.6472180451127816,0,0.05
1757332325.5321465,-0.343,-0.271,9.784,0.43106486750836004,2.5582114477853968,2.6434586466165415,0,0.05
1757332325.5576184,-0.343,-0.271,9.784,0.43106486750836004,2.5582114477853968,2.6434586466165415,0,0.05
1757332325.583649,-0.281,-0.037,9.872,0.43111548626789087,1.6445121521303212,2.6373433583959898,0,0.05
1757332325.6096814,-0.281,-0.037,9.872,0.43111548626789087,1.6445121521303212,2.6373433583959898,0,0.05
1757332325.6370995,-0.352,-0.01,9.751,0.43093359407221904,2.068248083060169,2.630977443609022,0,0.05
1757332325.6643836,-0.352,-0.01,9.751,0.43093359407221904,2.068248083060169,2.630977443609022,0,0.05
1757332325.691571,-0.456,-0.333,9.888,0.43038512114151906,3.2682777936697085,2.6274185463659148,0,0.05
1757332325.7186337,-0.456,-0.333,9.888,0.43038512114151906,3.2682777936697085,2.6274185463659148,0,0.05
1757332325.745702,-0.896,-0.475,9.919,0.4321120572259006,5.837649394791742,2.63719298245614,0,0.05
1757332325.7734525,-0.896,-0.475,9.919,0.4321120572259006,5.837649394791742,2.63719298245614,0,0.05
1757332325.800027,-0.777,-0.516,9.751,0.4324409237109735,5.463991386548474,2.6356390977443613,0,0.05
1757332325.8270054,-0.777,-0.516,9.751,0.4324409237109735,5.463991386548474,2.6356390977443613,0,0.05
1757332325.8537629,-0.754,-0.384,9.862,0.4319955931488191,4.903919721672157,2.6343859649122803,0,0.05
1757332325.8793743,-0.754,-0.384,9.862,0.4319955931488191,4.903919721672157,2.6343859649122803,0,0.05
1757332325.906864,-0.628,-0.371,9.852,0.4308017438451242,4.234212296444107,2.638596491228071,0,0.05
1757332325.9344726,-0.628,-0.371,9.852,0.4308017438451242,4.234212296444107,2.638596491228071,0,0.05
1757332325.9623938,-0.451,-0.223,9.684,0.4292630953156817,2.9740575569728525,2.6452631578947363,0,0.05
1757332325.9905286,-0.451,-0.223,9.684,0.4292630953156817,2.9740575569728525,2.6452631578947363,0,0.05
1757332326.0171733,-0.562,-0.2,9.743,0.42826166650775555,3.5036277804582374,2.6317293233082704,0,0.05
1757332326.043552,-0.562,-0.2,9.743,0.42826166650775555,3.5036277804582374,2.6317293233082704,0,0.05
1757332326.0711756,-0.625,-0.134,9.871,0.42885920183668674,3.7050546818456347,2.631679197994987,0,0.05
1757332326.0990708,-0.625,-0.134,9.871,0.42885920183668674,3.7050546818456347,2.631679197994987,0,0.05
1757332326.1269429,-0.342,-0.063,9.727,0.4284857786438192,2.0475343619550856,2.622606516290727,0,0.05
1757332326.152793,-0.342,-0.063,9.727,0.4284857786438192,2.0475343619550856,2.622606516290727,0,0.05
1757332326.179779,-0.391,0.024,9.582,0.4289287382538037,2.341089603060005,2.620902255639098,0,0.05
1757332326.2074037,-0.391,0.024,9.582,0.4289287382538037,2.341089603060005,2.620902255639098,0,0.05
1757332326.2354941,-0.403,0.09,9.686,0.429363942361256,2.4411188708241456,2.6056641604010027,0,0.05
1757332326.2637205,-0.403,0.09,9.686,0.429363942361256,2.4411188708241456,2.6056641604010027,0,0.05
1757332326.2915192,-0.448,-0.097,9.646,0.42940994981485936,2.720666137097075,2.607769423558897,0,0.05
1757332326.3184366,-0.448,-0.097,9.646,0.42940994981485936,2.720666137097075,2.607769423558897,0,0.05
1757332326.34428,-0.681,0.047,9.551,0.43022841026598885,4.088037988109496,2.6123809523809527,0,0.05
1757332326.370775,-0.681,0.047,9.551,0.43022841026598885,4.088037988109496,2.6123809523809527,0,0.05
1757332326.3975961,-0.423,-0.062,9.675,0.43051053123007343,2.5301440747319006,2.6034586466165415,0,0.05
1757332326.4244523,-0.423,-0.062,9.675,0.43051053123007343,2.5301440747319006,2.6034586466165415,0,0.05
1757332326.451967,-0.427,-0.037,9.736,0.42952523790808844,2.5206582549869054,2.601854636591479,0,0.05
1757332326.4786425,-0.427,-0.037,9.736,0.42952523790808844,2.5206582549869054,2.601854636591479,0,0.05
1757332326.5078511,-0.397,0.072,9.552,0.42831010086151367,2.4187338906114464,2.5882205513784458,0,0.05
1757332326.5362306,-0.397,0.072,9.552,0.42831010086151367,2.4187338906114464,2.5882205513784458,0,0.05
1757332326.563993,-0.362,-0.048,9.814,0.4280856368765483,2.1309316728724923,2.5852130325814535,0,0.05
1757332326.591653,-0.362,-0.048,9.814,0.4280856368765483,2.1309316728724923,2.5852130325814535,0,0.05
1757332326.6186438,-0.36,-0.098,9.719,0.42757725617717324,2.198435377445784,2.5800501253132833,0,0.05
1757332326.645155,-0.36,-0.098,9.719,0.42757725617717324,2.198435377445784,2.5800501253132833,0,0.05
1757332326.6721666,-0.461,-0.059,9.585,0.42761702784150213,2.7759995357495177,2.5808521303258147,0,0.05
1757332326.6996927,-0.491,-0.276,9.656,0.42794067637933186,3.338405777742187,2.5733333333333333,0,0.05
1757332326.7262444,-0.491,-0.276,9.656,0.42794067637933186,3.338405777742187,2.5733333333333333,0,0.05
1757332326.7533245,-0.942,-0.172,9.897,0.4296742137945911,5.526392044228934,2.5906766917293234,0,0.05
1757332326.7810998,-0.942,-0.172,9.897,0.4296742137945911,5.526392044228934,2.5906766917293234,0,0.05
1757332326.8088374,-0.942,-0.172,9.897,0.4296742137945911,5.526392044228934,2.5906766917293234,0,0.05
1757332326.8373952,-0.502,-0.289,9.697,0.42985427763371165,3.4184711995624277,2.609273182957393,0,0.05
1757332326.8650196,-0.502,-0.289,9.697,0.42985427763371165,3.4184711995624277,2.609273182957393,0,0.05
1757332326.892268,-0.502,-0.289,9.697,0.42985427763371165,3.4184711995624277,2.609273182957393,0,0.05
1757332326.9187498,-0.513,-0.281,9.721,0.4302277303940321,3.44337218126988,2.6022055137844613,0,0.05
1757332326.9450192,-0.599,-0.311,9.813,0.4311349440720388,3.9345231376542875,2.603107769423559,0,0.05
1757332326.9724083,-0.587,-0.282,9.678,0.4320702952066943,3.849580263377741,2.6016040100250626,0,0.05
1757332327.0005772,-0.587,-0.282,9.678,0.4320702952066943,3.849580263377741,2.6016040100250626,0,0.05
1757332327.0281723,-0.649,-0.229,9.579,0.4331840717293285,4.109433590143527,2.591629072681704,0,0.05
1757332327.0553863,-0.649,-0.229,9.579,0.4331840717293285,4.109433590143527,2.591629072681704,0,0.05
1757332327.082943,-0.639,-0.124,9.709,0.4337775841373088,3.835539032417673,2.5901754385964915,0,0.05
1757332327.110267,-0.639,-0.124,9.709,0.4337775841373088,3.835539032417673,2.5901754385964915,0,0.05
1757332327.1372256,-0.632,-0.164,9.659,0.4344413078886491,3.8672132333153337,2.5879197994987466,0,0.05
1757332327.164836,-0.632,-0.164,9.659,0.4344413078886491,3.8672132333153337,2.5879197994987466,0,0.05
1757332327.1918237,-0.627,-0.105,9.494,0.4349553425352998,3.830884017946392,2.58375939849624,0,0.05
1757332327.2184577,-0.627,-0.105,9.494,0.4349553425352998,3.830884017946392,2.58375939849624,0,0.05
1757332327.246529,-0.568,0.091,9.585,0.43501000850555155,3.4344846411569074,2.58,0,0.05
1757332327.2742076,-0.568,0.091,9.585,0.43501000850555155,3.4344846411569074,2.58,0,0.05
1757332327.302675,-0.387,-0.048,9.518,0.4340910820323311,2.346173664071222,2.5808020050125307,0,0.05
1757332327.3310704,-0.387,-0.048,9.518,0.4340910820323311,2.346173664071222,2.5808020050125307,0,0.05
1757332327.3594358,-0.371,-0.05,9.565,0.4337086233867157,2.24129315038101,2.580551378446115,0,0.05
1757332327.3866208,-0.371,-0.05,9.565,0.4337086233867157,2.24129315038101,2.580551378446115,0,0.05
1757332327.4142964,-0.447,-0.206,9.61,0.43356682299271937,2.9318878917762583,2.581002506265664,0,0.05
1757332327.4416997,-0.447,-0.206,9.61,0.43356682299271937,2.9318878917762583,2.581002506265664,0,0.05
1757332327.4695997,-0.505,0.104,9.792,0.43337842874328664,3.0141254394322656,2.5736340852130324,0,0.05
1757332327.4959807,-0.505,0.104,9.792,0.43337842874328664,3.0141254394322656,2.5736340852130324,0,0.05
1757332327.5226657,-0.438,-0.013,9.669,0.4335558441538991,2.5948324987944624,2.575889724310777,0,0.05
1757332327.5491302,-0.438,-0.013,9.669,0.4335558441538991,2.5948324987944624,2.575889724310777,0,0.05
1757332327.5761676,-0.452,-0.045,9.712,0.43372192416339755,2.677797463175233,2.5678696741854634,0,0.05
1757332327.6036692,-0.452,-0.045,9.712,0.43372192416339755,2.677797463175233,2.5678696741854634,0,0.05
1757332327.631503,-0.456,-0.051,9.727,0.43419505409435516,2.700760728873529,2.5619548872180453,0,0.05
1757332327.6592574,-0.456,-0.051,9.727,0.43419505409435516,2.700760728873529,2.5619548872180453,0,0.05
1757332327.6858132,-0.528,-0.049,9.804,0.4349751515891454,3.0959393560450237,2.5594486215538845,0,0.05
1757332327.7129502,-0.528,-0.049,9.804,0.4349751515891454,3.0959393560450237,2.5594486215538845,0,0.05
1757332327.7392316,-0.524,-0.164,9.649,0.43563817555397966,3.256834718200392,2.5562907268170427,0,0.05
1757332327.767477,-0.524,-0.164,9.649,0.43563817555397966,3.256834718200392,2.5562907268170427,0,0.05
1757332327.7947147,-0.419,-0.073,9.797,0.43592325299300105,2.4857886273078877,2.5570426065162906,0,0.05
1757332327.8221056,-0.419,-0.073,9.797,0.43592325299300105,2.4857886273078877,2.5570426065162906,0,0.05
1757332327.8496,-0.348,0.052,9.729,0.43588639861780504,2.0712834538858194,2.5591478696741854,0,0.05
1757332327.8771656,-0.348,0.052,9.729,0.43588639861780504,2.0712834538858194,2.5591478696741854,0,0.05
1757332327.9058573,-0.561,-0.185,9.85,0.4363412569308568,3.431987285138858,2.5695739348370927,0,0.05
1757332327.9340527,-0.561,-0.185,9.85,0.4363412569308568,3.431987285138858,2.5695739348370927,0,0.05
1757332327.9614341,-0.477,-0.158,9.866,0.43653466643555355,2.9156211801326855,2.573583959899749,0,0.05
1757332327.9879706,-0.477,-0.158,9.866,0.43653466643555355,2.9156211801326855,2.573583959899749,0,0.05
1757332328.0144954,-0.783,-0.219,9.975,0.4378209651215894,4.6598063594579076,2.58265664160401,0,0.05
1757332328.0415087,-0.783,-0.219,9.975,0.4378209651215894,4.6598063594579076,2.58265664160401,0,0.05
1757332328.068257,-0.712,-0.475,9.854,0.43904436563973803,4.964159606844623,2.5804010025062656,0,0.05
1757332328.0962644,-0.712,-0.475,9.854,0.43904436563973803,4.964159606844623,2.5804010025062656,0,0.05
1757332328.1241953,-0.787,-0.279,9.798,0.44072889058921466,4.871009025760166,2.5713784461152884,0,0.05
1757332328.1513567,-0.787,-0.279,9.798,0.44072889058921466,4.871009025760166,2.5713784461152884,0,0.05
1757332328.1788712,-0.581,-0.065,10.001,0.44119048890473606,3.3455103969834945,2.569874686716792,0,0.05
1757332328.206007,-0.581,-0.065,10.001,0.44119048890473606,3.3455103969834945,2.569874686716792,0,0.05
1757332328.2326338,-0.532,-0.151,9.827,0.44189794919189207,3.2209230118158154,2.567218045112782,0,0.05
1757332328.2592783,-0.532,-0.151,9.827,0.44189794919189207,3.2209230118158154,2.567218045112782,0,0.05
1757332328.2854939,-0.189,0.035,9.837,0.4417708229387722,1.1194080123493153,2.581854636591479,0,0.05
1757332328.311282,-0.189,0.035,9.837,0.4417708229387722,1.1194080123493153,2.581854636591479,0,0.05
1757332328.3395321,-0.256,-0.055,9.754,0.44180264541987524,1.5377090264168138,2.574937343358396,0,0.05
1757332328.3673651,-0.256,-0.055,9.754,0.44180264541987524,1.5377090264168138,2.574937343358396,0,0.05
1757332328.395689,-0.62,-0.059,9.729,0.44234711200594495,3.6627856185282375,2.587418546365915,0,0.05
1757332328.4236655,-0.62,-0.059,9.729,0.44234711200594495,3.6627856185282375,2.587418546365915,0,0.05
1757332328.4514832,-0.762,-0.267,9.763,0.4431230698124394,4.727740183551113,2.580551378446115,0,0.05
1757332328.4778059,-0.762,-0.267,9.763,0.4431230698124394,4.727740183551113,2.580551378446115,0,0.05
1757332328.5049067,-0.476,-0.132,9.821,0.44355022827183843,2.8793603230692018,2.5847619047619053,0,0.05
1757332328.5327418,-0.476,-0.132,9.821,0.44355022827183843,2.8793603230692018,2.5847619047619053,0,0.05
1757332328.560271,-0.571,-0.185,9.751,0.44383044904557867,3.5223904819925465,2.5818546365914785,0,0.05
1757332328.5868073,-0.571,-0.185,9.751,0.44383044904557867,3.5223904819925465,2.5818546365914785,0,0.05
1757332328.6125276,-0.597,-0.262,9.853,0.44453983792231716,3.7856727337676372,2.582907268170426,0,0.05
1757332328.640182,-0.597,-0.262,9.853,0.44453983792231716,3.7856727337676372,2.582907268170426,0,0.05
